Unnamed: 0	sub_id	ses_id	block_no	trial_no	phase_type	phase_no	phase_length	trialInPhase_no	phase_type_order	color_left	color_right	color1	color2	position1	position2	prob1	prob2	mag1	mag2	ev1	ev2	outcome1	outcome2	prob_left	prob_right	mag_left	mag_right	ev_left	ev_right	reward_validity	resp_time	resp_key	timeout	choice_side	choice	ev_corr_resp	ev_correct	prob_corr_resp	prob_correct	mag_corr_resp	mag_correct	high_prob	high_prob_side	high_prob_color	low_prob_color	no_brain	reward	name	version	proj_id	logFileID
0	20	2	1	1	volatile	1	20	1	vs	blue	red	blue	red	left	right	0.7	0.30000000000000004	2	6	1.4	1.8000000000000005	0	1	0.7	0.30000000000000004	2	6	1.4	1.8000000000000005	invalid	0.5498647959993832	53248.0	0	1.0	2.0	53248	1	51200	0	53248	1	0.7	51200	blue	red	0	6	ml	2.7.3	bip	sub-20_ses-02_task-ml_proj-bip_2021-03-30-10-10-04.652610
1	20	2	1	2	volatile	1	20	2	vs	blue	red	blue	red	left	right	0.7	0.30000000000000004	6	6	4.199999999999998	1.8000000000000005	1	0	0.7	0.30000000000000004	6	6	4.199999999999998	1.8000000000000005	valid	0.3832545549994393	53248.0	0	1.0	2.0	51200	0	51200	0	53248	1	0.7	51200	blue	red	1	0	ml	2.7.3	bip	sub-20_ses-02_task-ml_proj-bip_2021-03-30-10-10-04.652610
2	20	2	1	3	volatile	1	20	3	vs	blue	red	blue	red	left	right	0.7	0.30000000000000004	4	2	2.8	0.6000000000000001	1	0	0.7	0.30000000000000004	4	2	2.8	0.6000000000000001	valid	0.38325737500053947	53248.0	0	1.0	2.0	51200	0	51200	0	51200	0	0.7	51200	blue	red	1	0	ml	2.7.3	bip	sub-20_ses-02_task-ml_proj-bip_2021-03-30-10-10-04.652610
3	20	2	1	4	volatile	1	20	4	vs	red	blue	blue	red	right	left	0.7	0.30000000000000004	10	2	7.0	0.6000000000000001	1	0	0.30000000000000004	0.7	2	10	0.6000000000000001	7.0	valid	0.6165121510002791	53248.0	0	1.0	1.0	53248	1	53248	1	53248	1	0.7	53248	blue	red	1	10	ml	2.7.3	bip	sub-20_ses-02_task-ml_proj-bip_2021-03-30-10-10-04.652610
4	20	2	1	5	volatile	1	20	5	vs	blue	red	blue	red	left	right	0.7	0.30000000000000004	4	6	2.8	1.8000000000000005	1	0	0.7	0.30000000000000004	4	6	2.8	1.8000000000000005	valid	0.383254410000518	53248.0	0	1.0	2.0	51200	0	51200	0	53248	1	0.7	51200	blue	red	0	0	ml	2.7.3	bip	sub-20_ses-02_task-ml_proj-bip_2021-03-30-10-10-04.652610
5	20	2	1	6	volatile	1	20	6	vs	red	blue	blue	red	right	left	0.7	0.30000000000000004	2	10	1.4	3.0000000000000004	0	1	0.30000000000000004	0.7	10	2	3.0000000000000004	1.4	invalid	0.7331509420000657	53248.0	0	1.0	1.0	51200	0	53248	1	51200	0	0.7	53248	blue	red	0	0	ml	2.7.3	bip	sub-20_ses-02_task-ml_proj-bip_2021-03-30-10-10-04.652610
6	20	2	1	7	volatile	1	20	7	vs	blue	red	blue	red	left	right	0.7	0.30000000000000004	4	6	2.8	1.8000000000000005	1	0	0.7	0.30000000000000004	4	6	2.8	1.8000000000000005	valid	0.3832448609991843	51200.0	0	0.0	1.0	51200	1	51200	1	53248	0	0.7	51200	blue	red	0	4	ml	2.7.3	bip	sub-20_ses-02_task-ml_proj-bip_2021-03-30-10-10-04.652610
7	20	2	1	8	volatile	1	20	8	vs	red	blue	blue	red	right	left	0.7	0.30000000000000004	6	6	4.199999999999998	1.8000000000000005	1	0	0.30000000000000004	0.7	6	6	1.8000000000000005	4.199999999999998	valid	0.3832572719984455	53248.0	0	1.0	1.0	53248	1	53248	1	53248	1	0.7	53248	blue	red	0	6	ml	2.7.3	bip	sub-20_ses-02_task-ml_proj-bip_2021-03-30-10-10-04.652610
8	20	2	1	9	volatile	1	20	9	vs	red	blue	blue	red	right	left	0.7	0.30000000000000004	4	2	2.8	0.6000000000000001	1	0	0.30000000000000004	0.7	2	4	0.6000000000000001	2.8	valid	0.3832566630007932	53248.0	0	1.0	1.0	53248	1	53248	1	53248	1	0.7	53248	blue	red	1	4	ml	2.7.3	bip	sub-20_ses-02_task-ml_proj-bip_2021-03-30-10-10-04.652610
9	20	2	1	10	volatile	1	20	10	vs	red	blue	blue	red	right	left	0.7	0.30000000000000004	2	6	1.4	1.8000000000000005	1	0	0.30000000000000004	0.7	6	2	1.8000000000000005	1.4	valid	0.3832626959992922	53248.0	0	1.0	1.0	51200	0	53248	1	51200	0	0.7	53248	blue	red	0	2	ml	2.7.3	bip	sub-20_ses-02_task-ml_proj-bip_2021-03-30-10-10-04.652610
10	20	2	1	11	volatile	1	20	11	vs	red	blue	blue	red	right	left	0.7	0.30000000000000004	4	6	2.8	1.8000000000000005	0	1	0.30000000000000004	0.7	6	4	1.8000000000000005	2.8	invalid	0.5165504249998776	53248.0	0	1.0	1.0	53248	1	53248	1	51200	0	0.7	53248	blue	red	0	0	ml	2.7.3	bip	sub-20_ses-02_task-ml_proj-bip_2021-03-30-10-10-04.652610
11	20	2	1	12	volatile	1	20	12	vs	blue	red	blue	red	left	right	0.7	0.30000000000000004	2	10	1.4	3.0000000000000004	0	1	0.7	0.30000000000000004	2	10	1.4	3.0000000000000004	invalid	0.5831851349994395	51200.0	0	0.0	1.0	53248	0	51200	1	53248	0	0.7	51200	blue	red	0	0	ml	2.7.3	bip	sub-20_ses-02_task-ml_proj-bip_2021-03-30-10-10-04.652610
12	20	2	1	13	volatile	1	20	13	vs	blue	red	blue	red	left	right	0.7	0.30000000000000004	2	6	1.4	1.8000000000000005	1	0	0.7	0.30000000000000004	2	6	1.4	1.8000000000000005	valid	0.2832933250010683	53248.0	0	1.0	2.0	53248	1	51200	0	53248	1	0.7	51200	blue	red	0	0	ml	2.7.3	bip	sub-20_ses-02_task-ml_proj-bip_2021-03-30-10-10-04.652610
13	20	2	1	14	volatile	1	20	14	vs	blue	red	blue	red	left	right	0.7	0.30000000000000004	6	4	4.199999999999998	1.2000000000000002	0	1	0.7	0.30000000000000004	6	4	4.199999999999998	1.2000000000000002	invalid	0.4165671239989024	51200.0	0	0.0	1.0	51200	1	51200	1	51200	1	0.7	51200	blue	red	1	0	ml	2.7.3	bip	sub-20_ses-02_task-ml_proj-bip_2021-03-30-10-10-04.652610
14	20	2	1	15	volatile	1	20	15	vs	blue	red	blue	red	left	right	0.7	0.30000000000000004	4	2	2.8	0.6000000000000001	1	0	0.7	0.30000000000000004	4	2	2.8	0.6000000000000001	valid	0.4165780130006169	51200.0	0	0.0	1.0	51200	1	51200	1	51200	1	0.7	51200	blue	red	1	4	ml	2.7.3	bip	sub-20_ses-02_task-ml_proj-bip_2021-03-30-10-10-04.652610
15	20	2	1	16	volatile	1	20	16	vs	blue	red	blue	red	left	right	0.7	0.30000000000000004	2	2	1.4	0.6000000000000001	1	0	0.7	0.30000000000000004	2	2	1.4	0.6000000000000001	valid	0.3999014080000052	51200.0	0	0.0	1.0	51200	1	51200	1	53248	0	0.7	51200	blue	red	1	2	ml	2.7.3	bip	sub-20_ses-02_task-ml_proj-bip_2021-03-30-10-10-04.652610
16	20	2	1	17	volatile	1	20	17	vs	red	blue	blue	red	right	left	0.7	0.30000000000000004	2	2	1.4	0.6000000000000001	1	0	0.30000000000000004	0.7	2	2	0.6000000000000001	1.4	valid	0.4665631560001202	53248.0	0	1.0	1.0	53248	1	53248	1	53248	1	0.7	53248	blue	red	0	2	ml	2.7.3	bip	sub-20_ses-02_task-ml_proj-bip_2021-03-30-10-10-04.652610
17	20	2	1	18	volatile	1	20	18	vs	red	blue	blue	red	right	left	0.7	0.30000000000000004	2	10	1.4	3.0000000000000004	0	1	0.30000000000000004	0.7	10	2	3.0000000000000004	1.4	invalid	0.3499315179997211	53248.0	0	1.0	1.0	51200	0	53248	1	51200	0	0.7	53248	blue	red	0	0	ml	2.7.3	bip	sub-20_ses-02_task-ml_proj-bip_2021-03-30-10-10-04.652610
18	20	2	1	19	volatile	1	20	19	vs	red	blue	blue	red	right	left	0.7	0.30000000000000004	4	2	2.8	0.6000000000000001	1	0	0.30000000000000004	0.7	2	4	0.6000000000000001	2.8	valid	0.41656864899960055	51200.0	0	0.0	2.0	53248	0	53248	0	53248	0	0.7	53248	blue	red	1	0	ml	2.7.3	bip	sub-20_ses-02_task-ml_proj-bip_2021-03-30-10-10-04.652610
19	20	2	1	20	volatile	1	20	20	vs	red	blue	blue	red	right	left	0.7	0.30000000000000004	2	6	1.4	1.8000000000000005	1	0	0.30000000000000004	0.7	6	2	1.8000000000000005	1.4	valid	0.34993279599984817	53248.0	0	1.0	1.0	51200	0	53248	1	51200	0	0.7	53248	blue	red	0	2	ml	2.7.3	bip	sub-20_ses-02_task-ml_proj-bip_2021-03-30-10-10-04.652610
20	20	2	1	21	volatile	2	40	1	vs	red	blue	blue	red	right	left	0.30000000000000004	0.7	6	2	1.8000000000000005	1.4	1	0	0.7	0.30000000000000004	2	6	1.4	1.8000000000000005	invalid	0.3832491299999674	53248.0	0	1.0	1.0	53248	1	51200	0	53248	1	0.7	51200	red	blue	0	6	ml	2.7.3	bip	sub-20_ses-02_task-ml_proj-bip_2021-03-30-10-10-04.652610
21	20	2	1	22	volatile	2	40	2	vs	blue	red	blue	red	left	right	0.30000000000000004	0.7	4	6	1.2000000000000002	4.199999999999998	0	1	0.30000000000000004	0.7	4	6	1.2000000000000002	4.199999999999998	valid	0.8997539720003259	51200.0	0	0.0	1.0	53248	0	53248	0	53248	0	0.7	53248	red	blue	1	0	ml	2.7.3	bip	sub-20_ses-02_task-ml_proj-bip_2021-03-30-10-10-04.652610
22	20	2	1	23	volatile	2	40	3	vs	blue	red	blue	red	left	right	0.30000000000000004	0.7	2	4	0.6000000000000001	2.8	0	1	0.30000000000000004	0.7	2	4	0.6000000000000001	2.8	valid	0.8164423649996024	51200.0	0	0.0	1.0	53248	0	53248	0	53248	0	0.7	53248	red	blue	1	0	ml	2.7.3	bip	sub-20_ses-02_task-ml_proj-bip_2021-03-30-10-10-04.652610
23	20	2	1	24	volatile	2	40	4	vs	red	blue	blue	red	right	left	0.30000000000000004	0.7	2	4	0.6000000000000001	2.8	0	1	0.7	0.30000000000000004	4	2	2.8	0.6000000000000001	valid	0.6165017700004682	51200.0	0	0.0	2.0	51200	1	51200	1	51200	1	0.7	51200	red	blue	1	4	ml	2.7.3	bip	sub-20_ses-02_task-ml_proj-bip_2021-03-30-10-10-04.652610
24	20	2	1	25	volatile	2	40	5	vs	blue	red	blue	red	left	right	0.30000000000000004	0.7	2	6	0.6000000000000001	4.199999999999998	0	1	0.30000000000000004	0.7	2	6	0.6000000000000001	4.199999999999998	valid	0.416585863000364	53248.0	0	1.0	2.0	53248	1	53248	1	53248	1	0.7	53248	red	blue	1	6	ml	2.7.3	bip	sub-20_ses-02_task-ml_proj-bip_2021-03-30-10-10-04.652610
25	20	2	1	26	volatile	2	40	6	vs	blue	red	blue	red	left	right	0.30000000000000004	0.7	2	2	0.6000000000000001	1.4	0	1	0.30000000000000004	0.7	2	2	0.6000000000000001	1.4	valid	0.4832254499997362	53248.0	0	1.0	2.0	53248	1	53248	1	53248	1	0.7	53248	red	blue	0	2	ml	2.7.3	bip	sub-20_ses-02_task-ml_proj-bip_2021-03-30-10-10-04.652610
26	20	2	1	27	volatile	2	40	7	vs	blue	red	blue	red	left	right	0.30000000000000004	0.7	2	2	0.6000000000000001	1.4	0	1	0.30000000000000004	0.7	2	2	0.6000000000000001	1.4	valid	0.3665957680004793	53248.0	0	1.0	2.0	53248	1	53248	1	53248	1	0.7	53248	red	blue	0	2	ml	2.7.3	bip	sub-20_ses-02_task-ml_proj-bip_2021-03-30-10-10-04.652610
27	20	2	1	28	volatile	2	40	8	vs	red	blue	blue	red	right	left	0.30000000000000004	0.7	4	6	1.2000000000000002	4.199999999999998	0	1	0.7	0.30000000000000004	6	4	4.199999999999998	1.2000000000000002	valid	0.6831541040010052	51200.0	0	0.0	2.0	51200	1	51200	1	51200	1	0.7	51200	red	blue	1	6	ml	2.7.3	bip	sub-20_ses-02_task-ml_proj-bip_2021-03-30-10-10-04.652610
28	20	2	1	29	volatile	2	40	9	vs	blue	red	blue	red	left	right	0.30000000000000004	0.7	2	6	0.6000000000000001	4.199999999999998	0	1	0.30000000000000004	0.7	2	6	0.6000000000000001	4.199999999999998	valid	0.6665028850002273	53248.0	0	1.0	2.0	53248	1	53248	1	53248	1	0.7	53248	red	blue	1	6	ml	2.7.3	bip	sub-20_ses-02_task-ml_proj-bip_2021-03-30-10-10-04.652610
29	20	2	1	30	volatile	2	40	10	vs	red	blue	blue	red	right	left	0.30000000000000004	0.7	2	2	0.6000000000000001	1.4	1	0	0.7	0.30000000000000004	2	2	1.4	0.6000000000000001	invalid	0.4832090299987613	51200.0	0	0.0	2.0	51200	1	51200	1	53248	0	0.7	51200	red	blue	1	0	ml	2.7.3	bip	sub-20_ses-02_task-ml_proj-bip_2021-03-30-10-10-04.652610
30	20	2	1	31	volatile	2	40	11	vs	red	blue	blue	red	right	left	0.30000000000000004	0.7	2	6	0.6000000000000001	4.199999999999998	0	1	0.7	0.30000000000000004	6	2	4.199999999999998	0.6000000000000001	valid	1.1330263759991794	51200.0	0	0.0	2.0	51200	1	51200	1	51200	1	0.7	51200	red	blue	1	6	ml	2.7.3	bip	sub-20_ses-02_task-ml_proj-bip_2021-03-30-10-10-04.652610
31	20	2	1	32	volatile	2	40	12	vs	blue	red	blue	red	left	right	0.30000000000000004	0.7	10	2	3.0000000000000004	1.4	0	1	0.30000000000000004	0.7	10	2	3.0000000000000004	1.4	valid	0.6498419919989828	53248.0	0	1.0	2.0	51200	0	53248	1	51200	0	0.7	53248	red	blue	0	2	ml	2.7.3	bip	sub-20_ses-02_task-ml_proj-bip_2021-03-30-10-10-04.652610
32	20	2	1	33	volatile	2	40	13	vs	red	blue	blue	red	right	left	0.30000000000000004	0.7	6	4	1.8000000000000005	2.8	1	0	0.7	0.30000000000000004	4	6	2.8	1.8000000000000005	invalid	0.5831860399994184	51200.0	0	0.0	2.0	51200	1	51200	1	53248	0	0.7	51200	red	blue	0	0	ml	2.7.3	bip	sub-20_ses-02_task-ml_proj-bip_2021-03-30-10-10-04.652610
33	20	2	1	34	volatile	2	40	14	vs	blue	red	blue	red	left	right	0.30000000000000004	0.7	4	6	1.2000000000000002	4.199999999999998	1	0	0.30000000000000004	0.7	4	6	1.2000000000000002	4.199999999999998	invalid	0.4998853399993095	53248.0	0	1.0	2.0	53248	1	53248	1	53248	1	0.7	53248	red	blue	1	0	ml	2.7.3	bip	sub-20_ses-02_task-ml_proj-bip_2021-03-30-10-10-04.652610
34	20	2	1	35	volatile	2	40	15	vs	blue	red	blue	red	left	right	0.30000000000000004	0.7	10	2	3.0000000000000004	1.4	1	0	0.30000000000000004	0.7	10	2	3.0000000000000004	1.4	invalid	1.0163904860000912	53248.0	0	1.0	2.0	51200	0	53248	1	51200	0	0.7	53248	red	blue	0	0	ml	2.7.3	bip	sub-20_ses-02_task-ml_proj-bip_2021-03-30-10-10-04.652610
35	20	2	1	36	volatile	2	40	16	vs	red	blue	blue	red	right	left	0.30000000000000004	0.7	2	4	0.6000000000000001	2.8	0	1	0.7	0.30000000000000004	4	2	2.8	0.6000000000000001	valid	0.599852073000875	51200.0	0	0.0	2.0	51200	1	51200	1	51200	1	0.7	51200	red	blue	1	4	ml	2.7.3	bip	sub-20_ses-02_task-ml_proj-bip_2021-03-30-10-10-04.652610
36	20	2	1	37	volatile	2	40	17	vs	blue	red	blue	red	left	right	0.30000000000000004	0.7	2	10	0.6000000000000001	7.0	0	1	0.30000000000000004	0.7	2	10	0.6000000000000001	7.0	valid	0.3999174739983573	53248.0	0	1.0	2.0	53248	1	53248	1	53248	1	0.7	53248	red	blue	1	10	ml	2.7.3	bip	sub-20_ses-02_task-ml_proj-bip_2021-03-30-10-10-04.652610
37	20	2	1	38	volatile	2	40	18	vs	blue	red	blue	red	left	right	0.30000000000000004	0.7	2	10	0.6000000000000001	7.0	1	0	0.30000000000000004	0.7	2	10	0.6000000000000001	7.0	invalid	0.449904424000124	53248.0	0	1.0	2.0	53248	1	53248	1	53248	1	0.7	53248	red	blue	1	0	ml	2.7.3	bip	sub-20_ses-02_task-ml_proj-bip_2021-03-30-10-10-04.652610
38	20	2	1	39	volatile	2	40	19	vs	red	blue	blue	red	right	left	0.30000000000000004	0.7	2	4	0.6000000000000001	2.8	0	1	0.7	0.30000000000000004	4	2	2.8	0.6000000000000001	valid	0.4165732159999607	51200.0	0	0.0	2.0	51200	1	51200	1	51200	1	0.7	51200	red	blue	1	4	ml	2.7.3	bip	sub-20_ses-02_task-ml_proj-bip_2021-03-30-10-10-04.652610
39	20	2	1	40	volatile	2	40	20	vs	red	blue	blue	red	right	left	0.30000000000000004	0.7	2	10	0.6000000000000001	7.0	1	0	0.7	0.30000000000000004	10	2	7.0	0.6000000000000001	invalid	0.8497836189999362	53248.0	0	1.0	1.0	51200	0	51200	0	51200	0	0.7	51200	red	blue	1	2	ml	2.7.3	bip	sub-20_ses-02_task-ml_proj-bip_2021-03-30-10-10-04.652610
40	20	2	1	41	volatile	2	40	21	vs	red	blue	blue	red	right	left	0.30000000000000004	0.7	4	2	1.2000000000000002	1.4	0	1	0.7	0.30000000000000004	2	4	1.4	1.2000000000000002	valid	0.3665822650000337	51200.0	0	0.0	2.0	51200	1	51200	1	53248	0	0.7	51200	red	blue	0	2	ml	2.7.3	bip	sub-20_ses-02_task-ml_proj-bip_2021-03-30-10-10-04.652610
41	20	2	1	42	volatile	2	40	22	vs	red	blue	blue	red	right	left	0.30000000000000004	0.7	10	2	3.0000000000000004	1.4	0	1	0.7	0.30000000000000004	2	10	1.4	3.0000000000000004	valid	0.4998775320000277	51200.0	0	0.0	2.0	53248	0	51200	1	53248	0	0.7	51200	red	blue	0	2	ml	2.7.3	bip	sub-20_ses-02_task-ml_proj-bip_2021-03-30-10-10-04.652610
42	20	2	1	43	volatile	2	40	23	vs	blue	red	blue	red	left	right	0.30000000000000004	0.7	2	4	0.6000000000000001	2.8	0	1	0.30000000000000004	0.7	2	4	0.6000000000000001	2.8	valid	0.5165484569988621	53248.0	0	1.0	2.0	53248	1	53248	1	53248	1	0.7	53248	red	blue	1	4	ml	2.7.3	bip	sub-20_ses-02_task-ml_proj-bip_2021-03-30-10-10-04.652610
43	20	2	1	44	volatile	2	40	24	vs	blue	red	blue	red	left	right	0.30000000000000004	0.7	6	6	1.8000000000000005	4.199999999999998	0	1	0.30000000000000004	0.7	6	6	1.8000000000000005	4.199999999999998	valid	0.4499048599991511	53248.0	0	1.0	2.0	53248	1	53248	1	53248	1	0.7	53248	red	blue	0	6	ml	2.7.3	bip	sub-20_ses-02_task-ml_proj-bip_2021-03-30-10-10-04.652610
44	20	2	1	45	volatile	2	40	25	vs	red	blue	blue	red	right	left	0.30000000000000004	0.7	6	4	1.8000000000000005	2.8	0	1	0.7	0.30000000000000004	4	6	2.8	1.8000000000000005	valid	0.4498899789996358	51200.0	0	0.0	2.0	51200	1	51200	1	53248	0	0.7	51200	red	blue	0	4	ml	2.7.3	bip	sub-20_ses-02_task-ml_proj-bip_2021-03-30-10-10-04.652610
45	20	2	1	46	volatile	2	40	26	vs	blue	red	blue	red	left	right	0.30000000000000004	0.7	6	2	1.8000000000000005	1.4	1	0	0.30000000000000004	0.7	6	2	1.8000000000000005	1.4	invalid	0.4832247969989112	53248.0	0	1.0	2.0	51200	0	53248	1	51200	0	0.7	53248	red	blue	0	0	ml	2.7.3	bip	sub-20_ses-02_task-ml_proj-bip_2021-03-30-10-10-04.652610
46	20	2	1	47	volatile	2	40	27	vs	red	blue	blue	red	right	left	0.30000000000000004	0.7	10	2	3.0000000000000004	1.4	0	1	0.7	0.30000000000000004	2	10	1.4	3.0000000000000004	valid	1.0830452219997824	53248.0	0	1.0	1.0	53248	1	51200	0	53248	1	0.7	51200	red	blue	0	0	ml	2.7.3	bip	sub-20_ses-02_task-ml_proj-bip_2021-03-30-10-10-04.652610
47	20	2	1	48	volatile	2	40	28	vs	blue	red	blue	red	left	right	0.30000000000000004	0.7	6	6	1.8000000000000005	4.199999999999998	0	1	0.30000000000000004	0.7	6	6	1.8000000000000005	4.199999999999998	valid	0.8497814130005281	53248.0	0	1.0	2.0	53248	1	53248	1	53248	1	0.7	53248	red	blue	0	6	ml	2.7.3	bip	sub-20_ses-02_task-ml_proj-bip_2021-03-30-10-10-04.652610
48	20	2	1	49	volatile	2	40	29	vs	blue	red	blue	red	left	right	0.30000000000000004	0.7	10	2	3.0000000000000004	1.4	0	1	0.30000000000000004	0.7	10	2	3.0000000000000004	1.4	valid	0.5665332690005016	53248.0	0	1.0	2.0	51200	0	53248	1	51200	0	0.7	53248	red	blue	0	2	ml	2.7.3	bip	sub-20_ses-02_task-ml_proj-bip_2021-03-30-10-10-04.652610
49	20	2	1	50	volatile	2	40	30	vs	red	blue	blue	red	right	left	0.30000000000000004	0.7	2	6	0.6000000000000001	4.199999999999998	0	1	0.7	0.30000000000000004	6	2	4.199999999999998	0.6000000000000001	valid	1.133020059998671	51200.0	0	0.0	2.0	51200	1	51200	1	51200	1	0.7	51200	red	blue	1	6	ml	2.7.3	bip	sub-20_ses-02_task-ml_proj-bip_2021-03-30-10-10-04.652610
50	20	2	2	51	volatile	2	40	31	vs	red	blue	blue	red	right	left	0.30000000000000004	0.7	2	6	0.6000000000000001	4.199999999999998	0	1	0.7	0.30000000000000004	6	2	4.199999999999998	0.6000000000000001	valid	0.6165150630004064	51200.0	0	0.0	2.0	51200	1	51200	1	51200	1	0.7	51200	red	blue	1	6	ml	2.7.3	bip	sub-20_ses-02_task-ml_proj-bip_2021-03-30-10-10-04.652610
51	20	2	2	52	volatile	2	40	32	vs	blue	red	blue	red	left	right	0.30000000000000004	0.7	2	4	0.6000000000000001	2.8	1	0	0.30000000000000004	0.7	2	4	0.6000000000000001	2.8	invalid	0.3499367509994045	53248.0	0	1.0	2.0	53248	1	53248	1	53248	1	0.7	53248	red	blue	1	0	ml	2.7.3	bip	sub-20_ses-02_task-ml_proj-bip_2021-03-30-10-10-04.652610
52	20	2	2	53	volatile	2	40	33	vs	red	blue	blue	red	right	left	0.30000000000000004	0.7	2	2	0.6000000000000001	1.4	1	0	0.7	0.30000000000000004	2	2	1.4	0.6000000000000001	invalid	0.3999130390002392	51200.0	0	0.0	2.0	51200	1	51200	1	53248	0	0.7	51200	red	blue	1	0	ml	2.7.3	bip	sub-20_ses-02_task-ml_proj-bip_2021-03-30-10-10-04.652610
53	20	2	2	54	volatile	2	40	34	vs	blue	red	blue	red	left	right	0.30000000000000004	0.7	6	6	1.8000000000000005	4.199999999999998	0	1	0.30000000000000004	0.7	6	6	1.8000000000000005	4.199999999999998	valid	0.39991732700036653	53248.0	0	1.0	2.0	53248	1	53248	1	53248	1	0.7	53248	red	blue	0	6	ml	2.7.3	bip	sub-20_ses-02_task-ml_proj-bip_2021-03-30-10-10-04.652610
54	20	2	2	55	volatile	2	40	35	vs	blue	red	blue	red	left	right	0.30000000000000004	0.7	6	4	1.8000000000000005	2.8	1	0	0.30000000000000004	0.7	6	4	1.8000000000000005	2.8	invalid	0.4832320929999696	53248.0	0	1.0	2.0	53248	1	53248	1	51200	0	0.7	53248	red	blue	0	0	ml	2.7.3	bip	sub-20_ses-02_task-ml_proj-bip_2021-03-30-10-10-04.652610
55	20	2	2	56	volatile	2	40	36	vs	red	blue	blue	red	right	left	0.30000000000000004	0.7	6	6	1.8000000000000005	4.199999999999998	0	1	0.7	0.30000000000000004	6	6	4.199999999999998	1.8000000000000005	valid	0.4665533850002248	51200.0	0	0.0	2.0	51200	1	51200	1	53248	0	0.7	51200	red	blue	1	6	ml	2.7.3	bip	sub-20_ses-02_task-ml_proj-bip_2021-03-30-10-10-04.652610
56	20	2	2	57	volatile	2	40	37	vs	red	blue	blue	red	right	left	0.30000000000000004	0.7	4	6	1.2000000000000002	4.199999999999998	0	1	0.7	0.30000000000000004	6	4	4.199999999999998	1.2000000000000002	valid	0.4832145410000521	51200.0	0	0.0	2.0	51200	1	51200	1	51200	1	0.7	51200	red	blue	1	6	ml	2.7.3	bip	sub-20_ses-02_task-ml_proj-bip_2021-03-30-10-10-04.652610
57	20	2	2	58	volatile	2	40	38	vs	red	blue	blue	red	right	left	0.30000000000000004	0.7	2	4	0.6000000000000001	2.8	0	1	0.7	0.30000000000000004	4	2	2.8	0.6000000000000001	valid	0.7331395169985626	51200.0	0	0.0	2.0	51200	1	51200	1	51200	1	0.7	51200	red	blue	1	4	ml	2.7.3	bip	sub-20_ses-02_task-ml_proj-bip_2021-03-30-10-10-04.652610
58	20	2	2	59	volatile	2	40	39	vs	red	blue	blue	red	right	left	0.30000000000000004	0.7	6	2	1.8000000000000005	1.4	1	0	0.7	0.30000000000000004	2	6	1.4	1.8000000000000005	invalid	0.4665542019993154	51200.0	0	0.0	2.0	53248	0	51200	1	53248	0	0.7	51200	red	blue	0	0	ml	2.7.3	bip	sub-20_ses-02_task-ml_proj-bip_2021-03-30-10-10-04.652610
59	20	2	2	60	volatile	2	40	40	vs	blue	red	blue	red	left	right	0.30000000000000004	0.7	6	4	1.8000000000000005	2.8	0	1	0.30000000000000004	0.7	6	4	1.8000000000000005	2.8	valid	0.3832572639985301	53248.0	0	1.0	2.0	53248	1	53248	1	51200	0	0.7	53248	red	blue	0	4	ml	2.7.3	bip	sub-20_ses-02_task-ml_proj-bip_2021-03-30-10-10-04.652610
60	20	2	2	61	volatile	3	20	1	vs	blue	red	blue	red	left	right	0.7	0.30000000000000004	2	2	1.4	0.6000000000000001	1	0	0.7	0.30000000000000004	2	2	1.4	0.6000000000000001	valid	0.43324247599957744	53248.0	0	1.0	2.0	51200	0	51200	0	53248	1	0.7	51200	blue	red	1	0	ml	2.7.3	bip	sub-20_ses-02_task-ml_proj-bip_2021-03-30-10-10-04.652610
61	20	2	2	62	volatile	3	20	2	vs	red	blue	blue	red	right	left	0.7	0.30000000000000004	2	10	1.4	3.0000000000000004	1	0	0.30000000000000004	0.7	10	2	3.0000000000000004	1.4	valid	0.6831554140007938	51200.0	0	0.0	2.0	51200	1	53248	0	51200	1	0.7	53248	blue	red	0	0	ml	2.7.3	bip	sub-20_ses-02_task-ml_proj-bip_2021-03-30-10-10-04.652610
62	20	2	2	63	volatile	3	20	3	vs	red	blue	blue	red	right	left	0.7	0.30000000000000004	2	10	1.4	3.0000000000000004	1	0	0.30000000000000004	0.7	10	2	3.0000000000000004	1.4	valid	0.3666022150009667	53248.0	0	1.0	1.0	51200	0	53248	1	51200	0	0.7	53248	blue	red	0	2	ml	2.7.3	bip	sub-20_ses-02_task-ml_proj-bip_2021-03-30-10-10-04.652610
63	20	2	2	64	volatile	3	20	4	vs	red	blue	blue	red	right	left	0.7	0.30000000000000004	6	2	4.199999999999998	0.6000000000000001	1	0	0.30000000000000004	0.7	2	6	0.6000000000000001	4.199999999999998	valid	0.4665647270012414	53248.0	0	1.0	1.0	53248	1	53248	1	53248	1	0.7	53248	blue	red	1	6	ml	2.7.3	bip	sub-20_ses-02_task-ml_proj-bip_2021-03-30-10-10-04.652610
64	20	2	2	65	volatile	3	20	5	vs	blue	red	blue	red	left	right	0.7	0.30000000000000004	2	2	1.4	0.6000000000000001	1	0	0.7	0.30000000000000004	2	2	1.4	0.6000000000000001	valid	0.3999010610004916	51200.0	0	0.0	1.0	51200	1	51200	1	53248	0	0.7	51200	blue	red	1	2	ml	2.7.3	bip	sub-20_ses-02_task-ml_proj-bip_2021-03-30-10-10-04.652610
65	20	2	2	66	volatile	3	20	6	vs	red	blue	blue	red	right	left	0.7	0.30000000000000004	6	6	4.199999999999998	1.8000000000000005	1	0	0.30000000000000004	0.7	6	6	1.8000000000000005	4.199999999999998	valid	0.3332686700014165	53248.0	0	1.0	1.0	53248	1	53248	1	53248	1	0.7	53248	blue	red	0	6	ml	2.7.3	bip	sub-20_ses-02_task-ml_proj-bip_2021-03-30-10-10-04.652610
66	20	2	2	67	volatile	3	20	7	vs	blue	red	blue	red	left	right	0.7	0.30000000000000004	4	2	2.8	0.6000000000000001	1	0	0.7	0.30000000000000004	4	2	2.8	0.6000000000000001	valid	0.39992156800144585	51200.0	0	0.0	1.0	51200	1	51200	1	51200	1	0.7	51200	blue	red	1	4	ml	2.7.3	bip	sub-20_ses-02_task-ml_proj-bip_2021-03-30-10-10-04.652610
67	20	2	2	68	volatile	3	20	8	vs	red	blue	blue	red	right	left	0.7	0.30000000000000004	6	2	4.199999999999998	0.6000000000000001	1	0	0.30000000000000004	0.7	2	6	0.6000000000000001	4.199999999999998	valid	0.3499350290003349	53248.0	0	1.0	1.0	53248	1	53248	1	53248	1	0.7	53248	blue	red	1	6	ml	2.7.3	bip	sub-20_ses-02_task-ml_proj-bip_2021-03-30-10-10-04.652610
68	20	2	2	69	volatile	3	20	9	vs	red	blue	blue	red	right	left	0.7	0.30000000000000004	2	6	1.4	1.8000000000000005	1	0	0.30000000000000004	0.7	6	2	1.8000000000000005	1.4	valid	0.5831947639999271	53248.0	0	1.0	1.0	51200	0	53248	1	51200	0	0.7	53248	blue	red	0	2	ml	2.7.3	bip	sub-20_ses-02_task-ml_proj-bip_2021-03-30-10-10-04.652610
69	20	2	2	70	volatile	3	20	10	vs	red	blue	blue	red	right	left	0.7	0.30000000000000004	4	6	2.8	1.8000000000000005	0	1	0.30000000000000004	0.7	6	4	1.8000000000000005	2.8	invalid	0.4332419870006561	53248.0	0	1.0	1.0	53248	1	53248	1	51200	0	0.7	53248	blue	red	0	0	ml	2.7.3	bip	sub-20_ses-02_task-ml_proj-bip_2021-03-30-10-10-04.652610
70	20	2	2	71	volatile	3	20	11	vs	blue	red	blue	red	left	right	0.7	0.30000000000000004	6	2	4.199999999999998	0.6000000000000001	1	0	0.7	0.30000000000000004	6	2	4.199999999999998	0.6000000000000001	valid	0.5665223160012829	51200.0	0	0.0	1.0	51200	1	51200	1	51200	1	0.7	51200	blue	red	1	6	ml	2.7.3	bip	sub-20_ses-02_task-ml_proj-bip_2021-03-30-10-10-04.652610
71	20	2	2	72	volatile	3	20	12	vs	blue	red	blue	red	left	right	0.7	0.30000000000000004	6	4	4.199999999999998	1.2000000000000002	0	1	0.7	0.30000000000000004	6	4	4.199999999999998	1.2000000000000002	invalid	0.499876107000091	51200.0	0	0.0	1.0	51200	1	51200	1	51200	1	0.7	51200	blue	red	1	0	ml	2.7.3	bip	sub-20_ses-02_task-ml_proj-bip_2021-03-30-10-10-04.652610
72	20	2	2	73	volatile	3	20	13	vs	red	blue	blue	red	right	left	0.7	0.30000000000000004	6	6	4.199999999999998	1.8000000000000005	0	1	0.30000000000000004	0.7	6	6	1.8000000000000005	4.199999999999998	invalid	0.4665648900008818	53248.0	0	1.0	1.0	53248	1	53248	1	53248	1	0.7	53248	blue	red	0	0	ml	2.7.3	bip	sub-20_ses-02_task-ml_proj-bip_2021-03-30-10-10-04.652610
73	20	2	2	74	volatile	3	20	14	vs	blue	red	blue	red	left	right	0.7	0.30000000000000004	4	6	2.8	1.8000000000000005	0	1	0.7	0.30000000000000004	4	6	2.8	1.8000000000000005	invalid	0.499886465999225	53248.0	0	1.0	2.0	51200	0	51200	0	53248	1	0.7	51200	blue	red	0	6	ml	2.7.3	bip	sub-20_ses-02_task-ml_proj-bip_2021-03-30-10-10-04.652610
74	20	2	2	75	volatile	3	20	15	vs	blue	red	blue	red	left	right	0.7	0.30000000000000004	2	4	1.4	1.2000000000000002	1	0	0.7	0.30000000000000004	2	4	1.4	1.2000000000000002	valid	0.4332420080008888	53248.0	0	1.0	2.0	51200	0	51200	0	53248	1	0.7	51200	blue	red	0	0	ml	2.7.3	bip	sub-20_ses-02_task-ml_proj-bip_2021-03-30-10-10-04.652610
75	20	2	2	76	volatile	3	20	16	vs	blue	red	blue	red	left	right	0.7	0.30000000000000004	2	10	1.4	3.0000000000000004	1	0	0.7	0.30000000000000004	2	10	1.4	3.0000000000000004	valid	0.4832332730002236	53248.0	0	1.0	2.0	53248	1	51200	0	53248	1	0.7	51200	blue	red	0	0	ml	2.7.3	bip	sub-20_ses-02_task-ml_proj-bip_2021-03-30-10-10-04.652610
76	20	2	2	77	volatile	3	20	17	vs	blue	red	blue	red	left	right	0.7	0.30000000000000004	4	6	2.8	1.8000000000000005	1	0	0.7	0.30000000000000004	4	6	2.8	1.8000000000000005	valid	0.3499331410002924	53248.0	0	1.0	2.0	51200	0	51200	0	53248	1	0.7	51200	blue	red	0	0	ml	2.7.3	bip	sub-20_ses-02_task-ml_proj-bip_2021-03-30-10-10-04.652610
77	20	2	2	78	volatile	3	20	18	vs	red	blue	blue	red	right	left	0.7	0.30000000000000004	4	2	2.8	0.6000000000000001	0	1	0.30000000000000004	0.7	2	4	0.6000000000000001	2.8	invalid	0.4332379059997038	53248.0	0	1.0	1.0	53248	1	53248	1	53248	1	0.7	53248	blue	red	1	0	ml	2.7.3	bip	sub-20_ses-02_task-ml_proj-bip_2021-03-30-10-10-04.652610
78	20	2	2	79	volatile	3	20	19	vs	red	blue	blue	red	right	left	0.7	0.30000000000000004	2	4	1.4	1.2000000000000002	1	0	0.30000000000000004	0.7	4	2	1.2000000000000002	1.4	valid	0.4165772350006591	53248.0	0	1.0	1.0	53248	1	53248	1	51200	0	0.7	53248	blue	red	0	2	ml	2.7.3	bip	sub-20_ses-02_task-ml_proj-bip_2021-03-30-10-10-04.652610
79	20	2	2	80	volatile	3	20	20	vs	blue	red	blue	red	left	right	0.7	0.30000000000000004	2	10	1.4	3.0000000000000004	0	1	0.7	0.30000000000000004	2	10	1.4	3.0000000000000004	invalid	0.7997879039994586	51200.0	0	0.0	1.0	53248	0	51200	1	53248	0	0.7	51200	blue	red	0	0	ml	2.7.3	bip	sub-20_ses-02_task-ml_proj-bip_2021-03-30-10-10-04.652610
80	20	2	2	81	volatile	4	20	1	vs	blue	red	blue	red	left	right	0.30000000000000004	0.7	2	6	0.6000000000000001	4.199999999999998	0	1	0.30000000000000004	0.7	2	6	0.6000000000000001	4.199999999999998	valid	0.4498783279996133	51200.0	0	0.0	1.0	53248	0	53248	0	53248	0	0.7	53248	red	blue	1	0	ml	2.7.3	bip	sub-20_ses-02_task-ml_proj-bip_2021-03-30-10-10-04.652610
81	20	2	2	82	volatile	4	20	2	vs	red	blue	blue	red	right	left	0.30000000000000004	0.7	4	6	1.2000000000000002	4.199999999999998	0	1	0.7	0.30000000000000004	6	4	4.199999999999998	1.2000000000000002	valid	0.4832148719997349	51200.0	0	0.0	2.0	51200	1	51200	1	51200	1	0.7	51200	red	blue	1	6	ml	2.7.3	bip	sub-20_ses-02_task-ml_proj-bip_2021-03-30-10-10-04.652610
82	20	2	2	83	volatile	4	20	3	vs	red	blue	blue	red	right	left	0.30000000000000004	0.7	2	2	0.6000000000000001	1.4	0	1	0.7	0.30000000000000004	2	2	1.4	0.6000000000000001	valid	0.8331043609996414	51200.0	0	0.0	2.0	51200	1	51200	1	53248	0	0.7	51200	red	blue	1	2	ml	2.7.3	bip	sub-20_ses-02_task-ml_proj-bip_2021-03-30-10-10-04.652610
83	20	2	2	84	volatile	4	20	4	vs	blue	red	blue	red	left	right	0.30000000000000004	0.7	2	6	0.6000000000000001	4.199999999999998	0	1	0.30000000000000004	0.7	2	6	0.6000000000000001	4.199999999999998	valid	0.3832542510008352	53248.0	0	1.0	2.0	53248	1	53248	1	53248	1	0.7	53248	red	blue	1	6	ml	2.7.3	bip	sub-20_ses-02_task-ml_proj-bip_2021-03-30-10-10-04.652610
84	20	2	2	85	volatile	4	20	5	vs	red	blue	blue	red	right	left	0.30000000000000004	0.7	10	2	3.0000000000000004	1.4	0	1	0.7	0.30000000000000004	2	10	1.4	3.0000000000000004	valid	0.4998777720011276	51200.0	0	0.0	2.0	53248	0	51200	1	53248	0	0.7	51200	red	blue	0	2	ml	2.7.3	bip	sub-20_ses-02_task-ml_proj-bip_2021-03-30-10-10-04.652610
85	20	2	2	86	volatile	4	20	6	vs	blue	red	blue	red	left	right	0.30000000000000004	0.7	10	2	3.0000000000000004	1.4	0	1	0.30000000000000004	0.7	10	2	3.0000000000000004	1.4	valid	0.6498349080011394	53248.0	0	1.0	2.0	51200	0	53248	1	51200	0	0.7	53248	red	blue	0	2	ml	2.7.3	bip	sub-20_ses-02_task-ml_proj-bip_2021-03-30-10-10-04.652610
86	20	2	2	87	volatile	4	20	7	vs	blue	red	blue	red	left	right	0.30000000000000004	0.7	6	6	1.8000000000000005	4.199999999999998	1	0	0.30000000000000004	0.7	6	6	1.8000000000000005	4.199999999999998	invalid	0.6831511239997781	53248.0	0	1.0	2.0	53248	1	53248	1	53248	1	0.7	53248	red	blue	0	0	ml	2.7.3	bip	sub-20_ses-02_task-ml_proj-bip_2021-03-30-10-10-04.652610
87	20	2	2	88	volatile	4	20	8	vs	blue	red	blue	red	left	right	0.30000000000000004	0.7	6	2	1.8000000000000005	1.4	0	1	0.30000000000000004	0.7	6	2	1.8000000000000005	1.4	valid	0.4498950489996787	53248.0	0	1.0	2.0	51200	0	53248	1	51200	0	0.7	53248	red	blue	0	2	ml	2.7.3	bip	sub-20_ses-02_task-ml_proj-bip_2021-03-30-10-10-04.652610
88	20	2	2	89	volatile	4	20	9	vs	blue	red	blue	red	left	right	0.30000000000000004	0.7	4	6	1.2000000000000002	4.199999999999998	1	0	0.30000000000000004	0.7	4	6	1.2000000000000002	4.199999999999998	invalid	0.4999111159995664	53248.0	0	1.0	2.0	53248	1	53248	1	53248	1	0.7	53248	red	blue	1	0	ml	2.7.3	bip	sub-20_ses-02_task-ml_proj-bip_2021-03-30-10-10-04.652610
89	20	2	2	90	volatile	4	20	10	vs	blue	red	blue	red	left	right	0.30000000000000004	0.7	4	2	1.2000000000000002	1.4	1	0	0.30000000000000004	0.7	4	2	1.2000000000000002	1.4	invalid	0.41656728800080606	51200.0	0	0.0	1.0	53248	0	53248	0	51200	1	0.7	53248	red	blue	0	4	ml	2.7.3	bip	sub-20_ses-02_task-ml_proj-bip_2021-03-30-10-10-04.652610
90	20	2	2	91	volatile	4	20	11	vs	red	blue	blue	red	right	left	0.30000000000000004	0.7	4	6	1.2000000000000002	4.199999999999998	0	1	0.7	0.30000000000000004	6	4	4.199999999999998	1.2000000000000002	valid	0.416579102000469	53248.0	0	1.0	1.0	51200	0	51200	0	51200	0	0.7	51200	red	blue	1	0	ml	2.7.3	bip	sub-20_ses-02_task-ml_proj-bip_2021-03-30-10-10-04.652610
91	20	2	2	92	volatile	4	20	12	vs	red	blue	blue	red	right	left	0.30000000000000004	0.7	4	2	1.2000000000000002	1.4	0	1	0.7	0.30000000000000004	2	4	1.4	1.2000000000000002	valid	0.3999103270016349	51200.0	0	0.0	2.0	51200	1	51200	1	53248	0	0.7	51200	red	blue	0	2	ml	2.7.3	bip	sub-20_ses-02_task-ml_proj-bip_2021-03-30-10-10-04.652610
92	20	2	2	93	volatile	4	20	13	vs	red	blue	blue	red	right	left	0.30000000000000004	0.7	2	10	0.6000000000000001	7.0	1	0	0.7	0.30000000000000004	10	2	7.0	0.6000000000000001	invalid	0.5165432520007016	51200.0	0	0.0	2.0	51200	1	51200	1	51200	1	0.7	51200	red	blue	1	0	ml	2.7.3	bip	sub-20_ses-02_task-ml_proj-bip_2021-03-30-10-10-04.652610
93	20	2	2	94	volatile	4	20	14	vs	red	blue	blue	red	right	left	0.30000000000000004	0.7	2	2	0.6000000000000001	1.4	1	0	0.7	0.30000000000000004	2	2	1.4	0.6000000000000001	invalid	0.5332179039996845	53248.0	0	1.0	1.0	51200	0	51200	0	53248	1	0.7	51200	red	blue	1	2	ml	2.7.3	bip	sub-20_ses-02_task-ml_proj-bip_2021-03-30-10-10-04.652610
94	20	2	2	95	volatile	4	20	15	vs	red	blue	blue	red	right	left	0.30000000000000004	0.7	6	6	1.8000000000000005	4.199999999999998	1	0	0.7	0.30000000000000004	6	6	4.199999999999998	1.8000000000000005	invalid	0.3832566629989742	53248.0	0	1.0	1.0	51200	0	51200	0	53248	1	0.7	51200	red	blue	1	6	ml	2.7.3	bip	sub-20_ses-02_task-ml_proj-bip_2021-03-30-10-10-04.652610
95	20	2	2	96	volatile	4	20	16	vs	blue	red	blue	red	left	right	0.30000000000000004	0.7	4	2	1.2000000000000002	1.4	0	1	0.30000000000000004	0.7	4	2	1.2000000000000002	1.4	valid	0.4498906509998051	51200.0	0	0.0	1.0	53248	0	53248	0	51200	1	0.7	53248	red	blue	0	0	ml	2.7.3	bip	sub-20_ses-02_task-ml_proj-bip_2021-03-30-10-10-04.652610
96	20	2	2	97	volatile	4	20	17	vs	red	blue	blue	red	right	left	0.30000000000000004	0.7	2	6	0.6000000000000001	4.199999999999998	0	1	0.7	0.30000000000000004	6	2	4.199999999999998	0.6000000000000001	valid	0.4665639760005433	53248.0	0	1.0	1.0	51200	0	51200	0	51200	0	0.7	51200	red	blue	1	0	ml	2.7.3	bip	sub-20_ses-02_task-ml_proj-bip_2021-03-30-10-10-04.652610
97	20	2	2	98	volatile	4	20	18	vs	blue	red	blue	red	left	right	0.30000000000000004	0.7	2	10	0.6000000000000001	7.0	0	1	0.30000000000000004	0.7	2	10	0.6000000000000001	7.0	valid	0.4332494079990283	53248.0	0	1.0	2.0	53248	1	53248	1	53248	1	0.7	53248	red	blue	1	10	ml	2.7.3	bip	sub-20_ses-02_task-ml_proj-bip_2021-03-30-10-10-04.652610
98	20	2	2	99	volatile	4	20	19	vs	blue	red	blue	red	left	right	0.30000000000000004	0.7	2	4	0.6000000000000001	2.8	0	1	0.30000000000000004	0.7	2	4	0.6000000000000001	2.8	valid	0.5498712330008857	53248.0	0	1.0	2.0	53248	1	53248	1	53248	1	0.7	53248	red	blue	1	4	ml	2.7.3	bip	sub-20_ses-02_task-ml_proj-bip_2021-03-30-10-10-04.652610
99	20	2	2	100	volatile	4	20	20	vs	red	blue	blue	red	right	left	0.30000000000000004	0.7	6	4	1.8000000000000005	2.8	0	1	0.7	0.30000000000000004	4	6	2.8	1.8000000000000005	valid	0.4832141249989945	51200.0	0	0.0	2.0	51200	1	51200	1	53248	0	0.7	51200	red	blue	0	4	ml	2.7.3	bip	sub-20_ses-02_task-ml_proj-bip_2021-03-30-10-10-04.652610
100	20	2	3	101	volatile	5	40	1	vs	blue	red	blue	red	left	right	0.7	0.30000000000000004	4	6	2.8	1.8000000000000005	1	0	0.7	0.30000000000000004	4	6	2.8	1.8000000000000005	valid	0.4832243470009416	53248.0	0	1.0	2.0	51200	0	51200	0	53248	1	0.7	51200	blue	red	0	0	ml	2.7.3	bip	sub-20_ses-02_task-ml_proj-bip_2021-03-30-10-10-04.652610
101	20	2	3	102	volatile	5	40	2	vs	red	blue	blue	red	right	left	0.7	0.30000000000000004	10	2	7.0	0.6000000000000001	1	0	0.30000000000000004	0.7	2	10	0.6000000000000001	7.0	valid	0.4665816430006089	53248.0	0	1.0	1.0	53248	1	53248	1	53248	1	0.7	53248	blue	red	1	10	ml	2.7.3	bip	sub-20_ses-02_task-ml_proj-bip_2021-03-30-10-10-04.652610
102	20	2	3	103	volatile	5	40	3	vs	blue	red	blue	red	left	right	0.7	0.30000000000000004	2	2	1.4	0.6000000000000001	1	0	0.7	0.30000000000000004	2	2	1.4	0.6000000000000001	valid	0.5165373109994107	51200.0	0	0.0	1.0	51200	1	51200	1	53248	0	0.7	51200	blue	red	1	2	ml	2.7.3	bip	sub-20_ses-02_task-ml_proj-bip_2021-03-30-10-10-04.652610
103	20	2	3	104	volatile	5	40	4	vs	blue	red	blue	red	left	right	0.7	0.30000000000000004	2	4	1.4	1.2000000000000002	1	0	0.7	0.30000000000000004	2	4	1.4	1.2000000000000002	valid	0.4998737759997312	51200.0	0	0.0	1.0	51200	1	51200	1	53248	0	0.7	51200	blue	red	0	2	ml	2.7.3	bip	sub-20_ses-02_task-ml_proj-bip_2021-03-30-10-10-04.652610
104	20	2	3	105	volatile	5	40	5	vs	red	blue	blue	red	right	left	0.7	0.30000000000000004	6	4	4.199999999999998	1.2000000000000002	1	0	0.30000000000000004	0.7	4	6	1.2000000000000002	4.199999999999998	valid	0.3999173390002397	53248.0	0	1.0	1.0	53248	1	53248	1	53248	1	0.7	53248	blue	red	1	6	ml	2.7.3	bip	sub-20_ses-02_task-ml_proj-bip_2021-03-30-10-10-04.652610
105	20	2	3	106	volatile	5	40	6	vs	blue	red	blue	red	left	right	0.7	0.30000000000000004	10	2	7.0	0.6000000000000001	1	0	0.7	0.30000000000000004	10	2	7.0	0.6000000000000001	valid	0.5665235659998871	51200.0	0	0.0	1.0	51200	1	51200	1	51200	1	0.7	51200	blue	red	1	10	ml	2.7.3	bip	sub-20_ses-02_task-ml_proj-bip_2021-03-30-10-10-04.652610
106	20	2	3	107	volatile	5	40	7	vs	red	blue	blue	red	right	left	0.7	0.30000000000000004	2	10	1.4	3.0000000000000004	1	0	0.30000000000000004	0.7	10	2	3.0000000000000004	1.4	valid	0.6165206079986092	53248.0	0	1.0	1.0	51200	0	53248	1	51200	0	0.7	53248	blue	red	0	2	ml	2.7.3	bip	sub-20_ses-02_task-ml_proj-bip_2021-03-30-10-10-04.652610
107	20	2	3	108	volatile	5	40	8	vs	red	blue	blue	red	right	left	0.7	0.30000000000000004	4	6	2.8	1.8000000000000005	0	1	0.30000000000000004	0.7	6	4	1.8000000000000005	2.8	invalid	0.499888173000727	53248.0	0	1.0	1.0	53248	1	53248	1	51200	0	0.7	53248	blue	red	0	0	ml	2.7.3	bip	sub-20_ses-02_task-ml_proj-bip_2021-03-30-10-10-04.652610
108	20	2	3	109	volatile	5	40	9	vs	blue	red	blue	red	left	right	0.7	0.30000000000000004	2	6	1.4	1.8000000000000005	1	0	0.7	0.30000000000000004	2	6	1.4	1.8000000000000005	valid	0.4832235419999051	53248.0	0	1.0	2.0	53248	1	51200	0	53248	1	0.7	51200	blue	red	0	0	ml	2.7.3	bip	sub-20_ses-02_task-ml_proj-bip_2021-03-30-10-10-04.652610
109	20	2	3	110	volatile	5	40	10	vs	red	blue	blue	red	right	left	0.7	0.30000000000000004	6	6	4.199999999999998	1.8000000000000005	1	0	0.30000000000000004	0.7	6	6	1.8000000000000005	4.199999999999998	valid	0.4332392059986887	53248.0	0	1.0	1.0	53248	1	53248	1	53248	1	0.7	53248	blue	red	0	6	ml	2.7.3	bip	sub-20_ses-02_task-ml_proj-bip_2021-03-30-10-10-04.652610
110	20	2	3	111	volatile	5	40	11	vs	red	blue	blue	red	right	left	0.7	0.30000000000000004	10	2	7.0	0.6000000000000001	1	0	0.30000000000000004	0.7	2	10	0.6000000000000001	7.0	valid	0.6498308729987912	51200.0	0	0.0	2.0	53248	0	53248	0	53248	0	0.7	53248	blue	red	1	0	ml	2.7.3	bip	sub-20_ses-02_task-ml_proj-bip_2021-03-30-10-10-04.652610
111	20	2	3	112	volatile	5	40	12	vs	red	blue	blue	red	right	left	0.7	0.30000000000000004	6	4	4.199999999999998	1.2000000000000002	0	1	0.30000000000000004	0.7	4	6	1.2000000000000002	4.199999999999998	invalid	0.34993762399972184	53248.0	0	1.0	1.0	53248	1	53248	1	53248	1	0.7	53248	blue	red	1	0	ml	2.7.3	bip	sub-20_ses-02_task-ml_proj-bip_2021-03-30-10-10-04.652610
112	20	2	3	113	volatile	5	40	13	vs	red	blue	blue	red	right	left	0.7	0.30000000000000004	2	4	1.4	1.2000000000000002	1	0	0.30000000000000004	0.7	4	2	1.2000000000000002	1.4	valid	0.4165738920000877	53248.0	0	1.0	1.0	53248	1	53248	1	51200	0	0.7	53248	blue	red	0	2	ml	2.7.3	bip	sub-20_ses-02_task-ml_proj-bip_2021-03-30-10-10-04.652610
113	20	2	3	114	volatile	5	40	14	vs	red	blue	blue	red	right	left	0.7	0.30000000000000004	4	6	2.8	1.8000000000000005	1	0	0.30000000000000004	0.7	6	4	1.8000000000000005	2.8	valid	0.4665693579991057	53248.0	0	1.0	1.0	53248	1	53248	1	51200	0	0.7	53248	blue	red	0	4	ml	2.7.3	bip	sub-20_ses-02_task-ml_proj-bip_2021-03-30-10-10-04.652610
114	20	2	3	115	volatile	5	40	15	vs	red	blue	blue	red	right	left	0.7	0.30000000000000004	6	6	4.199999999999998	1.8000000000000005	1	0	0.30000000000000004	0.7	6	6	1.8000000000000005	4.199999999999998	valid	0.466562771000099	53248.0	0	1.0	1.0	53248	1	53248	1	53248	1	0.7	53248	blue	red	0	6	ml	2.7.3	bip	sub-20_ses-02_task-ml_proj-bip_2021-03-30-10-10-04.652610
115	20	2	3	116	volatile	5	40	16	vs	blue	red	blue	red	left	right	0.7	0.30000000000000004	2	2	1.4	0.6000000000000001	0	1	0.7	0.30000000000000004	2	2	1.4	0.6000000000000001	invalid	0.7164786459998141	51200.0	0	0.0	1.0	51200	1	51200	1	53248	0	0.7	51200	blue	red	1	0	ml	2.7.3	bip	sub-20_ses-02_task-ml_proj-bip_2021-03-30-10-10-04.652610
116	20	2	3	117	volatile	5	40	17	vs	blue	red	blue	red	left	right	0.7	0.30000000000000004	4	2	2.8	0.6000000000000001	1	0	0.7	0.30000000000000004	4	2	2.8	0.6000000000000001	valid	0.4998759019999852	51200.0	0	0.0	1.0	51200	1	51200	1	51200	1	0.7	51200	blue	red	1	4	ml	2.7.3	bip	sub-20_ses-02_task-ml_proj-bip_2021-03-30-10-10-04.652610
117	20	2	3	118	volatile	5	40	18	vs	blue	red	blue	red	left	right	0.7	0.30000000000000004	4	2	2.8	0.6000000000000001	0	1	0.7	0.30000000000000004	4	2	2.8	0.6000000000000001	invalid	0.4998763059993507	51200.0	0	0.0	1.0	51200	1	51200	1	51200	1	0.7	51200	blue	red	1	0	ml	2.7.3	bip	sub-20_ses-02_task-ml_proj-bip_2021-03-30-10-10-04.652610
118	20	2	3	119	volatile	5	40	19	vs	blue	red	blue	red	left	right	0.7	0.30000000000000004	2	10	1.4	3.0000000000000004	1	0	0.7	0.30000000000000004	2	10	1.4	3.0000000000000004	valid	0.7664743749992341	53248.0	0	1.0	2.0	53248	1	51200	0	53248	1	0.7	51200	blue	red	0	0	ml	2.7.3	bip	sub-20_ses-02_task-ml_proj-bip_2021-03-30-10-10-04.652610
119	20	2	3	120	volatile	5	40	20	vs	blue	red	blue	red	left	right	0.7	0.30000000000000004	6	6	4.199999999999998	1.8000000000000005	1	0	0.7	0.30000000000000004	6	6	4.199999999999998	1.8000000000000005	valid	0.4998766040007467	51200.0	0	0.0	1.0	51200	1	51200	1	53248	0	0.7	51200	blue	red	1	6	ml	2.7.3	bip	sub-20_ses-02_task-ml_proj-bip_2021-03-30-10-10-04.652610
120	20	2	3	121	volatile	5	40	21	vs	red	blue	blue	red	right	left	0.7	0.30000000000000004	6	2	4.199999999999998	0.6000000000000001	0	1	0.30000000000000004	0.7	2	6	0.6000000000000001	4.199999999999998	invalid	0.6498517199997877	53248.0	0	1.0	1.0	53248	1	53248	1	53248	1	0.7	53248	blue	red	1	0	ml	2.7.3	bip	sub-20_ses-02_task-ml_proj-bip_2021-03-30-10-10-04.652610
121	20	2	3	122	volatile	5	40	22	vs	red	blue	blue	red	right	left	0.7	0.30000000000000004	2	6	1.4	1.8000000000000005	1	0	0.30000000000000004	0.7	6	2	1.8000000000000005	1.4	valid	0.4832263409989537	53248.0	0	1.0	1.0	51200	0	53248	1	51200	0	0.7	53248	blue	red	0	2	ml	2.7.3	bip	sub-20_ses-02_task-ml_proj-bip_2021-03-30-10-10-04.652610
122	20	2	3	123	volatile	5	40	23	vs	blue	red	blue	red	left	right	0.7	0.30000000000000004	6	4	4.199999999999998	1.2000000000000002	1	0	0.7	0.30000000000000004	6	4	4.199999999999998	1.2000000000000002	valid	0.3832458460001362	51200.0	0	0.0	1.0	51200	1	51200	1	51200	1	0.7	51200	blue	red	1	6	ml	2.7.3	bip	sub-20_ses-02_task-ml_proj-bip_2021-03-30-10-10-04.652610
123	20	2	3	124	volatile	5	40	24	vs	red	blue	blue	red	right	left	0.7	0.30000000000000004	2	6	1.4	1.8000000000000005	1	0	0.30000000000000004	0.7	6	2	1.8000000000000005	1.4	valid	0.3499438360013301	53248.0	0	1.0	1.0	51200	0	53248	1	51200	0	0.7	53248	blue	red	0	2	ml	2.7.3	bip	sub-20_ses-02_task-ml_proj-bip_2021-03-30-10-10-04.652610
124	20	2	3	125	volatile	5	40	25	vs	red	blue	blue	red	right	left	0.7	0.30000000000000004	2	2	1.4	0.6000000000000001	1	0	0.30000000000000004	0.7	2	2	0.6000000000000001	1.4	valid	0.5165490670005966	53248.0	0	1.0	1.0	53248	1	53248	1	53248	1	0.7	53248	blue	red	0	2	ml	2.7.3	bip	sub-20_ses-02_task-ml_proj-bip_2021-03-30-10-10-04.652610
125	20	2	3	126	volatile	5	40	26	vs	red	blue	blue	red	right	left	0.7	0.30000000000000004	4	2	2.8	0.6000000000000001	0	1	0.30000000000000004	0.7	2	4	0.6000000000000001	2.8	invalid	0.433249686999261	53248.0	0	1.0	1.0	53248	1	53248	1	53248	1	0.7	53248	blue	red	1	0	ml	2.7.3	bip	sub-20_ses-02_task-ml_proj-bip_2021-03-30-10-10-04.652610
126	20	2	3	127	volatile	5	40	27	vs	blue	red	blue	red	left	right	0.7	0.30000000000000004	2	4	1.4	1.2000000000000002	1	0	0.7	0.30000000000000004	2	4	1.4	1.2000000000000002	valid	0.3832568530015124	53248.0	0	1.0	2.0	51200	0	51200	0	53248	1	0.7	51200	blue	red	0	0	ml	2.7.3	bip	sub-20_ses-02_task-ml_proj-bip_2021-03-30-10-10-04.652610
127	20	2	3	128	volatile	5	40	28	vs	blue	red	blue	red	left	right	0.7	0.30000000000000004	2	10	1.4	3.0000000000000004	0	1	0.7	0.30000000000000004	2	10	1.4	3.0000000000000004	invalid	0.4332480569992185	53248.0	0	1.0	2.0	53248	1	51200	0	53248	1	0.7	51200	blue	red	0	10	ml	2.7.3	bip	sub-20_ses-02_task-ml_proj-bip_2021-03-30-10-10-04.652610
128	20	2	3	129	volatile	5	40	29	vs	blue	red	blue	red	left	right	0.7	0.30000000000000004	6	2	4.199999999999998	0.6000000000000001	0	1	0.7	0.30000000000000004	6	2	4.199999999999998	0.6000000000000001	invalid	0.6331789670002763	53248.0	0	1.0	2.0	51200	0	51200	0	51200	0	0.7	51200	blue	red	1	2	ml	2.7.3	bip	sub-20_ses-02_task-ml_proj-bip_2021-03-30-10-10-04.652610
129	20	2	3	130	volatile	5	40	30	vs	red	blue	blue	red	right	left	0.7	0.30000000000000004	6	6	4.199999999999998	1.8000000000000005	0	1	0.30000000000000004	0.7	6	6	1.8000000000000005	4.199999999999998	invalid	0.4998872889991617	53248.0	0	1.0	1.0	53248	1	53248	1	53248	1	0.7	53248	blue	red	0	0	ml	2.7.3	bip	sub-20_ses-02_task-ml_proj-bip_2021-03-30-10-10-04.652610
130	20	2	3	131	volatile	5	40	31	vs	blue	red	blue	red	left	right	0.7	0.30000000000000004	4	2	2.8	0.6000000000000001	0	1	0.7	0.30000000000000004	4	2	2.8	0.6000000000000001	invalid	0.6999263380002958	53248.0	0	1.0	2.0	51200	0	51200	0	51200	0	0.7	51200	blue	red	1	2	ml	2.7.3	bip	sub-20_ses-02_task-ml_proj-bip_2021-03-30-10-10-04.652610
131	20	2	3	132	volatile	5	40	32	vs	blue	red	blue	red	left	right	0.7	0.30000000000000004	6	4	4.199999999999998	1.2000000000000002	1	0	0.7	0.30000000000000004	6	4	4.199999999999998	1.2000000000000002	valid	0.41657829399991897	53248.0	0	1.0	2.0	51200	0	51200	0	51200	0	0.7	51200	blue	red	1	0	ml	2.7.3	bip	sub-20_ses-02_task-ml_proj-bip_2021-03-30-10-10-04.652610
132	20	2	3	133	volatile	5	40	33	vs	red	blue	blue	red	right	left	0.7	0.30000000000000004	2	10	1.4	3.0000000000000004	1	0	0.30000000000000004	0.7	10	2	3.0000000000000004	1.4	valid	0.8331162880003831	53248.0	0	1.0	1.0	51200	0	53248	1	51200	0	0.7	53248	blue	red	0	2	ml	2.7.3	bip	sub-20_ses-02_task-ml_proj-bip_2021-03-30-10-10-04.652610
133	20	2	3	134	volatile	5	40	34	vs	blue	red	blue	red	left	right	0.7	0.30000000000000004	4	6	2.8	1.8000000000000005	1	0	0.7	0.30000000000000004	4	6	2.8	1.8000000000000005	valid	0.3999149450010009	53248.0	0	1.0	2.0	51200	0	51200	0	53248	1	0.7	51200	blue	red	0	0	ml	2.7.3	bip	sub-20_ses-02_task-ml_proj-bip_2021-03-30-10-10-04.652610
134	20	2	3	135	volatile	5	40	35	vs	blue	red	blue	red	left	right	0.7	0.30000000000000004	10	2	7.0	0.6000000000000001	1	0	0.7	0.30000000000000004	10	2	7.0	0.6000000000000001	valid	0.4832148850000522	51200.0	0	0.0	1.0	51200	1	51200	1	51200	1	0.7	51200	blue	red	1	10	ml	2.7.3	bip	sub-20_ses-02_task-ml_proj-bip_2021-03-30-10-10-04.652610
135	20	2	3	136	volatile	5	40	36	vs	red	blue	blue	red	right	left	0.7	0.30000000000000004	4	2	2.8	0.6000000000000001	0	1	0.30000000000000004	0.7	2	4	0.6000000000000001	2.8	invalid	0.4665569150001829	53248.0	0	1.0	1.0	53248	1	53248	1	53248	1	0.7	53248	blue	red	1	0	ml	2.7.3	bip	sub-20_ses-02_task-ml_proj-bip_2021-03-30-10-10-04.652610
136	20	2	3	137	volatile	5	40	37	vs	red	blue	blue	red	right	left	0.7	0.30000000000000004	2	6	1.4	1.8000000000000005	1	0	0.30000000000000004	0.7	6	2	1.8000000000000005	1.4	valid	0.7997875860000931	51200.0	0	0.0	2.0	51200	1	53248	0	51200	1	0.7	53248	blue	red	0	0	ml	2.7.3	bip	sub-20_ses-02_task-ml_proj-bip_2021-03-30-10-10-04.652610
137	20	2	3	138	volatile	5	40	38	vs	blue	red	blue	red	left	right	0.7	0.30000000000000004	2	6	1.4	1.8000000000000005	0	1	0.7	0.30000000000000004	2	6	1.4	1.8000000000000005	invalid	0.4998863130003883	53248.0	0	1.0	2.0	53248	1	51200	0	53248	1	0.7	51200	blue	red	0	6	ml	2.7.3	bip	sub-20_ses-02_task-ml_proj-bip_2021-03-30-10-10-04.652610
138	20	2	3	139	volatile	5	40	39	vs	red	blue	blue	red	right	left	0.7	0.30000000000000004	6	2	4.199999999999998	0.6000000000000001	1	0	0.30000000000000004	0.7	2	6	0.6000000000000001	4.199999999999998	valid	0.6165174720008508	51200.0	0	0.0	2.0	53248	0	53248	0	53248	0	0.7	53248	blue	red	1	0	ml	2.7.3	bip	sub-20_ses-02_task-ml_proj-bip_2021-03-30-10-10-04.652610
139	20	2	3	140	volatile	5	40	40	vs	blue	red	blue	red	left	right	0.7	0.30000000000000004	2	2	1.4	0.6000000000000001	1	0	0.7	0.30000000000000004	2	2	1.4	0.6000000000000001	valid	0.4499022319996584	53248.0	0	1.0	2.0	51200	0	51200	0	53248	1	0.7	51200	blue	red	1	0	ml	2.7.3	bip	sub-20_ses-02_task-ml_proj-bip_2021-03-30-10-10-04.652610
140	20	2	3	141	volatile	6	20	1	vs	blue	red	blue	red	left	right	0.30000000000000004	0.7	4	6	1.2000000000000002	4.199999999999998	1	0	0.30000000000000004	0.7	4	6	1.2000000000000002	4.199999999999998	invalid	0.449892140000884	51200.0	0	0.0	1.0	53248	0	53248	0	53248	0	0.7	53248	red	blue	1	4	ml	2.7.3	bip	sub-20_ses-02_task-ml_proj-bip_2021-03-30-10-10-04.652610
141	20	2	3	142	volatile	6	20	2	vs	red	blue	blue	red	right	left	0.30000000000000004	0.7	10	2	3.0000000000000004	1.4	1	0	0.7	0.30000000000000004	2	10	1.4	3.0000000000000004	invalid	0.4332357260009303	53248.0	0	1.0	1.0	53248	1	51200	0	53248	1	0.7	51200	red	blue	0	10	ml	2.7.3	bip	sub-20_ses-02_task-ml_proj-bip_2021-03-30-10-10-04.652610
142	20	2	3	143	volatile	6	20	3	vs	red	blue	blue	red	right	left	0.30000000000000004	0.7	4	6	1.2000000000000002	4.199999999999998	0	1	0.7	0.30000000000000004	6	4	4.199999999999998	1.2000000000000002	valid	0.3999561110013019	53248.0	0	1.0	1.0	51200	0	51200	0	51200	0	0.7	51200	red	blue	1	0	ml	2.7.3	bip	sub-20_ses-02_task-ml_proj-bip_2021-03-30-10-10-04.652610
143	20	2	3	144	volatile	6	20	4	vs	red	blue	blue	red	right	left	0.30000000000000004	0.7	2	4	0.6000000000000001	2.8	0	1	0.7	0.30000000000000004	4	2	2.8	0.6000000000000001	valid	0.3999185689990554	53248.0	0	1.0	1.0	51200	0	51200	0	51200	0	0.7	51200	red	blue	1	0	ml	2.7.3	bip	sub-20_ses-02_task-ml_proj-bip_2021-03-30-10-10-04.652610
144	20	2	3	145	volatile	6	20	5	vs	blue	red	blue	red	left	right	0.30000000000000004	0.7	2	6	0.6000000000000001	4.199999999999998	1	0	0.30000000000000004	0.7	2	6	0.6000000000000001	4.199999999999998	invalid	0.4165797880013997	53248.0	0	1.0	2.0	53248	1	53248	1	53248	1	0.7	53248	red	blue	1	0	ml	2.7.3	bip	sub-20_ses-02_task-ml_proj-bip_2021-03-30-10-10-04.652610
145	20	2	3	146	volatile	6	20	6	vs	red	blue	blue	red	right	left	0.30000000000000004	0.7	2	6	0.6000000000000001	4.199999999999998	0	1	0.7	0.30000000000000004	6	2	4.199999999999998	0.6000000000000001	valid	0.44990876900010335	53248.0	0	1.0	1.0	51200	0	51200	0	51200	0	0.7	51200	red	blue	1	0	ml	2.7.3	bip	sub-20_ses-02_task-ml_proj-bip_2021-03-30-10-10-04.652610
146	20	2	3	147	volatile	6	20	7	vs	blue	red	blue	red	left	right	0.30000000000000004	0.7	6	6	1.8000000000000005	4.199999999999998	0	1	0.30000000000000004	0.7	6	6	1.8000000000000005	4.199999999999998	valid	0.33327595599985216	53248.0	0	1.0	2.0	53248	1	53248	1	53248	1	0.7	53248	red	blue	0	6	ml	2.7.3	bip	sub-20_ses-02_task-ml_proj-bip_2021-03-30-10-10-04.652610
147	20	2	3	148	volatile	6	20	8	vs	blue	red	blue	red	left	right	0.30000000000000004	0.7	10	2	3.0000000000000004	1.4	0	1	0.30000000000000004	0.7	10	2	3.0000000000000004	1.4	valid	0.5831942999993771	53248.0	0	1.0	2.0	51200	0	53248	1	51200	0	0.7	53248	red	blue	0	2	ml	2.7.3	bip	sub-20_ses-02_task-ml_proj-bip_2021-03-30-10-10-04.652610
148	20	2	3	149	volatile	6	20	9	vs	red	blue	blue	red	right	left	0.30000000000000004	0.7	2	2	0.6000000000000001	1.4	0	1	0.7	0.30000000000000004	2	2	1.4	0.6000000000000001	valid	0.4998766510016139	51200.0	0	0.0	2.0	51200	1	51200	1	53248	0	0.7	51200	red	blue	1	2	ml	2.7.3	bip	sub-20_ses-02_task-ml_proj-bip_2021-03-30-10-10-04.652610
149	20	2	3	150	volatile	6	20	10	vs	blue	red	blue	red	left	right	0.30000000000000004	0.7	2	10	0.6000000000000001	7.0	0	1	0.30000000000000004	0.7	2	10	0.6000000000000001	7.0	valid	0.4165790930001094	53248.0	0	1.0	2.0	53248	1	53248	1	53248	1	0.7	53248	red	blue	1	10	ml	2.7.3	bip	sub-20_ses-02_task-ml_proj-bip_2021-03-30-10-10-04.652610
150	20	2	4	151	volatile	6	20	11	vs	blue	red	blue	red	left	right	0.30000000000000004	0.7	2	4	0.6000000000000001	2.8	0	1	0.30000000000000004	0.7	2	4	0.6000000000000001	2.8	valid	0.5332105800007412	53248.0	0	1.0	2.0	53248	1	53248	1	53248	1	0.7	53248	red	blue	1	4	ml	2.7.3	bip	sub-20_ses-02_task-ml_proj-bip_2021-03-30-10-10-04.652610
151	20	2	4	152	volatile	6	20	12	vs	red	blue	blue	red	right	left	0.30000000000000004	0.7	6	2	1.8000000000000005	1.4	0	1	0.7	0.30000000000000004	2	6	1.4	1.8000000000000005	valid	0.3499297119997209	51200.0	0	0.0	2.0	53248	0	51200	1	53248	0	0.7	51200	red	blue	0	2	ml	2.7.3	bip	sub-20_ses-02_task-ml_proj-bip_2021-03-30-10-10-04.652610
152	20	2	4	153	volatile	6	20	13	vs	red	blue	blue	red	right	left	0.30000000000000004	0.7	6	6	1.8000000000000005	4.199999999999998	1	0	0.7	0.30000000000000004	6	6	4.199999999999998	1.8000000000000005	invalid	0.5831850669983396	51200.0	0	0.0	2.0	51200	1	51200	1	53248	0	0.7	51200	red	blue	1	0	ml	2.7.3	bip	sub-20_ses-02_task-ml_proj-bip_2021-03-30-10-10-04.652610
153	20	2	4	154	volatile	6	20	14	vs	blue	red	blue	red	left	right	0.30000000000000004	0.7	6	2	1.8000000000000005	1.4	0	1	0.30000000000000004	0.7	6	2	1.8000000000000005	1.4	valid	0.4665638550013682	53248.0	0	1.0	2.0	51200	0	53248	1	51200	0	0.7	53248	red	blue	0	2	ml	2.7.3	bip	sub-20_ses-02_task-ml_proj-bip_2021-03-30-10-10-04.652610
154	20	2	4	155	volatile	6	20	15	vs	red	blue	blue	red	right	left	0.30000000000000004	0.7	6	4	1.8000000000000005	2.8	0	1	0.7	0.30000000000000004	4	6	2.8	1.8000000000000005	valid	0.4665532569997594	51200.0	0	0.0	2.0	51200	1	51200	1	53248	0	0.7	51200	red	blue	0	4	ml	2.7.3	bip	sub-20_ses-02_task-ml_proj-bip_2021-03-30-10-10-04.652610
155	20	2	4	156	volatile	6	20	16	vs	blue	red	blue	red	left	right	0.30000000000000004	0.7	2	2	0.6000000000000001	1.4	1	0	0.30000000000000004	0.7	2	2	0.6000000000000001	1.4	invalid	0.4165768940001726	53248.0	0	1.0	2.0	53248	1	53248	1	53248	1	0.7	53248	red	blue	0	0	ml	2.7.3	bip	sub-20_ses-02_task-ml_proj-bip_2021-03-30-10-10-04.652610
156	20	2	4	157	volatile	6	20	17	vs	red	blue	blue	red	right	left	0.30000000000000004	0.7	4	6	1.2000000000000002	4.199999999999998	1	0	0.7	0.30000000000000004	6	4	4.199999999999998	1.2000000000000002	invalid	0.4665776279998681	51200.0	0	0.0	2.0	51200	1	51200	1	51200	1	0.7	51200	red	blue	1	0	ml	2.7.3	bip	sub-20_ses-02_task-ml_proj-bip_2021-03-30-10-10-04.652610
157	20	2	4	158	volatile	6	20	18	vs	blue	red	blue	red	left	right	0.30000000000000004	0.7	4	2	1.2000000000000002	1.4	0	1	0.30000000000000004	0.7	4	2	1.2000000000000002	1.4	valid	0.4665649460002896	53248.0	0	1.0	2.0	53248	1	53248	1	51200	0	0.7	53248	red	blue	0	2	ml	2.7.3	bip	sub-20_ses-02_task-ml_proj-bip_2021-03-30-10-10-04.652610
158	20	2	4	159	volatile	6	20	19	vs	red	blue	blue	red	right	left	0.30000000000000004	0.7	4	2	1.2000000000000002	1.4	0	1	0.7	0.30000000000000004	2	4	1.4	1.2000000000000002	valid	0.3332599160003156	51200.0	0	0.0	2.0	51200	1	51200	1	53248	0	0.7	51200	red	blue	0	2	ml	2.7.3	bip	sub-20_ses-02_task-ml_proj-bip_2021-03-30-10-10-04.652610
159	20	2	4	160	volatile	6	20	20	vs	blue	red	blue	red	left	right	0.30000000000000004	0.7	10	2	3.0000000000000004	1.4	0	1	0.30000000000000004	0.7	10	2	3.0000000000000004	1.4	valid	0.6165244489984616	53248.0	0	1.0	2.0	51200	0	53248	1	51200	0	0.7	53248	red	blue	0	2	ml	2.7.3	bip	sub-20_ses-02_task-ml_proj-bip_2021-03-30-10-10-04.652610
160	20	2	4	161	volatile	7	40	1	vs	red	blue	blue	red	right	left	0.7	0.30000000000000004	2	4	1.4	1.2000000000000002	1	0	0.30000000000000004	0.7	4	2	1.2000000000000002	1.4	valid	0.4332294910000201	51200.0	0	0.0	2.0	53248	0	53248	0	51200	1	0.7	53248	blue	red	0	0	ml	2.7.3	bip	sub-20_ses-02_task-ml_proj-bip_2021-03-30-10-10-04.652610
161	20	2	4	162	volatile	7	40	2	vs	red	blue	blue	red	right	left	0.7	0.30000000000000004	2	2	1.4	0.6000000000000001	1	0	0.30000000000000004	0.7	2	2	0.6000000000000001	1.4	valid	0.7664561700003105	51200.0	0	0.0	2.0	53248	0	53248	0	53248	0	0.7	53248	blue	red	0	0	ml	2.7.3	bip	sub-20_ses-02_task-ml_proj-bip_2021-03-30-10-10-04.652610
162	20	2	4	163	volatile	7	40	3	vs	blue	red	blue	red	left	right	0.7	0.30000000000000004	4	2	2.8	0.6000000000000001	0	1	0.7	0.30000000000000004	4	2	2.8	0.6000000000000001	invalid	0.5165506610010198	53248.0	0	1.0	2.0	51200	0	51200	0	51200	0	0.7	51200	blue	red	1	2	ml	2.7.3	bip	sub-20_ses-02_task-ml_proj-bip_2021-03-30-10-10-04.652610
163	20	2	4	164	volatile	7	40	4	vs	red	blue	blue	red	right	left	0.7	0.30000000000000004	6	4	4.199999999999998	1.2000000000000002	0	1	0.30000000000000004	0.7	4	6	1.2000000000000002	4.199999999999998	invalid	0.7164788589998352	51200.0	0	0.0	2.0	53248	0	53248	0	53248	0	0.7	53248	blue	red	1	4	ml	2.7.3	bip	sub-20_ses-02_task-ml_proj-bip_2021-03-30-10-10-04.652610
164	20	2	4	165	volatile	7	40	5	vs	red	blue	blue	red	right	left	0.7	0.30000000000000004	2	2	1.4	0.6000000000000001	0	1	0.30000000000000004	0.7	2	2	0.6000000000000001	1.4	invalid	0.8331093449996843	51200.0	0	0.0	2.0	53248	0	53248	0	53248	0	0.7	53248	blue	red	0	2	ml	2.7.3	bip	sub-20_ses-02_task-ml_proj-bip_2021-03-30-10-10-04.652610
165	20	2	4	166	volatile	7	40	6	vs	blue	red	blue	red	left	right	0.7	0.30000000000000004	6	2	4.199999999999998	0.6000000000000001	1	0	0.7	0.30000000000000004	6	2	4.199999999999998	0.6000000000000001	valid	0.4165808720008499	53248.0	0	1.0	2.0	51200	0	51200	0	51200	0	0.7	51200	blue	red	1	0	ml	2.7.3	bip	sub-20_ses-02_task-ml_proj-bip_2021-03-30-10-10-04.652610
166	20	2	4	167	volatile	7	40	7	vs	blue	red	blue	red	left	right	0.7	0.30000000000000004	4	6	2.8	1.8000000000000005	0	1	0.7	0.30000000000000004	4	6	2.8	1.8000000000000005	invalid	0.6498486370001046	53248.0	0	1.0	2.0	51200	0	51200	0	53248	1	0.7	51200	blue	red	0	6	ml	2.7.3	bip	sub-20_ses-02_task-ml_proj-bip_2021-03-30-10-10-04.652610
167	20	2	4	168	volatile	7	40	8	vs	blue	red	blue	red	left	right	0.7	0.30000000000000004	2	6	1.4	1.8000000000000005	1	0	0.7	0.30000000000000004	2	6	1.4	1.8000000000000005	valid	0.5831952070002444	53248.0	0	1.0	2.0	53248	1	51200	0	53248	1	0.7	51200	blue	red	0	0	ml	2.7.3	bip	sub-20_ses-02_task-ml_proj-bip_2021-03-30-10-10-04.652610
168	20	2	4	169	volatile	7	40	9	vs	red	blue	blue	red	right	left	0.7	0.30000000000000004	6	6	4.199999999999998	1.8000000000000005	0	1	0.30000000000000004	0.7	6	6	1.8000000000000005	4.199999999999998	invalid	0.483214867001152	51200.0	0	0.0	2.0	53248	0	53248	0	53248	0	0.7	53248	blue	red	0	6	ml	2.7.3	bip	sub-20_ses-02_task-ml_proj-bip_2021-03-30-10-10-04.652610
169	20	2	4	170	volatile	7	40	10	vs	blue	red	blue	red	left	right	0.7	0.30000000000000004	2	4	1.4	1.2000000000000002	0	1	0.7	0.30000000000000004	2	4	1.4	1.2000000000000002	invalid	0.33329468900046777	53248.0	0	1.0	2.0	51200	0	51200	0	53248	1	0.7	51200	blue	red	0	4	ml	2.7.3	bip	sub-20_ses-02_task-ml_proj-bip_2021-03-30-10-10-04.652610
170	20	2	4	171	volatile	7	40	11	vs	red	blue	blue	red	right	left	0.7	0.30000000000000004	2	4	1.4	1.2000000000000002	1	0	0.30000000000000004	0.7	4	2	1.2000000000000002	1.4	valid	0.466558742999041	51200.0	0	0.0	2.0	53248	0	53248	0	51200	1	0.7	53248	blue	red	0	0	ml	2.7.3	bip	sub-20_ses-02_task-ml_proj-bip_2021-03-30-10-10-04.652610
171	20	2	4	172	volatile	7	40	12	vs	red	blue	blue	red	right	left	0.7	0.30000000000000004	2	10	1.4	3.0000000000000004	1	0	0.30000000000000004	0.7	10	2	3.0000000000000004	1.4	valid	0.3999103879996255	51200.0	0	0.0	2.0	51200	1	53248	0	51200	1	0.7	53248	blue	red	0	0	ml	2.7.3	bip	sub-20_ses-02_task-ml_proj-bip_2021-03-30-10-10-04.652610
172	20	2	4	173	volatile	7	40	13	vs	red	blue	blue	red	right	left	0.7	0.30000000000000004	6	2	4.199999999999998	0.6000000000000001	1	0	0.30000000000000004	0.7	2	6	0.6000000000000001	4.199999999999998	valid	0.5831942330005404	53248.0	0	1.0	1.0	53248	1	53248	1	53248	1	0.7	53248	blue	red	1	6	ml	2.7.3	bip	sub-20_ses-02_task-ml_proj-bip_2021-03-30-10-10-04.652610
173	20	2	4	174	volatile	7	40	14	vs	blue	red	blue	red	left	right	0.7	0.30000000000000004	4	2	2.8	0.6000000000000001	1	0	0.7	0.30000000000000004	4	2	2.8	0.6000000000000001	valid	0.5665275859992107	53248.0	0	1.0	2.0	51200	0	51200	0	51200	0	0.7	51200	blue	red	1	0	ml	2.7.3	bip	sub-20_ses-02_task-ml_proj-bip_2021-03-30-10-10-04.652610
174	20	2	4	175	volatile	7	40	15	vs	red	blue	blue	red	right	left	0.7	0.30000000000000004	4	2	2.8	0.6000000000000001	1	0	0.30000000000000004	0.7	2	4	0.6000000000000001	2.8	valid	0.5665310320000572	53248.0	0	1.0	1.0	53248	1	53248	1	53248	1	0.7	53248	blue	red	1	4	ml	2.7.3	bip	sub-20_ses-02_task-ml_proj-bip_2021-03-30-10-10-04.652610
175	20	2	4	176	volatile	7	40	16	vs	blue	red	blue	red	left	right	0.7	0.30000000000000004	10	2	7.0	0.6000000000000001	1	0	0.7	0.30000000000000004	10	2	7.0	0.6000000000000001	valid	0.5998430039999221	51200.0	0	0.0	1.0	51200	1	51200	1	51200	1	0.7	51200	blue	red	1	10	ml	2.7.3	bip	sub-20_ses-02_task-ml_proj-bip_2021-03-30-10-10-04.652610
176	20	2	4	177	volatile	7	40	17	vs	blue	red	blue	red	left	right	0.7	0.30000000000000004	2	2	1.4	0.6000000000000001	1	0	0.7	0.30000000000000004	2	2	1.4	0.6000000000000001	valid	0.8664395910000167	51200.0	0	0.0	1.0	51200	1	51200	1	53248	0	0.7	51200	blue	red	1	2	ml	2.7.3	bip	sub-20_ses-02_task-ml_proj-bip_2021-03-30-10-10-04.652610
177	20	2	4	178	volatile	7	40	18	vs	red	blue	blue	red	right	left	0.7	0.30000000000000004	10	2	7.0	0.6000000000000001	1	0	0.30000000000000004	0.7	2	10	0.6000000000000001	7.0	valid	0.6165162380002585	53248.0	0	1.0	1.0	53248	1	53248	1	53248	1	0.7	53248	blue	red	1	10	ml	2.7.3	bip	sub-20_ses-02_task-ml_proj-bip_2021-03-30-10-10-04.652610
178	20	2	4	179	volatile	7	40	19	vs	blue	red	blue	red	left	right	0.7	0.30000000000000004	2	6	1.4	1.8000000000000005	1	0	0.7	0.30000000000000004	2	6	1.4	1.8000000000000005	valid	0.9164176649992442	51200.0	0	0.0	1.0	53248	0	51200	1	53248	0	0.7	51200	blue	red	0	2	ml	2.7.3	bip	sub-20_ses-02_task-ml_proj-bip_2021-03-30-10-10-04.652610
179	20	2	4	180	volatile	7	40	20	vs	red	blue	blue	red	right	left	0.7	0.30000000000000004	4	2	2.8	0.6000000000000001	1	0	0.30000000000000004	0.7	2	4	0.6000000000000001	2.8	valid	0.41657855400080734	53248.0	0	1.0	1.0	53248	1	53248	1	53248	1	0.7	53248	blue	red	1	4	ml	2.7.3	bip	sub-20_ses-02_task-ml_proj-bip_2021-03-30-10-10-04.652610
180	20	2	4	181	volatile	7	40	21	vs	blue	red	blue	red	left	right	0.7	0.30000000000000004	6	4	4.199999999999998	1.2000000000000002	0	1	0.7	0.30000000000000004	6	4	4.199999999999998	1.2000000000000002	invalid	0.3999073209997732	51200.0	0	0.0	1.0	51200	1	51200	1	51200	1	0.7	51200	blue	red	1	0	ml	2.7.3	bip	sub-20_ses-02_task-ml_proj-bip_2021-03-30-10-10-04.652610
181	20	2	4	182	volatile	7	40	22	vs	red	blue	blue	red	right	left	0.7	0.30000000000000004	4	6	2.8	1.8000000000000005	1	0	0.30000000000000004	0.7	6	4	1.8000000000000005	2.8	valid	0.3832561039998836	53248.0	0	1.0	1.0	53248	1	53248	1	51200	0	0.7	53248	blue	red	0	4	ml	2.7.3	bip	sub-20_ses-02_task-ml_proj-bip_2021-03-30-10-10-04.652610
182	20	2	4	183	volatile	7	40	23	vs	red	blue	blue	red	right	left	0.7	0.30000000000000004	6	6	4.199999999999998	1.8000000000000005	1	0	0.30000000000000004	0.7	6	6	1.8000000000000005	4.199999999999998	valid	0.44989999099925626	53248.0	0	1.0	1.0	53248	1	53248	1	53248	1	0.7	53248	blue	red	0	6	ml	2.7.3	bip	sub-20_ses-02_task-ml_proj-bip_2021-03-30-10-10-04.652610
183	20	2	4	184	volatile	7	40	24	vs	blue	red	blue	red	left	right	0.7	0.30000000000000004	2	4	1.4	1.2000000000000002	1	0	0.7	0.30000000000000004	2	4	1.4	1.2000000000000002	valid	0.5998449439994147	51200.0	0	0.0	1.0	51200	1	51200	1	53248	0	0.7	51200	blue	red	0	2	ml	2.7.3	bip	sub-20_ses-02_task-ml_proj-bip_2021-03-30-10-10-04.652610
184	20	2	4	185	volatile	7	40	25	vs	red	blue	blue	red	right	left	0.7	0.30000000000000004	6	6	4.199999999999998	1.8000000000000005	1	0	0.30000000000000004	0.7	6	6	1.8000000000000005	4.199999999999998	valid	0.3832558390004124	53248.0	0	1.0	1.0	53248	1	53248	1	53248	1	0.7	53248	blue	red	0	6	ml	2.7.3	bip	sub-20_ses-02_task-ml_proj-bip_2021-03-30-10-10-04.652610
185	20	2	4	186	volatile	7	40	26	vs	red	blue	blue	red	right	left	0.7	0.30000000000000004	6	4	4.199999999999998	1.2000000000000002	1	0	0.30000000000000004	0.7	4	6	1.2000000000000002	4.199999999999998	valid	0.3832535099991219	53248.0	0	1.0	1.0	53248	1	53248	1	53248	1	0.7	53248	blue	red	1	6	ml	2.7.3	bip	sub-20_ses-02_task-ml_proj-bip_2021-03-30-10-10-04.652610
186	20	2	4	187	volatile	7	40	27	vs	blue	red	blue	red	left	right	0.7	0.30000000000000004	6	6	4.199999999999998	1.8000000000000005	0	1	0.7	0.30000000000000004	6	6	4.199999999999998	1.8000000000000005	invalid	0.6998184779986332	51200.0	0	0.0	1.0	51200	1	51200	1	53248	0	0.7	51200	blue	red	1	0	ml	2.7.3	bip	sub-20_ses-02_task-ml_proj-bip_2021-03-30-10-10-04.652610
187	20	2	4	188	volatile	7	40	28	vs	blue	red	blue	red	left	right	0.7	0.30000000000000004	10	2	7.0	0.6000000000000001	1	0	0.7	0.30000000000000004	10	2	7.0	0.6000000000000001	valid	0.6998188409997965	51200.0	0	0.0	1.0	51200	1	51200	1	51200	1	0.7	51200	blue	red	1	10	ml	2.7.3	bip	sub-20_ses-02_task-ml_proj-bip_2021-03-30-10-10-04.652610
188	20	2	4	189	volatile	7	40	29	vs	blue	red	blue	red	left	right	0.7	0.30000000000000004	6	4	4.199999999999998	1.2000000000000002	1	0	0.7	0.30000000000000004	6	4	4.199999999999998	1.2000000000000002	valid	0.5498619169993617	51200.0	0	0.0	1.0	51200	1	51200	1	51200	1	0.7	51200	blue	red	1	6	ml	2.7.3	bip	sub-20_ses-02_task-ml_proj-bip_2021-03-30-10-10-04.652610
189	20	2	4	190	volatile	7	40	30	vs	red	blue	blue	red	right	left	0.7	0.30000000000000004	2	10	1.4	3.0000000000000004	0	1	0.30000000000000004	0.7	10	2	3.0000000000000004	1.4	invalid	0.4499041220005893	53248.0	0	1.0	1.0	51200	0	53248	1	51200	0	0.7	53248	blue	red	0	0	ml	2.7.3	bip	sub-20_ses-02_task-ml_proj-bip_2021-03-30-10-10-04.652610
190	20	2	4	191	volatile	7	40	31	vs	red	blue	blue	red	right	left	0.7	0.30000000000000004	6	2	4.199999999999998	0.6000000000000001	0	1	0.30000000000000004	0.7	2	6	0.6000000000000001	4.199999999999998	invalid	0.5332105720008258	53248.0	0	1.0	1.0	53248	1	53248	1	53248	1	0.7	53248	blue	red	1	0	ml	2.7.3	bip	sub-20_ses-02_task-ml_proj-bip_2021-03-30-10-10-04.652610
191	20	2	4	192	volatile	7	40	32	vs	blue	red	blue	red	left	right	0.7	0.30000000000000004	6	2	4.199999999999998	0.6000000000000001	1	0	0.7	0.30000000000000004	6	2	4.199999999999998	0.6000000000000001	valid	0.5165485719990102	53248.0	0	1.0	2.0	51200	0	51200	0	51200	0	0.7	51200	blue	red	1	0	ml	2.7.3	bip	sub-20_ses-02_task-ml_proj-bip_2021-03-30-10-10-04.652610
192	20	2	4	193	volatile	7	40	33	vs	red	blue	blue	red	right	left	0.7	0.30000000000000004	2	6	1.4	1.8000000000000005	0	1	0.30000000000000004	0.7	6	2	1.8000000000000005	1.4	invalid	0.6498315850003564	51200.0	0	0.0	2.0	51200	1	53248	0	51200	1	0.7	53248	blue	red	0	6	ml	2.7.3	bip	sub-20_ses-02_task-ml_proj-bip_2021-03-30-10-10-04.652610
193	20	2	4	194	volatile	7	40	34	vs	blue	red	blue	red	left	right	0.7	0.30000000000000004	6	4	4.199999999999998	1.2000000000000002	1	0	0.7	0.30000000000000004	6	4	4.199999999999998	1.2000000000000002	valid	0.5998699960000522	53248.0	0	1.0	2.0	51200	0	51200	0	51200	0	0.7	51200	blue	red	1	0	ml	2.7.3	bip	sub-20_ses-02_task-ml_proj-bip_2021-03-30-10-10-04.652610
194	20	2	4	195	volatile	7	40	35	vs	red	blue	blue	red	right	left	0.7	0.30000000000000004	10	2	7.0	0.6000000000000001	1	0	0.30000000000000004	0.7	2	10	0.6000000000000001	7.0	valid	0.5998564379988238	53248.0	0	1.0	1.0	53248	1	53248	1	53248	1	0.7	53248	blue	red	1	10	ml	2.7.3	bip	sub-20_ses-02_task-ml_proj-bip_2021-03-30-10-10-04.652610
195	20	2	4	196	volatile	7	40	36	vs	blue	red	blue	red	left	right	0.7	0.30000000000000004	2	2	1.4	0.6000000000000001	1	0	0.7	0.30000000000000004	2	2	1.4	0.6000000000000001	valid	0.416576558000088	51200.0	0	0.0	1.0	51200	1	51200	1	53248	0	0.7	51200	blue	red	1	2	ml	2.7.3	bip	sub-20_ses-02_task-ml_proj-bip_2021-03-30-10-10-04.652610
196	20	2	4	197	volatile	7	40	37	vs	red	blue	blue	red	right	left	0.7	0.30000000000000004	6	4	4.199999999999998	1.2000000000000002	1	0	0.30000000000000004	0.7	4	6	1.2000000000000002	4.199999999999998	valid	0.5998454170003242	51200.0	0	0.0	2.0	53248	0	53248	0	53248	0	0.7	53248	blue	red	1	0	ml	2.7.3	bip	sub-20_ses-02_task-ml_proj-bip_2021-03-30-10-10-04.652610
197	20	2	4	198	volatile	7	40	38	vs	blue	red	blue	red	left	right	0.7	0.30000000000000004	6	2	4.199999999999998	0.6000000000000001	1	0	0.7	0.30000000000000004	6	2	4.199999999999998	0.6000000000000001	valid	0.9164201550011056	51200.0	0	0.0	1.0	51200	1	51200	1	51200	1	0.7	51200	blue	red	1	6	ml	2.7.3	bip	sub-20_ses-02_task-ml_proj-bip_2021-03-30-10-10-04.652610
198	20	2	4	199	volatile	7	40	39	vs	blue	red	blue	red	left	right	0.7	0.30000000000000004	2	10	1.4	3.0000000000000004	1	0	0.7	0.30000000000000004	2	10	1.4	3.0000000000000004	valid	0.5998518199994578	51200.0	0	0.0	1.0	53248	0	51200	1	53248	0	0.7	51200	blue	red	0	2	ml	2.7.3	bip	sub-20_ses-02_task-ml_proj-bip_2021-03-30-10-10-04.652610
199	20	2	4	200	volatile	7	40	40	vs	blue	red	blue	red	left	right	0.7	0.30000000000000004	2	10	1.4	3.0000000000000004	0	1	0.7	0.30000000000000004	2	10	1.4	3.0000000000000004	invalid	0.6498420259995328	53248.0	0	1.0	2.0	53248	1	51200	0	53248	1	0.7	51200	blue	red	0	10	ml	2.7.3	bip	sub-20_ses-02_task-ml_proj-bip_2021-03-30-10-10-04.652610
200	20	2	5	201	stable	8	200	1	vs	red	blue	blue	red	right	left	0.30000000000000004	0.7	4	2	1.2000000000000002	1.4	1	0	0.7	0.30000000000000004	2	4	1.4	1.2000000000000002	invalid	1.0663817080003355	53248.0	0	1.0	1.0	51200	0	51200	0	53248	1	0.7	51200	red	blue	0	4	ml	2.7.3	bip	sub-20_ses-02_task-ml_proj-bip_2021-03-30-10-10-04.652610
201	20	2	5	202	stable	8	200	2	vs	red	blue	blue	red	right	left	0.30000000000000004	0.7	4	6	1.2000000000000002	4.199999999999998	0	1	0.7	0.30000000000000004	6	4	4.199999999999998	1.2000000000000002	valid	0.5498727060003148	53248.0	0	1.0	1.0	51200	0	51200	0	51200	0	0.7	51200	red	blue	1	0	ml	2.7.3	bip	sub-20_ses-02_task-ml_proj-bip_2021-03-30-10-10-04.652610
202	20	2	5	203	stable	8	200	3	vs	red	blue	blue	red	right	left	0.30000000000000004	0.7	2	2	0.6000000000000001	1.4	0	1	0.7	0.30000000000000004	2	2	1.4	0.6000000000000001	valid	0.4499024279994046	53248.0	0	1.0	1.0	51200	0	51200	0	53248	1	0.7	51200	red	blue	1	0	ml	2.7.3	bip	sub-20_ses-02_task-ml_proj-bip_2021-03-30-10-10-04.652610
203	20	2	5	204	stable	8	200	4	vs	blue	red	blue	red	left	right	0.30000000000000004	0.7	6	4	1.8000000000000005	2.8	0	1	0.30000000000000004	0.7	6	4	1.8000000000000005	2.8	valid	0.5498661460005678	53248.0	0	1.0	2.0	53248	1	53248	1	51200	0	0.7	53248	red	blue	0	4	ml	2.7.3	bip	sub-20_ses-02_task-ml_proj-bip_2021-03-30-10-10-04.652610
204	20	2	5	205	stable	8	200	5	vs	red	blue	blue	red	right	left	0.30000000000000004	0.7	2	10	0.6000000000000001	7.0	0	1	0.7	0.30000000000000004	10	2	7.0	0.6000000000000001	valid	0.7497971859993413	51200.0	0	0.0	2.0	51200	1	51200	1	51200	1	0.7	51200	red	blue	1	10	ml	2.7.3	bip	sub-20_ses-02_task-ml_proj-bip_2021-03-30-10-10-04.652610
205	20	2	5	206	stable	8	200	6	vs	red	blue	blue	red	right	left	0.30000000000000004	0.7	6	6	1.8000000000000005	4.199999999999998	1	0	0.7	0.30000000000000004	6	6	4.199999999999998	1.8000000000000005	invalid	0.4832218470000953	51200.0	0	0.0	2.0	51200	1	51200	1	53248	0	0.7	51200	red	blue	1	0	ml	2.7.3	bip	sub-20_ses-02_task-ml_proj-bip_2021-03-30-10-10-04.652610
206	20	2	5	207	stable	8	200	7	vs	red	blue	blue	red	right	left	0.30000000000000004	0.7	6	6	1.8000000000000005	4.199999999999998	0	1	0.7	0.30000000000000004	6	6	4.199999999999998	1.8000000000000005	valid	0.6998113739991823	51200.0	0	0.0	2.0	51200	1	51200	1	53248	0	0.7	51200	red	blue	1	6	ml	2.7.3	bip	sub-20_ses-02_task-ml_proj-bip_2021-03-30-10-10-04.652610
207	20	2	5	208	stable	8	200	8	vs	blue	red	blue	red	left	right	0.30000000000000004	0.7	2	4	0.6000000000000001	2.8	1	0	0.30000000000000004	0.7	2	4	0.6000000000000001	2.8	invalid	0.5998583370001143	53248.0	0	1.0	2.0	53248	1	53248	1	53248	1	0.7	53248	red	blue	1	0	ml	2.7.3	bip	sub-20_ses-02_task-ml_proj-bip_2021-03-30-10-10-04.652610
208	20	2	5	209	stable	8	200	9	vs	blue	red	blue	red	left	right	0.30000000000000004	0.7	4	6	1.2000000000000002	4.199999999999998	1	0	0.30000000000000004	0.7	4	6	1.2000000000000002	4.199999999999998	invalid	1.1163597779996053	51200.0	0	0.0	1.0	53248	0	53248	0	53248	0	0.7	53248	red	blue	1	4	ml	2.7.3	bip	sub-20_ses-02_task-ml_proj-bip_2021-03-30-10-10-04.652610
209	20	2	5	210	stable	8	200	10	vs	red	blue	blue	red	right	left	0.30000000000000004	0.7	6	2	1.8000000000000005	1.4	1	0	0.7	0.30000000000000004	2	6	1.4	1.8000000000000005	invalid	0.3333044920000248	53248.0	0	1.0	1.0	53248	1	51200	0	53248	1	0.7	51200	red	blue	0	6	ml	2.7.3	bip	sub-20_ses-02_task-ml_proj-bip_2021-03-30-10-10-04.652610
210	20	2	5	211	stable	8	200	11	vs	red	blue	blue	red	right	left	0.30000000000000004	0.7	2	2	0.6000000000000001	1.4	0	1	0.7	0.30000000000000004	2	2	1.4	0.6000000000000001	valid	0.5831965580000542	53248.0	0	1.0	1.0	51200	0	51200	0	53248	1	0.7	51200	red	blue	1	0	ml	2.7.3	bip	sub-20_ses-02_task-ml_proj-bip_2021-03-30-10-10-04.652610
211	20	2	5	212	stable	8	200	12	vs	red	blue	blue	red	right	left	0.30000000000000004	0.7	6	4	1.8000000000000005	2.8	0	1	0.7	0.30000000000000004	4	6	2.8	1.8000000000000005	valid	0.7164768999991793	51200.0	0	0.0	2.0	51200	1	51200	1	53248	0	0.7	51200	red	blue	0	4	ml	2.7.3	bip	sub-20_ses-02_task-ml_proj-bip_2021-03-30-10-10-04.652610
212	20	2	5	213	stable	8	200	13	vs	blue	red	blue	red	left	right	0.30000000000000004	0.7	6	4	1.8000000000000005	2.8	1	0	0.30000000000000004	0.7	6	4	1.8000000000000005	2.8	invalid	0.5498752829989826	53248.0	0	1.0	2.0	53248	1	53248	1	51200	0	0.7	53248	red	blue	0	0	ml	2.7.3	bip	sub-20_ses-02_task-ml_proj-bip_2021-03-30-10-10-04.652610
213	20	2	5	214	stable	8	200	14	vs	red	blue	blue	red	right	left	0.30000000000000004	0.7	2	4	0.6000000000000001	2.8	1	0	0.7	0.30000000000000004	4	2	2.8	0.6000000000000001	invalid	0.5331985899993015	51200.0	0	0.0	2.0	51200	1	51200	1	51200	1	0.7	51200	red	blue	1	0	ml	2.7.3	bip	sub-20_ses-02_task-ml_proj-bip_2021-03-30-10-10-04.652610
214	20	2	5	215	stable	8	200	15	vs	red	blue	blue	red	right	left	0.30000000000000004	0.7	2	4	0.6000000000000001	2.8	0	1	0.7	0.30000000000000004	4	2	2.8	0.6000000000000001	valid	0.3499354260002292	53248.0	0	1.0	1.0	51200	0	51200	0	51200	0	0.7	51200	red	blue	1	0	ml	2.7.3	bip	sub-20_ses-02_task-ml_proj-bip_2021-03-30-10-10-04.652610
215	20	2	5	216	stable	8	200	16	vs	blue	red	blue	red	left	right	0.30000000000000004	0.7	2	2	0.6000000000000001	1.4	1	0	0.30000000000000004	0.7	2	2	0.6000000000000001	1.4	invalid	0.4499020629991719	53248.0	0	1.0	2.0	53248	1	53248	1	53248	1	0.7	53248	red	blue	0	0	ml	2.7.3	bip	sub-20_ses-02_task-ml_proj-bip_2021-03-30-10-10-04.652610
216	20	2	5	217	stable	8	200	17	vs	red	blue	blue	red	right	left	0.30000000000000004	0.7	10	2	3.0000000000000004	1.4	1	0	0.7	0.30000000000000004	2	10	1.4	3.0000000000000004	invalid	0.9164280029999644	53248.0	0	1.0	1.0	53248	1	51200	0	53248	1	0.7	51200	red	blue	0	10	ml	2.7.3	bip	sub-20_ses-02_task-ml_proj-bip_2021-03-30-10-10-04.652610
217	20	2	5	218	stable	8	200	18	vs	red	blue	blue	red	right	left	0.30000000000000004	0.7	6	6	1.8000000000000005	4.199999999999998	0	1	0.7	0.30000000000000004	6	6	4.199999999999998	1.8000000000000005	valid	0.4665639229988301	53248.0	0	1.0	1.0	51200	0	51200	0	53248	1	0.7	51200	red	blue	1	0	ml	2.7.3	bip	sub-20_ses-02_task-ml_proj-bip_2021-03-30-10-10-04.652610
218	20	2	5	219	stable	8	200	19	vs	blue	red	blue	red	left	right	0.30000000000000004	0.7	2	10	0.6000000000000001	7.0	0	1	0.30000000000000004	0.7	2	10	0.6000000000000001	7.0	valid	0.7831328289994417	53248.0	0	1.0	2.0	53248	1	53248	1	53248	1	0.7	53248	red	blue	1	10	ml	2.7.3	bip	sub-20_ses-02_task-ml_proj-bip_2021-03-30-10-10-04.652610
219	20	2	5	220	stable	8	200	20	vs	red	blue	blue	red	right	left	0.30000000000000004	0.7	2	10	0.6000000000000001	7.0	1	0	0.7	0.30000000000000004	10	2	7.0	0.6000000000000001	invalid	0.7831237020000117	51200.0	0	0.0	2.0	51200	1	51200	1	51200	1	0.7	51200	red	blue	1	0	ml	2.7.3	bip	sub-20_ses-02_task-ml_proj-bip_2021-03-30-10-10-04.652610
220	20	2	5	221	stable	8	200	21	vs	blue	red	blue	red	left	right	0.30000000000000004	0.7	2	4	0.6000000000000001	2.8	0	1	0.30000000000000004	0.7	2	4	0.6000000000000001	2.8	valid	0.3832554540003912	53248.0	0	1.0	2.0	53248	1	53248	1	53248	1	0.7	53248	red	blue	1	4	ml	2.7.3	bip	sub-20_ses-02_task-ml_proj-bip_2021-03-30-10-10-04.652610
221	20	2	5	222	stable	8	200	22	vs	blue	red	blue	red	left	right	0.30000000000000004	0.7	4	6	1.2000000000000002	4.199999999999998	0	1	0.30000000000000004	0.7	4	6	1.2000000000000002	4.199999999999998	valid	0.4332335290000629	53248.0	0	1.0	2.0	53248	1	53248	1	53248	1	0.7	53248	red	blue	1	6	ml	2.7.3	bip	sub-20_ses-02_task-ml_proj-bip_2021-03-30-10-10-04.652610
222	20	2	5	223	stable	8	200	23	vs	blue	red	blue	red	left	right	0.30000000000000004	0.7	4	6	1.2000000000000002	4.199999999999998	0	1	0.30000000000000004	0.7	4	6	1.2000000000000002	4.199999999999998	valid	0.5665413669994449	53248.0	0	1.0	2.0	53248	1	53248	1	53248	1	0.7	53248	red	blue	1	6	ml	2.7.3	bip	sub-20_ses-02_task-ml_proj-bip_2021-03-30-10-10-04.652610
223	20	2	5	224	stable	8	200	24	vs	blue	red	blue	red	left	right	0.30000000000000004	0.7	6	6	1.8000000000000005	4.199999999999998	0	1	0.30000000000000004	0.7	6	6	1.8000000000000005	4.199999999999998	valid	0.483226422998996	53248.0	0	1.0	2.0	53248	1	53248	1	53248	1	0.7	53248	red	blue	0	6	ml	2.7.3	bip	sub-20_ses-02_task-ml_proj-bip_2021-03-30-10-10-04.652610
224	20	2	5	225	stable	8	200	25	vs	red	blue	blue	red	right	left	0.30000000000000004	0.7	6	2	1.8000000000000005	1.4	1	0	0.7	0.30000000000000004	2	6	1.4	1.8000000000000005	invalid	0.61650714300049	51200.0	0	0.0	2.0	53248	0	51200	1	53248	0	0.7	51200	red	blue	0	0	ml	2.7.3	bip	sub-20_ses-02_task-ml_proj-bip_2021-03-30-10-10-04.652610
225	20	2	5	226	stable	8	200	26	vs	blue	red	blue	red	left	right	0.30000000000000004	0.7	6	2	1.8000000000000005	1.4	1	0	0.30000000000000004	0.7	6	2	1.8000000000000005	1.4	invalid	0.7831338609994418	53248.0	0	1.0	2.0	51200	0	53248	1	51200	0	0.7	53248	red	blue	0	0	ml	2.7.3	bip	sub-20_ses-02_task-ml_proj-bip_2021-03-30-10-10-04.652610
226	20	2	5	227	stable	8	200	27	vs	red	blue	blue	red	right	left	0.30000000000000004	0.7	2	2	0.6000000000000001	1.4	1	0	0.7	0.30000000000000004	2	2	1.4	0.6000000000000001	invalid	0.39991696099968976	53248.0	0	1.0	1.0	51200	0	51200	0	53248	1	0.7	51200	red	blue	1	2	ml	2.7.3	bip	sub-20_ses-02_task-ml_proj-bip_2021-03-30-10-10-04.652610
227	20	2	5	228	stable	8	200	28	vs	red	blue	blue	red	right	left	0.30000000000000004	0.7	2	10	0.6000000000000001	7.0	1	0	0.7	0.30000000000000004	10	2	7.0	0.6000000000000001	invalid	0.4499024080014351	53248.0	0	1.0	1.0	51200	0	51200	0	51200	0	0.7	51200	red	blue	1	2	ml	2.7.3	bip	sub-20_ses-02_task-ml_proj-bip_2021-03-30-10-10-04.652610
228	20	2	5	229	stable	8	200	29	vs	blue	red	blue	red	left	right	0.30000000000000004	0.7	2	2	0.6000000000000001	1.4	0	1	0.30000000000000004	0.7	2	2	0.6000000000000001	1.4	valid	0.5165353630000027	51200.0	0	0.0	1.0	53248	0	53248	0	53248	0	0.7	53248	red	blue	0	0	ml	2.7.3	bip	sub-20_ses-02_task-ml_proj-bip_2021-03-30-10-10-04.652610
229	20	2	5	230	stable	8	200	30	vs	red	blue	blue	red	right	left	0.30000000000000004	0.7	2	2	0.6000000000000001	1.4	0	1	0.7	0.30000000000000004	2	2	1.4	0.6000000000000001	valid	0.34993206299986923	53248.0	0	1.0	1.0	51200	0	51200	0	53248	1	0.7	51200	red	blue	1	0	ml	2.7.3	bip	sub-20_ses-02_task-ml_proj-bip_2021-03-30-10-10-04.652610
230	20	2	5	231	stable	8	200	31	vs	blue	red	blue	red	left	right	0.30000000000000004	0.7	2	10	0.6000000000000001	7.0	0	1	0.30000000000000004	0.7	2	10	0.6000000000000001	7.0	valid	0.9997379739997996	53248.0	0	1.0	2.0	53248	1	53248	1	53248	1	0.7	53248	red	blue	1	10	ml	2.7.3	bip	sub-20_ses-02_task-ml_proj-bip_2021-03-30-10-10-04.652610
231	20	2	5	232	stable	8	200	32	vs	blue	red	blue	red	left	right	0.30000000000000004	0.7	4	6	1.2000000000000002	4.199999999999998	0	1	0.30000000000000004	0.7	4	6	1.2000000000000002	4.199999999999998	valid	0.8164593530000275	53248.0	0	1.0	2.0	53248	1	53248	1	53248	1	0.7	53248	red	blue	1	6	ml	2.7.3	bip	sub-20_ses-02_task-ml_proj-bip_2021-03-30-10-10-04.652610
232	20	2	5	233	stable	8	200	33	vs	blue	red	blue	red	left	right	0.30000000000000004	0.7	4	2	1.2000000000000002	1.4	0	1	0.30000000000000004	0.7	4	2	1.2000000000000002	1.4	valid	0.916430596000282	53248.0	0	1.0	2.0	53248	1	53248	1	51200	0	0.7	53248	red	blue	0	2	ml	2.7.3	bip	sub-20_ses-02_task-ml_proj-bip_2021-03-30-10-10-04.652610
233	20	2	5	234	stable	8	200	34	vs	blue	red	blue	red	left	right	0.30000000000000004	0.7	4	2	1.2000000000000002	1.4	0	1	0.30000000000000004	0.7	4	2	1.2000000000000002	1.4	valid	0.5831879090001166	51200.0	0	0.0	1.0	53248	0	53248	0	51200	1	0.7	53248	red	blue	0	0	ml	2.7.3	bip	sub-20_ses-02_task-ml_proj-bip_2021-03-30-10-10-04.652610
234	20	2	5	235	stable	8	200	35	vs	blue	red	blue	red	left	right	0.30000000000000004	0.7	6	2	1.8000000000000005	1.4	0	1	0.30000000000000004	0.7	6	2	1.8000000000000005	1.4	valid	0.29995540700110723	53248.0	0	1.0	2.0	51200	0	53248	1	51200	0	0.7	53248	red	blue	0	2	ml	2.7.3	bip	sub-20_ses-02_task-ml_proj-bip_2021-03-30-10-10-04.652610
235	20	2	5	236	stable	8	200	36	vs	blue	red	blue	red	left	right	0.30000000000000004	0.7	10	2	3.0000000000000004	1.4	1	0	0.30000000000000004	0.7	10	2	3.0000000000000004	1.4	invalid	0.7664620659998036	51200.0	0	0.0	1.0	51200	1	53248	0	51200	1	0.7	53248	red	blue	0	10	ml	2.7.3	bip	sub-20_ses-02_task-ml_proj-bip_2021-03-30-10-10-04.652610
236	20	2	5	237	stable	8	200	37	vs	blue	red	blue	red	left	right	0.30000000000000004	0.7	2	6	0.6000000000000001	4.199999999999998	0	1	0.30000000000000004	0.7	2	6	0.6000000000000001	4.199999999999998	valid	0.4499029769995104	53248.0	0	1.0	2.0	53248	1	53248	1	53248	1	0.7	53248	red	blue	1	6	ml	2.7.3	bip	sub-20_ses-02_task-ml_proj-bip_2021-03-30-10-10-04.652610
237	20	2	5	238	stable	8	200	38	vs	red	blue	blue	red	right	left	0.30000000000000004	0.7	4	2	1.2000000000000002	1.4	0	1	0.7	0.30000000000000004	2	4	1.4	1.2000000000000002	valid	0.4832156850006868	51200.0	0	0.0	2.0	51200	1	51200	1	53248	0	0.7	51200	red	blue	0	2	ml	2.7.3	bip	sub-20_ses-02_task-ml_proj-bip_2021-03-30-10-10-04.652610
238	20	2	5	239	stable	8	200	39	vs	blue	red	blue	red	left	right	0.30000000000000004	0.7	6	2	1.8000000000000005	1.4	0	1	0.30000000000000004	0.7	6	2	1.8000000000000005	1.4	valid	0.34993867599951045	53248.0	0	1.0	2.0	51200	0	53248	1	51200	0	0.7	53248	red	blue	0	2	ml	2.7.3	bip	sub-20_ses-02_task-ml_proj-bip_2021-03-30-10-10-04.652610
239	20	2	5	240	stable	8	200	40	vs	blue	red	blue	red	left	right	0.30000000000000004	0.7	6	2	1.8000000000000005	1.4	0	1	0.30000000000000004	0.7	6	2	1.8000000000000005	1.4	valid	0.34993050299999595	53248.0	0	1.0	2.0	51200	0	53248	1	51200	0	0.7	53248	red	blue	0	2	ml	2.7.3	bip	sub-20_ses-02_task-ml_proj-bip_2021-03-30-10-10-04.652610
240	20	2	5	241	stable	8	200	41	vs	red	blue	blue	red	right	left	0.30000000000000004	0.7	2	6	0.6000000000000001	4.199999999999998	1	0	0.7	0.30000000000000004	6	2	4.199999999999998	0.6000000000000001	invalid	0.5498630900001444	51200.0	0	0.0	2.0	51200	1	51200	1	51200	1	0.7	51200	red	blue	1	0	ml	2.7.3	bip	sub-20_ses-02_task-ml_proj-bip_2021-03-30-10-10-04.652610
241	20	2	5	242	stable	8	200	42	vs	blue	red	blue	red	left	right	0.30000000000000004	0.7	4	2	1.2000000000000002	1.4	1	0	0.30000000000000004	0.7	4	2	1.2000000000000002	1.4	invalid	0.3499372440001025	53248.0	0	1.0	2.0	53248	1	53248	1	51200	0	0.7	53248	red	blue	0	0	ml	2.7.3	bip	sub-20_ses-02_task-ml_proj-bip_2021-03-30-10-10-04.652610
242	20	2	5	243	stable	8	200	43	vs	blue	red	blue	red	left	right	0.30000000000000004	0.7	2	2	0.6000000000000001	1.4	1	0	0.30000000000000004	0.7	2	2	0.6000000000000001	1.4	invalid	0.6998117620005361	51200.0	0	0.0	1.0	53248	0	53248	0	53248	0	0.7	53248	red	blue	0	2	ml	2.7.3	bip	sub-20_ses-02_task-ml_proj-bip_2021-03-30-10-10-04.652610
243	20	2	5	244	stable	8	200	44	vs	red	blue	blue	red	right	left	0.30000000000000004	0.7	10	2	3.0000000000000004	1.4	0	1	0.7	0.30000000000000004	2	10	1.4	3.0000000000000004	valid	0.3665890379998018	53248.0	0	1.0	1.0	53248	1	51200	0	53248	1	0.7	51200	red	blue	0	0	ml	2.7.3	bip	sub-20_ses-02_task-ml_proj-bip_2021-03-30-10-10-04.652610
244	20	2	5	245	stable	8	200	45	vs	red	blue	blue	red	right	left	0.30000000000000004	0.7	2	4	0.6000000000000001	2.8	1	0	0.7	0.30000000000000004	4	2	2.8	0.6000000000000001	invalid	0.4832242350003071	53248.0	0	1.0	1.0	51200	0	51200	0	51200	0	0.7	51200	red	blue	1	2	ml	2.7.3	bip	sub-20_ses-02_task-ml_proj-bip_2021-03-30-10-10-04.652610
245	20	2	5	246	stable	8	200	46	vs	blue	red	blue	red	left	right	0.30000000000000004	0.7	10	2	3.0000000000000004	1.4	0	1	0.30000000000000004	0.7	10	2	3.0000000000000004	1.4	valid	0.6498297710004408	51200.0	0	0.0	1.0	51200	1	53248	0	51200	1	0.7	53248	red	blue	0	0	ml	2.7.3	bip	sub-20_ses-02_task-ml_proj-bip_2021-03-30-10-10-04.652610
246	20	2	5	247	stable	8	200	47	vs	blue	red	blue	red	left	right	0.30000000000000004	0.7	2	10	0.6000000000000001	7.0	0	1	0.30000000000000004	0.7	2	10	0.6000000000000001	7.0	valid	0.5498720110008435	53248.0	0	1.0	2.0	53248	1	53248	1	53248	1	0.7	53248	red	blue	1	10	ml	2.7.3	bip	sub-20_ses-02_task-ml_proj-bip_2021-03-30-10-10-04.652610
247	20	2	5	248	stable	8	200	48	vs	red	blue	blue	red	right	left	0.30000000000000004	0.7	6	4	1.8000000000000005	2.8	0	1	0.7	0.30000000000000004	4	6	2.8	1.8000000000000005	valid	0.4665525079999498	51200.0	0	0.0	2.0	51200	1	51200	1	53248	0	0.7	51200	red	blue	0	4	ml	2.7.3	bip	sub-20_ses-02_task-ml_proj-bip_2021-03-30-10-10-04.652610
248	20	2	5	249	stable	8	200	49	vs	blue	red	blue	red	left	right	0.30000000000000004	0.7	6	6	1.8000000000000005	4.199999999999998	1	0	0.30000000000000004	0.7	6	6	1.8000000000000005	4.199999999999998	invalid	0.38325549299952394	53248.0	0	1.0	2.0	53248	1	53248	1	53248	1	0.7	53248	red	blue	0	0	ml	2.7.3	bip	sub-20_ses-02_task-ml_proj-bip_2021-03-30-10-10-04.652610
249	20	2	5	250	stable	8	200	50	vs	red	blue	blue	red	right	left	0.30000000000000004	0.7	4	6	1.2000000000000002	4.199999999999998	1	0	0.7	0.30000000000000004	6	4	4.199999999999998	1.2000000000000002	invalid	0.5165373890013143	51200.0	0	0.0	2.0	51200	1	51200	1	51200	1	0.7	51200	red	blue	1	0	ml	2.7.3	bip	sub-20_ses-02_task-ml_proj-bip_2021-03-30-10-10-04.652610
250	20	2	6	251	stable	8	200	51	vs	red	blue	blue	red	right	left	0.30000000000000004	0.7	2	10	0.6000000000000001	7.0	0	1	0.7	0.30000000000000004	10	2	7.0	0.6000000000000001	valid	0.5665337789996556	53248.0	0	1.0	1.0	51200	0	51200	0	51200	0	0.7	51200	red	blue	1	0	ml	2.7.3	bip	sub-20_ses-02_task-ml_proj-bip_2021-03-30-10-10-04.652610
251	20	2	6	252	stable	8	200	52	vs	red	blue	blue	red	right	left	0.30000000000000004	0.7	6	2	1.8000000000000005	1.4	0	1	0.7	0.30000000000000004	2	6	1.4	1.8000000000000005	valid	0.4498789159988519	51200.0	0	0.0	2.0	53248	0	51200	1	53248	0	0.7	51200	red	blue	0	2	ml	2.7.3	bip	sub-20_ses-02_task-ml_proj-bip_2021-03-30-10-10-04.652610
252	20	2	6	253	stable	8	200	53	vs	blue	red	blue	red	left	right	0.30000000000000004	0.7	10	2	3.0000000000000004	1.4	0	1	0.30000000000000004	0.7	10	2	3.0000000000000004	1.4	valid	0.3665937929999927	53248.0	0	1.0	2.0	51200	0	53248	1	51200	0	0.7	53248	red	blue	0	2	ml	2.7.3	bip	sub-20_ses-02_task-ml_proj-bip_2021-03-30-10-10-04.652610
253	20	2	6	254	stable	8	200	54	vs	blue	red	blue	red	left	right	0.30000000000000004	0.7	6	4	1.8000000000000005	2.8	0	1	0.30000000000000004	0.7	6	4	1.8000000000000005	2.8	valid	0.4998862070005998	53248.0	0	1.0	2.0	53248	1	53248	1	51200	0	0.7	53248	red	blue	0	4	ml	2.7.3	bip	sub-20_ses-02_task-ml_proj-bip_2021-03-30-10-10-04.652610
254	20	2	6	255	stable	8	200	55	vs	blue	red	blue	red	left	right	0.30000000000000004	0.7	4	2	1.2000000000000002	1.4	0	1	0.30000000000000004	0.7	4	2	1.2000000000000002	1.4	valid	0.4998835079986748	53248.0	0	1.0	2.0	53248	1	53248	1	51200	0	0.7	53248	red	blue	0	2	ml	2.7.3	bip	sub-20_ses-02_task-ml_proj-bip_2021-03-30-10-10-04.652610
255	20	2	6	256	stable	8	200	56	vs	blue	red	blue	red	left	right	0.30000000000000004	0.7	2	6	0.6000000000000001	4.199999999999998	1	0	0.30000000000000004	0.7	2	6	0.6000000000000001	4.199999999999998	invalid	0.5998625800002628	53248.0	0	1.0	2.0	53248	1	53248	1	53248	1	0.7	53248	red	blue	1	0	ml	2.7.3	bip	sub-20_ses-02_task-ml_proj-bip_2021-03-30-10-10-04.652610
256	20	2	6	257	stable	8	200	57	vs	red	blue	blue	red	right	left	0.30000000000000004	0.7	2	6	0.6000000000000001	4.199999999999998	0	1	0.7	0.30000000000000004	6	2	4.199999999999998	0.6000000000000001	valid	1.6328799749990142	53248.0	0	1.0	1.0	51200	0	51200	0	51200	0	0.7	51200	red	blue	1	0	ml	2.7.3	bip	sub-20_ses-02_task-ml_proj-bip_2021-03-30-10-10-04.652610
257	20	2	6	258	stable	8	200	58	vs	red	blue	blue	red	right	left	0.30000000000000004	0.7	10	2	3.0000000000000004	1.4	0	1	0.7	0.30000000000000004	2	10	1.4	3.0000000000000004	valid	0.33325958300156344	51200.0	0	0.0	2.0	53248	0	51200	1	53248	0	0.7	51200	red	blue	0	2	ml	2.7.3	bip	sub-20_ses-02_task-ml_proj-bip_2021-03-30-10-10-04.652610
258	20	2	6	259	stable	8	200	59	vs	red	blue	blue	red	right	left	0.30000000000000004	0.7	6	6	1.8000000000000005	4.199999999999998	0	1	0.7	0.30000000000000004	6	6	4.199999999999998	1.8000000000000005	valid	0.5831878259996301	51200.0	0	0.0	2.0	51200	1	51200	1	53248	0	0.7	51200	red	blue	1	6	ml	2.7.3	bip	sub-20_ses-02_task-ml_proj-bip_2021-03-30-10-10-04.652610
259	20	2	6	260	stable	8	200	60	vs	blue	red	blue	red	left	right	0.30000000000000004	0.7	2	6	0.6000000000000001	4.199999999999998	0	1	0.30000000000000004	0.7	2	6	0.6000000000000001	4.199999999999998	valid	0.3832531449988892	53248.0	0	1.0	2.0	53248	1	53248	1	53248	1	0.7	53248	red	blue	1	6	ml	2.7.3	bip	sub-20_ses-02_task-ml_proj-bip_2021-03-30-10-10-04.652610
260	20	2	6	261	stable	8	200	61	vs	red	blue	blue	red	right	left	0.30000000000000004	0.7	2	2	0.6000000000000001	1.4	0	1	0.7	0.30000000000000004	2	2	1.4	0.6000000000000001	valid	0.5498737929992785	53248.0	0	1.0	1.0	51200	0	51200	0	53248	1	0.7	51200	red	blue	1	0	ml	2.7.3	bip	sub-20_ses-02_task-ml_proj-bip_2021-03-30-10-10-04.652610
261	20	2	6	262	stable	8	200	62	vs	red	blue	blue	red	right	left	0.30000000000000004	0.7	2	10	0.6000000000000001	7.0	0	1	0.7	0.30000000000000004	10	2	7.0	0.6000000000000001	valid	0.4832151350001368	51200.0	0	0.0	2.0	51200	1	51200	1	51200	1	0.7	51200	red	blue	1	10	ml	2.7.3	bip	sub-20_ses-02_task-ml_proj-bip_2021-03-30-10-10-04.652610
262	20	2	6	263	stable	8	200	63	vs	blue	red	blue	red	left	right	0.30000000000000004	0.7	6	4	1.8000000000000005	2.8	1	0	0.30000000000000004	0.7	6	4	1.8000000000000005	2.8	invalid	1.8661385160012287	53248.0	0	1.0	2.0	53248	1	53248	1	51200	0	0.7	53248	red	blue	0	0	ml	2.7.3	bip	sub-20_ses-02_task-ml_proj-bip_2021-03-30-10-10-04.652610
263	20	2	6	264	stable	8	200	64	vs	blue	red	blue	red	left	right	0.30000000000000004	0.7	2	6	0.6000000000000001	4.199999999999998	0	1	0.30000000000000004	0.7	2	6	0.6000000000000001	4.199999999999998	valid	0.34992936799972085	53248.0	0	1.0	2.0	53248	1	53248	1	53248	1	0.7	53248	red	blue	1	6	ml	2.7.3	bip	sub-20_ses-02_task-ml_proj-bip_2021-03-30-10-10-04.652610
264	20	2	6	265	stable	8	200	65	vs	blue	red	blue	red	left	right	0.30000000000000004	0.7	2	10	0.6000000000000001	7.0	0	1	0.30000000000000004	0.7	2	10	0.6000000000000001	7.0	valid	0.4332384549998096	53248.0	0	1.0	2.0	53248	1	53248	1	53248	1	0.7	53248	red	blue	1	10	ml	2.7.3	bip	sub-20_ses-02_task-ml_proj-bip_2021-03-30-10-10-04.652610
265	20	2	6	266	stable	8	200	66	vs	red	blue	blue	red	right	left	0.30000000000000004	0.7	6	6	1.8000000000000005	4.199999999999998	0	1	0.7	0.30000000000000004	6	6	4.199999999999998	1.8000000000000005	valid	0.4998723270000482	51200.0	0	0.0	2.0	51200	1	51200	1	53248	0	0.7	51200	red	blue	1	6	ml	2.7.3	bip	sub-20_ses-02_task-ml_proj-bip_2021-03-30-10-10-04.652610
266	20	2	6	267	stable	8	200	67	vs	red	blue	blue	red	right	left	0.30000000000000004	0.7	2	2	0.6000000000000001	1.4	0	1	0.7	0.30000000000000004	2	2	1.4	0.6000000000000001	valid	0.8331155960004253	53248.0	0	1.0	1.0	51200	0	51200	0	53248	1	0.7	51200	red	blue	1	0	ml	2.7.3	bip	sub-20_ses-02_task-ml_proj-bip_2021-03-30-10-10-04.652610
267	20	2	6	268	stable	8	200	68	vs	red	blue	blue	red	right	left	0.30000000000000004	0.7	2	4	0.6000000000000001	2.8	0	1	0.7	0.30000000000000004	4	2	2.8	0.6000000000000001	valid	0.6498324809999758	51200.0	0	0.0	2.0	51200	1	51200	1	51200	1	0.7	51200	red	blue	1	4	ml	2.7.3	bip	sub-20_ses-02_task-ml_proj-bip_2021-03-30-10-10-04.652610
268	20	2	6	269	stable	8	200	69	vs	red	blue	blue	red	right	left	0.30000000000000004	0.7	4	2	1.2000000000000002	1.4	1	0	0.7	0.30000000000000004	2	4	1.4	1.2000000000000002	invalid	0.9664030919993821	51200.0	0	0.0	2.0	51200	1	51200	1	53248	0	0.7	51200	red	blue	0	0	ml	2.7.3	bip	sub-20_ses-02_task-ml_proj-bip_2021-03-30-10-10-04.652610
269	20	2	6	270	stable	8	200	70	vs	red	blue	blue	red	right	left	0.30000000000000004	0.7	2	2	0.6000000000000001	1.4	0	1	0.7	0.30000000000000004	2	2	1.4	0.6000000000000001	valid	0.6331702530005714	51200.0	0	0.0	2.0	51200	1	51200	1	53248	0	0.7	51200	red	blue	1	2	ml	2.7.3	bip	sub-20_ses-02_task-ml_proj-bip_2021-03-30-10-10-04.652610
270	20	2	6	271	stable	8	200	71	vs	blue	red	blue	red	left	right	0.30000000000000004	0.7	6	2	1.8000000000000005	1.4	0	1	0.30000000000000004	0.7	6	2	1.8000000000000005	1.4	valid	0.46657147400037496	53248.0	0	1.0	2.0	51200	0	53248	1	51200	0	0.7	53248	red	blue	0	2	ml	2.7.3	bip	sub-20_ses-02_task-ml_proj-bip_2021-03-30-10-10-04.652610
271	20	2	6	272	stable	8	200	72	vs	blue	red	blue	red	left	right	0.30000000000000004	0.7	6	2	1.8000000000000005	1.4	0	1	0.30000000000000004	0.7	6	2	1.8000000000000005	1.4	valid	0.4499064800002088	53248.0	0	1.0	2.0	51200	0	53248	1	51200	0	0.7	53248	red	blue	0	2	ml	2.7.3	bip	sub-20_ses-02_task-ml_proj-bip_2021-03-30-10-10-04.652610
272	20	2	6	273	stable	8	200	73	vs	blue	red	blue	red	left	right	0.30000000000000004	0.7	4	2	1.2000000000000002	1.4	1	0	0.30000000000000004	0.7	4	2	1.2000000000000002	1.4	invalid	1.4829146590000164	51200.0	0	0.0	1.0	53248	0	53248	0	51200	1	0.7	53248	red	blue	0	4	ml	2.7.3	bip	sub-20_ses-02_task-ml_proj-bip_2021-03-30-10-10-04.652610
273	20	2	6	274	stable	8	200	74	vs	blue	red	blue	red	left	right	0.30000000000000004	0.7	4	2	1.2000000000000002	1.4	1	0	0.30000000000000004	0.7	4	2	1.2000000000000002	1.4	invalid	0.5831944759993348	53248.0	0	1.0	2.0	53248	1	53248	1	51200	0	0.7	53248	red	blue	0	0	ml	2.7.3	bip	sub-20_ses-02_task-ml_proj-bip_2021-03-30-10-10-04.652610
274	20	2	6	275	stable	8	200	75	vs	red	blue	blue	red	right	left	0.30000000000000004	0.7	2	10	0.6000000000000001	7.0	0	1	0.7	0.30000000000000004	10	2	7.0	0.6000000000000001	valid	0.4332390180006769	53248.0	0	1.0	1.0	51200	0	51200	0	51200	0	0.7	51200	red	blue	1	0	ml	2.7.3	bip	sub-20_ses-02_task-ml_proj-bip_2021-03-30-10-10-04.652610
275	20	2	6	276	stable	8	200	76	vs	blue	red	blue	red	left	right	0.30000000000000004	0.7	6	2	1.8000000000000005	1.4	0	1	0.30000000000000004	0.7	6	2	1.8000000000000005	1.4	valid	0.3999047570014227	51200.0	0	0.0	1.0	51200	1	53248	0	51200	1	0.7	53248	red	blue	0	0	ml	2.7.3	bip	sub-20_ses-02_task-ml_proj-bip_2021-03-30-10-10-04.652610
276	20	2	6	277	stable	8	200	77	vs	blue	red	blue	red	left	right	0.30000000000000004	0.7	2	4	0.6000000000000001	2.8	0	1	0.30000000000000004	0.7	2	4	0.6000000000000001	2.8	valid	0.466569244999846	53248.0	0	1.0	2.0	53248	1	53248	1	53248	1	0.7	53248	red	blue	1	4	ml	2.7.3	bip	sub-20_ses-02_task-ml_proj-bip_2021-03-30-10-10-04.652610
277	20	2	6	278	stable	8	200	78	vs	red	blue	blue	red	right	left	0.30000000000000004	0.7	2	2	0.6000000000000001	1.4	0	1	0.7	0.30000000000000004	2	2	1.4	0.6000000000000001	valid	0.533200265999767	51200.0	0	0.0	2.0	51200	1	51200	1	53248	0	0.7	51200	red	blue	1	2	ml	2.7.3	bip	sub-20_ses-02_task-ml_proj-bip_2021-03-30-10-10-04.652610
278	20	2	6	279	stable	8	200	79	vs	red	blue	blue	red	right	left	0.30000000000000004	0.7	6	6	1.8000000000000005	4.199999999999998	0	1	0.7	0.30000000000000004	6	6	4.199999999999998	1.8000000000000005	valid	1.0830344850000984	51200.0	0	0.0	2.0	51200	1	51200	1	53248	0	0.7	51200	red	blue	1	6	ml	2.7.3	bip	sub-20_ses-02_task-ml_proj-bip_2021-03-30-10-10-04.652610
279	20	2	6	280	stable	8	200	80	vs	blue	red	blue	red	left	right	0.30000000000000004	0.7	2	6	0.6000000000000001	4.199999999999998	0	1	0.30000000000000004	0.7	2	6	0.6000000000000001	4.199999999999998	valid	0.4499024200013082	53248.0	0	1.0	2.0	53248	1	53248	1	53248	1	0.7	53248	red	blue	1	6	ml	2.7.3	bip	sub-20_ses-02_task-ml_proj-bip_2021-03-30-10-10-04.652610
280	20	2	6	281	stable	8	200	81	vs	blue	red	blue	red	left	right	0.30000000000000004	0.7	2	10	0.6000000000000001	7.0	0	1	0.30000000000000004	0.7	2	10	0.6000000000000001	7.0	valid	0.6831714630006899	53248.0	0	1.0	2.0	53248	1	53248	1	53248	1	0.7	53248	red	blue	1	10	ml	2.7.3	bip	sub-20_ses-02_task-ml_proj-bip_2021-03-30-10-10-04.652610
281	20	2	6	282	stable	8	200	82	vs	red	blue	blue	red	right	left	0.30000000000000004	0.7	2	6	0.6000000000000001	4.199999999999998	1	0	0.7	0.30000000000000004	6	2	4.199999999999998	0.6000000000000001	invalid	2.9824792319996045	nan	1	nan	nan	51200	0	51200	0	51200	0	0.7	51200	red	blue	1	0	ml	2.7.3	bip	sub-20_ses-02_task-ml_proj-bip_2021-03-30-10-10-04.652610
282	20	2	6	283	stable	8	200	83	vs	blue	red	blue	red	left	right	0.30000000000000004	0.7	2	4	0.6000000000000001	2.8	0	1	0.30000000000000004	0.7	2	4	0.6000000000000001	2.8	valid	0.41659192699989933	53248.0	0	1.0	2.0	53248	1	53248	1	53248	1	0.7	53248	red	blue	1	4	ml	2.7.3	bip	sub-20_ses-02_task-ml_proj-bip_2021-03-30-10-10-04.652610
283	20	2	6	284	stable	8	200	84	vs	red	blue	blue	red	right	left	0.30000000000000004	0.7	4	2	1.2000000000000002	1.4	0	1	0.7	0.30000000000000004	2	4	1.4	1.2000000000000002	valid	0.9664027510007144	51200.0	0	0.0	2.0	51200	1	51200	1	53248	0	0.7	51200	red	blue	0	2	ml	2.7.3	bip	sub-20_ses-02_task-ml_proj-bip_2021-03-30-10-10-04.652610
284	20	2	6	285	stable	8	200	85	vs	blue	red	blue	red	left	right	0.30000000000000004	0.7	2	6	0.6000000000000001	4.199999999999998	0	1	0.30000000000000004	0.7	2	6	0.6000000000000001	4.199999999999998	valid	0.3832552830008353	53248.0	0	1.0	2.0	53248	1	53248	1	53248	1	0.7	53248	red	blue	1	6	ml	2.7.3	bip	sub-20_ses-02_task-ml_proj-bip_2021-03-30-10-10-04.652610
285	20	2	6	286	stable	8	200	86	vs	red	blue	blue	red	right	left	0.30000000000000004	0.7	2	10	0.6000000000000001	7.0	0	1	0.7	0.30000000000000004	10	2	7.0	0.6000000000000001	valid	0.6831550690003496	51200.0	0	0.0	2.0	51200	1	51200	1	51200	1	0.7	51200	red	blue	1	10	ml	2.7.3	bip	sub-20_ses-02_task-ml_proj-bip_2021-03-30-10-10-04.652610
286	20	2	6	287	stable	8	200	87	vs	red	blue	blue	red	right	left	0.30000000000000004	0.7	2	6	0.6000000000000001	4.199999999999998	1	0	0.7	0.30000000000000004	6	2	4.199999999999998	0.6000000000000001	invalid	1.482924190000631	53248.0	0	1.0	1.0	51200	0	51200	0	51200	0	0.7	51200	red	blue	1	2	ml	2.7.3	bip	sub-20_ses-02_task-ml_proj-bip_2021-03-30-10-10-04.652610
287	20	2	6	288	stable	8	200	88	vs	blue	red	blue	red	left	right	0.30000000000000004	0.7	6	4	1.8000000000000005	2.8	0	1	0.30000000000000004	0.7	6	4	1.8000000000000005	2.8	valid	0.4665527319993998	51200.0	0	0.0	1.0	53248	0	53248	0	51200	1	0.7	53248	red	blue	0	0	ml	2.7.3	bip	sub-20_ses-02_task-ml_proj-bip_2021-03-30-10-10-04.652610
288	20	2	6	289	stable	8	200	89	vs	red	blue	blue	red	right	left	0.30000000000000004	0.7	4	2	1.2000000000000002	1.4	0	1	0.7	0.30000000000000004	2	4	1.4	1.2000000000000002	valid	0.4332411110008252	53248.0	0	1.0	1.0	51200	0	51200	0	53248	1	0.7	51200	red	blue	0	0	ml	2.7.3	bip	sub-20_ses-02_task-ml_proj-bip_2021-03-30-10-10-04.652610
289	20	2	6	290	stable	8	200	90	vs	red	blue	blue	red	right	left	0.30000000000000004	0.7	6	2	1.8000000000000005	1.4	0	1	0.7	0.30000000000000004	2	6	1.4	1.8000000000000005	valid	2.9824768680009583	nan	1	nan	nan	53248	0	51200	0	53248	0	0.7	51200	red	blue	0	0	ml	2.7.3	bip	sub-20_ses-02_task-ml_proj-bip_2021-03-30-10-10-04.652610
290	20	2	6	291	stable	8	200	91	vs	red	blue	blue	red	right	left	0.30000000000000004	0.7	6	6	1.8000000000000005	4.199999999999998	1	0	0.7	0.30000000000000004	6	6	4.199999999999998	1.8000000000000005	invalid	0.6664907310005219	51200.0	0	0.0	2.0	51200	1	51200	1	53248	0	0.7	51200	red	blue	1	0	ml	2.7.3	bip	sub-20_ses-02_task-ml_proj-bip_2021-03-30-10-10-04.652610
291	20	2	6	292	stable	8	200	92	vs	blue	red	blue	red	left	right	0.30000000000000004	0.7	2	4	0.6000000000000001	2.8	0	1	0.30000000000000004	0.7	2	4	0.6000000000000001	2.8	valid	0.3999109229989699	53248.0	0	1.0	2.0	53248	1	53248	1	53248	1	0.7	53248	red	blue	1	4	ml	2.7.3	bip	sub-20_ses-02_task-ml_proj-bip_2021-03-30-10-10-04.652610
292	20	2	6	293	stable	8	200	93	vs	red	blue	blue	red	right	left	0.30000000000000004	0.7	10	2	3.0000000000000004	1.4	0	1	0.7	0.30000000000000004	2	10	1.4	3.0000000000000004	valid	0.5332043260004866	51200.0	0	0.0	2.0	53248	0	51200	1	53248	0	0.7	51200	red	blue	0	2	ml	2.7.3	bip	sub-20_ses-02_task-ml_proj-bip_2021-03-30-10-10-04.652610
