Unnamed: 0	sub_id	ses_id	block_no	trial_no	phase_type	phase_no	phase_length	trialInPhase_no	phase_type_order	color_left	color_right	color1	color2	position1	position2	prob1	prob2	mag1	mag2	ev1	ev2	outcome1	outcome2	prob_left	prob_right	mag_left	mag_right	ev_left	ev_right	reward_validity	resp_time	resp_key	timeout	choice_side	choice	ev_corr_resp	ev_correct	prob_corr_resp	prob_correct	mag_corr_resp	mag_correct	high_prob	high_prob_side	high_prob_color	low_prob_color	no_brain	reward	name	version	proj_id	logFileID
0	8	2	1	1	stable	1	200	1	sv	turquoise	purple	purple	turquoise	right	left	0.7	0.30000000000000004	4	6	2.8	1.8000000000000005	1	0	0.30000000000000004	0.7	6	4	1.8000000000000005	2.8	valid	0.7331654500012519	53248.0	0	1.0	1.0	53248	1	53248	1	51200	0	0.7	53248	purple	turquoise	0	4	ml	2.7.3	lorasick	sub-08_ses-02_task-ml_proj-lorasick_2021-01-19-14-11-04.109341
1	8	2	1	2	stable	1	200	2	sv	turquoise	purple	purple	turquoise	right	left	0.7	0.30000000000000004	2	4	1.4	1.2000000000000002	1	0	0.30000000000000004	0.7	4	2	1.2000000000000002	1.4	valid	1.0664022490018397	53248.0	0	1.0	1.0	53248	1	53248	1	51200	0	0.7	53248	purple	turquoise	0	2	ml	2.7.3	lorasick	sub-08_ses-02_task-ml_proj-lorasick_2021-01-19-14-11-04.109341
2	8	2	1	3	stable	1	200	3	sv	purple	turquoise	purple	turquoise	left	right	0.7	0.30000000000000004	2	6	1.4	1.8000000000000005	1	0	0.7	0.30000000000000004	2	6	1.4	1.8000000000000005	valid	0.9330905719980364	51200.0	0	0.0	1.0	53248	0	51200	1	53248	0	0.7	51200	purple	turquoise	0	2	ml	2.7.3	lorasick	sub-08_ses-02_task-ml_proj-lorasick_2021-01-19-14-11-04.109341
3	8	2	1	4	stable	1	200	4	sv	purple	turquoise	purple	turquoise	left	right	0.7	0.30000000000000004	10	2	7.0	0.6000000000000001	1	0	0.7	0.30000000000000004	10	2	7.0	0.6000000000000001	valid	0.8997604030009825	51200.0	0	0.0	1.0	51200	1	51200	1	51200	1	0.7	51200	purple	turquoise	1	10	ml	2.7.3	lorasick	sub-08_ses-02_task-ml_proj-lorasick_2021-01-19-14-11-04.109341
4	8	2	1	5	stable	1	200	5	sv	purple	turquoise	purple	turquoise	left	right	0.7	0.30000000000000004	6	4	4.199999999999998	1.2000000000000002	1	0	0.7	0.30000000000000004	6	4	4.199999999999998	1.2000000000000002	valid	0.583189749999292	51200.0	0	0.0	1.0	51200	1	51200	1	51200	1	0.7	51200	purple	turquoise	1	6	ml	2.7.3	lorasick	sub-08_ses-02_task-ml_proj-lorasick_2021-01-19-14-11-04.109341
5	8	2	1	6	stable	1	200	6	sv	purple	turquoise	purple	turquoise	left	right	0.7	0.30000000000000004	2	4	1.4	1.2000000000000002	1	0	0.7	0.30000000000000004	2	4	1.4	1.2000000000000002	valid	0.6498379430013301	51200.0	0	0.0	1.0	51200	1	51200	1	53248	0	0.7	51200	purple	turquoise	0	2	ml	2.7.3	lorasick	sub-08_ses-02_task-ml_proj-lorasick_2021-01-19-14-11-04.109341
6	8	2	1	7	stable	1	200	7	sv	purple	turquoise	purple	turquoise	left	right	0.7	0.30000000000000004	6	2	4.199999999999998	0.6000000000000001	1	0	0.7	0.30000000000000004	6	2	4.199999999999998	0.6000000000000001	valid	0.9330918480009132	51200.0	0	0.0	1.0	51200	1	51200	1	51200	1	0.7	51200	purple	turquoise	1	6	ml	2.7.3	lorasick	sub-08_ses-02_task-ml_proj-lorasick_2021-01-19-14-11-04.109341
7	8	2	1	8	stable	1	200	8	sv	purple	turquoise	purple	turquoise	left	right	0.7	0.30000000000000004	6	6	4.199999999999998	1.8000000000000005	1	0	0.7	0.30000000000000004	6	6	4.199999999999998	1.8000000000000005	valid	0.6331772649973573	51200.0	0	0.0	1.0	51200	1	51200	1	53248	0	0.7	51200	purple	turquoise	1	6	ml	2.7.3	lorasick	sub-08_ses-02_task-ml_proj-lorasick_2021-01-19-14-11-04.109341
8	8	2	1	9	stable	1	200	9	sv	purple	turquoise	purple	turquoise	left	right	0.7	0.30000000000000004	2	4	1.4	1.2000000000000002	1	0	0.7	0.30000000000000004	2	4	1.4	1.2000000000000002	valid	0.6331763989983301	51200.0	0	0.0	1.0	51200	1	51200	1	53248	0	0.7	51200	purple	turquoise	0	2	ml	2.7.3	lorasick	sub-08_ses-02_task-ml_proj-lorasick_2021-01-19-14-11-04.109341
9	8	2	1	10	stable	1	200	10	sv	purple	turquoise	purple	turquoise	left	right	0.7	0.30000000000000004	2	10	1.4	3.0000000000000004	1	0	0.7	0.30000000000000004	2	10	1.4	3.0000000000000004	valid	0.3832498340016173	51200.0	0	0.0	1.0	53248	0	51200	1	53248	0	0.7	51200	purple	turquoise	0	2	ml	2.7.3	lorasick	sub-08_ses-02_task-ml_proj-lorasick_2021-01-19-14-11-04.109341
10	8	2	1	11	stable	1	200	11	sv	purple	turquoise	purple	turquoise	left	right	0.7	0.30000000000000004	6	6	4.199999999999998	1.8000000000000005	1	0	0.7	0.30000000000000004	6	6	4.199999999999998	1.8000000000000005	valid	0.6664995489991271	51200.0	0	0.0	1.0	51200	1	51200	1	53248	0	0.7	51200	purple	turquoise	1	6	ml	2.7.3	lorasick	sub-08_ses-02_task-ml_proj-lorasick_2021-01-19-14-11-04.109341
11	8	2	1	12	stable	1	200	12	sv	turquoise	purple	purple	turquoise	right	left	0.7	0.30000000000000004	2	2	1.4	0.6000000000000001	1	0	0.30000000000000004	0.7	2	2	0.6000000000000001	1.4	valid	1.1830273300001863	53248.0	0	1.0	1.0	53248	1	53248	1	53248	1	0.7	53248	purple	turquoise	0	2	ml	2.7.3	lorasick	sub-08_ses-02_task-ml_proj-lorasick_2021-01-19-14-11-04.109341
12	8	2	1	13	stable	1	200	13	sv	purple	turquoise	purple	turquoise	left	right	0.7	0.30000000000000004	4	2	2.8	0.6000000000000001	0	1	0.7	0.30000000000000004	4	2	2.8	0.6000000000000001	invalid	0.4998796830004722	51200.0	0	0.0	1.0	51200	1	51200	1	51200	1	0.7	51200	purple	turquoise	1	0	ml	2.7.3	lorasick	sub-08_ses-02_task-ml_proj-lorasick_2021-01-19-14-11-04.109341
13	8	2	1	14	stable	1	200	14	sv	turquoise	purple	purple	turquoise	right	left	0.7	0.30000000000000004	6	6	4.199999999999998	1.8000000000000005	0	1	0.30000000000000004	0.7	6	6	1.8000000000000005	4.199999999999998	invalid	0.9830739580029332	51200.0	0	0.0	2.0	53248	0	53248	0	53248	0	0.7	53248	purple	turquoise	0	6	ml	2.7.3	lorasick	sub-08_ses-02_task-ml_proj-lorasick_2021-01-19-14-11-04.109341
14	8	2	1	15	stable	1	200	15	sv	purple	turquoise	purple	turquoise	left	right	0.7	0.30000000000000004	4	6	2.8	1.8000000000000005	1	0	0.7	0.30000000000000004	4	6	2.8	1.8000000000000005	valid	0.4665673970011994	53248.0	0	1.0	2.0	51200	0	51200	0	53248	1	0.7	51200	purple	turquoise	0	0	ml	2.7.3	lorasick	sub-08_ses-02_task-ml_proj-lorasick_2021-01-19-14-11-04.109341
15	8	2	1	16	stable	1	200	16	sv	purple	turquoise	purple	turquoise	left	right	0.7	0.30000000000000004	2	10	1.4	3.0000000000000004	0	1	0.7	0.30000000000000004	2	10	1.4	3.0000000000000004	invalid	0.6998238800006221	51200.0	0	0.0	1.0	53248	0	51200	1	53248	0	0.7	51200	purple	turquoise	0	0	ml	2.7.3	lorasick	sub-08_ses-02_task-ml_proj-lorasick_2021-01-19-14-11-04.109341
16	8	2	1	17	stable	1	200	17	sv	purple	turquoise	purple	turquoise	left	right	0.7	0.30000000000000004	2	6	1.4	1.8000000000000005	1	0	0.7	0.30000000000000004	2	6	1.4	1.8000000000000005	valid	0.48323808799978	53248.0	0	1.0	2.0	53248	1	51200	0	53248	1	0.7	51200	purple	turquoise	0	0	ml	2.7.3	lorasick	sub-08_ses-02_task-ml_proj-lorasick_2021-01-19-14-11-04.109341
17	8	2	1	18	stable	1	200	18	sv	turquoise	purple	purple	turquoise	right	left	0.7	0.30000000000000004	6	2	4.199999999999998	0.6000000000000001	1	0	0.30000000000000004	0.7	2	6	0.6000000000000001	4.199999999999998	valid	0.8664654860003793	53248.0	0	1.0	1.0	53248	1	53248	1	53248	1	0.7	53248	purple	turquoise	1	6	ml	2.7.3	lorasick	sub-08_ses-02_task-ml_proj-lorasick_2021-01-19-14-11-04.109341
18	8	2	1	19	stable	1	200	19	sv	purple	turquoise	purple	turquoise	left	right	0.7	0.30000000000000004	4	6	2.8	1.8000000000000005	1	0	0.7	0.30000000000000004	4	6	2.8	1.8000000000000005	valid	0.4498951850000594	51200.0	0	0.0	1.0	51200	1	51200	1	53248	0	0.7	51200	purple	turquoise	0	4	ml	2.7.3	lorasick	sub-08_ses-02_task-ml_proj-lorasick_2021-01-19-14-11-04.109341
19	8	2	1	20	stable	1	200	20	sv	turquoise	purple	purple	turquoise	right	left	0.7	0.30000000000000004	2	2	1.4	0.6000000000000001	0	1	0.30000000000000004	0.7	2	2	0.6000000000000001	1.4	invalid	0.5998565360023349	53248.0	0	1.0	1.0	53248	1	53248	1	53248	1	0.7	53248	purple	turquoise	0	0	ml	2.7.3	lorasick	sub-08_ses-02_task-ml_proj-lorasick_2021-01-19-14-11-04.109341
20	8	2	1	21	stable	1	200	21	sv	turquoise	purple	purple	turquoise	right	left	0.7	0.30000000000000004	2	4	1.4	1.2000000000000002	1	0	0.30000000000000004	0.7	4	2	1.2000000000000002	1.4	valid	0.5998686900020402	53248.0	0	1.0	1.0	53248	1	53248	1	51200	0	0.7	53248	purple	turquoise	0	2	ml	2.7.3	lorasick	sub-08_ses-02_task-ml_proj-lorasick_2021-01-19-14-11-04.109341
21	8	2	1	22	stable	1	200	22	sv	turquoise	purple	purple	turquoise	right	left	0.7	0.30000000000000004	4	2	2.8	0.6000000000000001	1	0	0.30000000000000004	0.7	2	4	0.6000000000000001	2.8	valid	0.3832593520019145	53248.0	0	1.0	1.0	53248	1	53248	1	53248	1	0.7	53248	purple	turquoise	1	4	ml	2.7.3	lorasick	sub-08_ses-02_task-ml_proj-lorasick_2021-01-19-14-11-04.109341
22	8	2	1	23	stable	1	200	23	sv	purple	turquoise	purple	turquoise	left	right	0.7	0.30000000000000004	4	2	2.8	0.6000000000000001	0	1	0.7	0.30000000000000004	4	2	2.8	0.6000000000000001	invalid	0.7665222329997049	51200.0	0	0.0	1.0	51200	1	51200	1	51200	1	0.7	51200	purple	turquoise	1	0	ml	2.7.3	lorasick	sub-08_ses-02_task-ml_proj-lorasick_2021-01-19-14-11-04.109341
23	8	2	1	24	stable	1	200	24	sv	turquoise	purple	purple	turquoise	right	left	0.7	0.30000000000000004	2	10	1.4	3.0000000000000004	1	0	0.30000000000000004	0.7	10	2	3.0000000000000004	1.4	valid	0.6331868559973373	53248.0	0	1.0	1.0	51200	0	53248	1	51200	0	0.7	53248	purple	turquoise	0	2	ml	2.7.3	lorasick	sub-08_ses-02_task-ml_proj-lorasick_2021-01-19-14-11-04.109341
24	8	2	1	25	stable	1	200	25	sv	turquoise	purple	purple	turquoise	right	left	0.7	0.30000000000000004	2	6	1.4	1.8000000000000005	1	0	0.30000000000000004	0.7	6	2	1.8000000000000005	1.4	valid	0.4832309060002444	53248.0	0	1.0	1.0	51200	0	53248	1	51200	0	0.7	53248	purple	turquoise	0	2	ml	2.7.3	lorasick	sub-08_ses-02_task-ml_proj-lorasick_2021-01-19-14-11-04.109341
25	8	2	1	26	stable	1	200	26	sv	purple	turquoise	purple	turquoise	left	right	0.7	0.30000000000000004	4	2	2.8	0.6000000000000001	0	1	0.7	0.30000000000000004	4	2	2.8	0.6000000000000001	invalid	0.5165399529978458	51200.0	0	0.0	1.0	51200	1	51200	1	51200	1	0.7	51200	purple	turquoise	1	0	ml	2.7.3	lorasick	sub-08_ses-02_task-ml_proj-lorasick_2021-01-19-14-11-04.109341
26	8	2	1	27	stable	1	200	27	sv	purple	turquoise	purple	turquoise	left	right	0.7	0.30000000000000004	2	6	1.4	1.8000000000000005	1	0	0.7	0.30000000000000004	2	6	1.4	1.8000000000000005	valid	0.8497889299978851	53248.0	0	1.0	2.0	53248	1	51200	0	53248	1	0.7	51200	purple	turquoise	0	0	ml	2.7.3	lorasick	sub-08_ses-02_task-ml_proj-lorasick_2021-01-19-14-11-04.109341
27	8	2	1	28	stable	1	200	28	sv	turquoise	purple	purple	turquoise	right	left	0.7	0.30000000000000004	6	4	4.199999999999998	1.2000000000000002	1	0	0.30000000000000004	0.7	4	6	1.2000000000000002	4.199999999999998	valid	0.6165136720010196	51200.0	0	0.0	2.0	53248	0	53248	0	53248	0	0.7	53248	purple	turquoise	1	0	ml	2.7.3	lorasick	sub-08_ses-02_task-ml_proj-lorasick_2021-01-19-14-11-04.109341
28	8	2	1	29	stable	1	200	29	sv	turquoise	purple	purple	turquoise	right	left	0.7	0.30000000000000004	2	6	1.4	1.8000000000000005	1	0	0.30000000000000004	0.7	6	2	1.8000000000000005	1.4	valid	0.5498810480021348	53248.0	0	1.0	1.0	51200	0	53248	1	51200	0	0.7	53248	purple	turquoise	0	2	ml	2.7.3	lorasick	sub-08_ses-02_task-ml_proj-lorasick_2021-01-19-14-11-04.109341
29	8	2	1	30	stable	1	200	30	sv	turquoise	purple	purple	turquoise	right	left	0.7	0.30000000000000004	6	2	4.199999999999998	0.6000000000000001	1	0	0.30000000000000004	0.7	2	6	0.6000000000000001	4.199999999999998	valid	0.5998617820005165	53248.0	0	1.0	1.0	53248	1	53248	1	53248	1	0.7	53248	purple	turquoise	1	6	ml	2.7.3	lorasick	sub-08_ses-02_task-ml_proj-lorasick_2021-01-19-14-11-04.109341
30	8	2	1	31	stable	1	200	31	sv	turquoise	purple	purple	turquoise	right	left	0.7	0.30000000000000004	2	6	1.4	1.8000000000000005	1	0	0.30000000000000004	0.7	6	2	1.8000000000000005	1.4	valid	1.2829811810006504	51200.0	0	0.0	2.0	51200	1	53248	0	51200	1	0.7	53248	purple	turquoise	0	0	ml	2.7.3	lorasick	sub-08_ses-02_task-ml_proj-lorasick_2021-01-19-14-11-04.109341
31	8	2	1	32	stable	1	200	32	sv	turquoise	purple	purple	turquoise	right	left	0.7	0.30000000000000004	6	6	4.199999999999998	1.8000000000000005	1	0	0.30000000000000004	0.7	6	6	1.8000000000000005	4.199999999999998	valid	0.5165537070024584	53248.0	0	1.0	1.0	53248	1	53248	1	53248	1	0.7	53248	purple	turquoise	0	6	ml	2.7.3	lorasick	sub-08_ses-02_task-ml_proj-lorasick_2021-01-19-14-11-04.109341
32	8	2	1	33	stable	1	200	33	sv	purple	turquoise	purple	turquoise	left	right	0.7	0.30000000000000004	6	6	4.199999999999998	1.8000000000000005	1	0	0.7	0.30000000000000004	6	6	4.199999999999998	1.8000000000000005	valid	0.4665581040026154	51200.0	0	0.0	1.0	51200	1	51200	1	53248	0	0.7	51200	purple	turquoise	1	6	ml	2.7.3	lorasick	sub-08_ses-02_task-ml_proj-lorasick_2021-01-19-14-11-04.109341
33	8	2	1	34	stable	1	200	34	sv	turquoise	purple	purple	turquoise	right	left	0.7	0.30000000000000004	4	6	2.8	1.8000000000000005	0	1	0.30000000000000004	0.7	6	4	1.8000000000000005	2.8	invalid	0.7164945039985469	53248.0	0	1.0	1.0	53248	1	53248	1	51200	0	0.7	53248	purple	turquoise	0	0	ml	2.7.3	lorasick	sub-08_ses-02_task-ml_proj-lorasick_2021-01-19-14-11-04.109341
34	8	2	1	35	stable	1	200	35	sv	purple	turquoise	purple	turquoise	left	right	0.7	0.30000000000000004	10	2	7.0	0.6000000000000001	1	0	0.7	0.30000000000000004	10	2	7.0	0.6000000000000001	valid	0.4332425520005927	51200.0	0	0.0	1.0	51200	1	51200	1	51200	1	0.7	51200	purple	turquoise	1	10	ml	2.7.3	lorasick	sub-08_ses-02_task-ml_proj-lorasick_2021-01-19-14-11-04.109341
35	8	2	1	36	stable	1	200	36	sv	turquoise	purple	purple	turquoise	right	left	0.7	0.30000000000000004	2	4	1.4	1.2000000000000002	0	1	0.30000000000000004	0.7	4	2	1.2000000000000002	1.4	invalid	0.6831723680006689	53248.0	0	1.0	1.0	53248	1	53248	1	51200	0	0.7	53248	purple	turquoise	0	0	ml	2.7.3	lorasick	sub-08_ses-02_task-ml_proj-lorasick_2021-01-19-14-11-04.109341
36	8	2	1	37	stable	1	200	37	sv	turquoise	purple	purple	turquoise	right	left	0.7	0.30000000000000004	6	2	4.199999999999998	0.6000000000000001	0	1	0.30000000000000004	0.7	2	6	0.6000000000000001	4.199999999999998	invalid	0.7331565360000241	53248.0	0	1.0	1.0	53248	1	53248	1	53248	1	0.7	53248	purple	turquoise	1	0	ml	2.7.3	lorasick	sub-08_ses-02_task-ml_proj-lorasick_2021-01-19-14-11-04.109341
37	8	2	1	38	stable	1	200	38	sv	turquoise	purple	purple	turquoise	right	left	0.7	0.30000000000000004	2	10	1.4	3.0000000000000004	0	1	0.30000000000000004	0.7	10	2	3.0000000000000004	1.4	invalid	0.7164846189989476	51200.0	0	0.0	2.0	51200	1	53248	0	51200	1	0.7	53248	purple	turquoise	0	10	ml	2.7.3	lorasick	sub-08_ses-02_task-ml_proj-lorasick_2021-01-19-14-11-04.109341
38	8	2	1	39	stable	1	200	39	sv	purple	turquoise	purple	turquoise	left	right	0.7	0.30000000000000004	2	4	1.4	1.2000000000000002	0	1	0.7	0.30000000000000004	2	4	1.4	1.2000000000000002	invalid	0.5832004920011968	53248.0	0	1.0	2.0	51200	0	51200	0	53248	1	0.7	51200	purple	turquoise	0	4	ml	2.7.3	lorasick	sub-08_ses-02_task-ml_proj-lorasick_2021-01-19-14-11-04.109341
39	8	2	1	40	stable	1	200	40	sv	purple	turquoise	purple	turquoise	left	right	0.7	0.30000000000000004	6	6	4.199999999999998	1.8000000000000005	1	0	0.7	0.30000000000000004	6	6	4.199999999999998	1.8000000000000005	valid	0.9830840329996136	53248.0	0	1.0	2.0	51200	0	51200	0	53248	1	0.7	51200	purple	turquoise	1	0	ml	2.7.3	lorasick	sub-08_ses-02_task-ml_proj-lorasick_2021-01-19-14-11-04.109341
40	8	2	1	41	stable	1	200	41	sv	purple	turquoise	purple	turquoise	left	right	0.7	0.30000000000000004	2	4	1.4	1.2000000000000002	1	0	0.7	0.30000000000000004	2	4	1.4	1.2000000000000002	valid	0.566534801000671	51200.0	0	0.0	1.0	51200	1	51200	1	53248	0	0.7	51200	purple	turquoise	0	2	ml	2.7.3	lorasick	sub-08_ses-02_task-ml_proj-lorasick_2021-01-19-14-11-04.109341
41	8	2	1	42	stable	1	200	42	sv	purple	turquoise	purple	turquoise	left	right	0.7	0.30000000000000004	4	6	2.8	1.8000000000000005	1	0	0.7	0.30000000000000004	4	6	2.8	1.8000000000000005	valid	0.5665432189998683	53248.0	0	1.0	2.0	51200	0	51200	0	53248	1	0.7	51200	purple	turquoise	0	0	ml	2.7.3	lorasick	sub-08_ses-02_task-ml_proj-lorasick_2021-01-19-14-11-04.109341
42	8	2	1	43	stable	1	200	43	sv	purple	turquoise	purple	turquoise	left	right	0.7	0.30000000000000004	4	6	2.8	1.8000000000000005	0	1	0.7	0.30000000000000004	4	6	2.8	1.8000000000000005	invalid	0.4332381300009729	51200.0	0	0.0	1.0	51200	1	51200	1	53248	0	0.7	51200	purple	turquoise	0	0	ml	2.7.3	lorasick	sub-08_ses-02_task-ml_proj-lorasick_2021-01-19-14-11-04.109341
43	8	2	1	44	stable	1	200	44	sv	turquoise	purple	purple	turquoise	right	left	0.7	0.30000000000000004	2	10	1.4	3.0000000000000004	1	0	0.30000000000000004	0.7	10	2	3.0000000000000004	1.4	valid	0.7331458439984999	51200.0	0	0.0	2.0	51200	1	53248	0	51200	1	0.7	53248	purple	turquoise	0	0	ml	2.7.3	lorasick	sub-08_ses-02_task-ml_proj-lorasick_2021-01-19-14-11-04.109341
44	8	2	1	45	stable	1	200	45	sv	turquoise	purple	purple	turquoise	right	left	0.7	0.30000000000000004	10	2	7.0	0.6000000000000001	1	0	0.30000000000000004	0.7	2	10	0.6000000000000001	7.0	valid	0.533214704002603	53248.0	0	1.0	1.0	53248	1	53248	1	53248	1	0.7	53248	purple	turquoise	1	10	ml	2.7.3	lorasick	sub-08_ses-02_task-ml_proj-lorasick_2021-01-19-14-11-04.109341
45	8	2	1	46	stable	1	200	46	sv	purple	turquoise	purple	turquoise	left	right	0.7	0.30000000000000004	4	6	2.8	1.8000000000000005	1	0	0.7	0.30000000000000004	4	6	2.8	1.8000000000000005	valid	0.5165404979998129	51200.0	0	0.0	1.0	51200	1	51200	1	53248	0	0.7	51200	purple	turquoise	0	4	ml	2.7.3	lorasick	sub-08_ses-02_task-ml_proj-lorasick_2021-01-19-14-11-04.109341
46	8	2	1	47	stable	1	200	47	sv	purple	turquoise	purple	turquoise	left	right	0.7	0.30000000000000004	10	2	7.0	0.6000000000000001	0	1	0.7	0.30000000000000004	10	2	7.0	0.6000000000000001	invalid	0.6998229529999662	51200.0	0	0.0	1.0	51200	1	51200	1	51200	1	0.7	51200	purple	turquoise	1	0	ml	2.7.3	lorasick	sub-08_ses-02_task-ml_proj-lorasick_2021-01-19-14-11-04.109341
47	8	2	1	48	stable	1	200	48	sv	purple	turquoise	purple	turquoise	left	right	0.7	0.30000000000000004	6	2	4.199999999999998	0.6000000000000001	1	0	0.7	0.30000000000000004	6	2	4.199999999999998	0.6000000000000001	valid	0.7164964260009583	53248.0	0	1.0	2.0	51200	0	51200	0	51200	0	0.7	51200	purple	turquoise	1	0	ml	2.7.3	lorasick	sub-08_ses-02_task-ml_proj-lorasick_2021-01-19-14-11-04.109341
48	8	2	1	49	stable	1	200	49	sv	turquoise	purple	purple	turquoise	right	left	0.7	0.30000000000000004	10	2	7.0	0.6000000000000001	1	0	0.30000000000000004	0.7	2	10	0.6000000000000001	7.0	valid	1.1163863750007297	53248.0	0	1.0	1.0	53248	1	53248	1	53248	1	0.7	53248	purple	turquoise	1	10	ml	2.7.3	lorasick	sub-08_ses-02_task-ml_proj-lorasick_2021-01-19-14-11-04.109341
49	8	2	1	50	stable	1	200	50	sv	purple	turquoise	purple	turquoise	left	right	0.7	0.30000000000000004	2	4	1.4	1.2000000000000002	1	0	0.7	0.30000000000000004	2	4	1.4	1.2000000000000002	valid	0.7664679740009888	51200.0	0	0.0	1.0	51200	1	51200	1	53248	0	0.7	51200	purple	turquoise	0	2	ml	2.7.3	lorasick	sub-08_ses-02_task-ml_proj-lorasick_2021-01-19-14-11-04.109341
50	8	2	2	51	stable	1	200	51	sv	turquoise	purple	purple	turquoise	right	left	0.7	0.30000000000000004	2	6	1.4	1.8000000000000005	0	1	0.30000000000000004	0.7	6	2	1.8000000000000005	1.4	invalid	0.6998082799982512	51200.0	0	0.0	2.0	51200	1	53248	0	51200	1	0.7	53248	purple	turquoise	0	6	ml	2.7.3	lorasick	sub-08_ses-02_task-ml_proj-lorasick_2021-01-19-14-11-04.109341
51	8	2	2	52	stable	1	200	52	sv	turquoise	purple	purple	turquoise	right	left	0.7	0.30000000000000004	6	4	4.199999999999998	1.2000000000000002	1	0	0.30000000000000004	0.7	4	6	1.2000000000000002	4.199999999999998	valid	0.7498086779996811	51200.0	0	0.0	2.0	53248	0	53248	0	53248	0	0.7	53248	purple	turquoise	1	0	ml	2.7.3	lorasick	sub-08_ses-02_task-ml_proj-lorasick_2021-01-19-14-11-04.109341
52	8	2	2	53	stable	1	200	53	sv	purple	turquoise	purple	turquoise	left	right	0.7	0.30000000000000004	2	10	1.4	3.0000000000000004	1	0	0.7	0.30000000000000004	2	10	1.4	3.0000000000000004	valid	0.783140507999633	53248.0	0	1.0	2.0	53248	1	51200	0	53248	1	0.7	51200	purple	turquoise	0	0	ml	2.7.3	lorasick	sub-08_ses-02_task-ml_proj-lorasick_2021-01-19-14-11-04.109341
53	8	2	2	54	stable	1	200	54	sv	purple	turquoise	purple	turquoise	left	right	0.7	0.30000000000000004	6	4	4.199999999999998	1.2000000000000002	0	1	0.7	0.30000000000000004	6	4	4.199999999999998	1.2000000000000002	invalid	0.6498446260011406	51200.0	0	0.0	1.0	51200	1	51200	1	51200	1	0.7	51200	purple	turquoise	1	0	ml	2.7.3	lorasick	sub-08_ses-02_task-ml_proj-lorasick_2021-01-19-14-11-04.109341
54	8	2	2	55	stable	1	200	55	sv	turquoise	purple	purple	turquoise	right	left	0.7	0.30000000000000004	6	4	4.199999999999998	1.2000000000000002	1	0	0.30000000000000004	0.7	4	6	1.2000000000000002	4.199999999999998	valid	0.4332502120014397	53248.0	0	1.0	1.0	53248	1	53248	1	53248	1	0.7	53248	purple	turquoise	1	6	ml	2.7.3	lorasick	sub-08_ses-02_task-ml_proj-lorasick_2021-01-19-14-11-04.109341
55	8	2	2	56	stable	1	200	56	sv	turquoise	purple	purple	turquoise	right	left	0.7	0.30000000000000004	10	2	7.0	0.6000000000000001	0	1	0.30000000000000004	0.7	2	10	0.6000000000000001	7.0	invalid	0.6165257270004076	53248.0	0	1.0	1.0	53248	1	53248	1	53248	1	0.7	53248	purple	turquoise	1	0	ml	2.7.3	lorasick	sub-08_ses-02_task-ml_proj-lorasick_2021-01-19-14-11-04.109341
56	8	2	2	57	stable	1	200	57	sv	turquoise	purple	purple	turquoise	right	left	0.7	0.30000000000000004	10	2	7.0	0.6000000000000001	1	0	0.30000000000000004	0.7	2	10	0.6000000000000001	7.0	valid	0.5498667300016677	51200.0	0	0.0	2.0	53248	0	53248	0	53248	0	0.7	53248	purple	turquoise	1	0	ml	2.7.3	lorasick	sub-08_ses-02_task-ml_proj-lorasick_2021-01-19-14-11-04.109341
57	8	2	2	58	stable	1	200	58	sv	purple	turquoise	purple	turquoise	left	right	0.7	0.30000000000000004	10	2	7.0	0.6000000000000001	1	0	0.7	0.30000000000000004	10	2	7.0	0.6000000000000001	valid	0.5998632909977459	53248.0	0	1.0	2.0	51200	0	51200	0	51200	0	0.7	51200	purple	turquoise	1	0	ml	2.7.3	lorasick	sub-08_ses-02_task-ml_proj-lorasick_2021-01-19-14-11-04.109341
58	8	2	2	59	stable	1	200	59	sv	purple	turquoise	purple	turquoise	left	right	0.7	0.30000000000000004	2	2	1.4	0.6000000000000001	0	1	0.7	0.30000000000000004	2	2	1.4	0.6000000000000001	invalid	0.4498965830025554	51200.0	0	0.0	1.0	51200	1	51200	1	53248	0	0.7	51200	purple	turquoise	1	0	ml	2.7.3	lorasick	sub-08_ses-02_task-ml_proj-lorasick_2021-01-19-14-11-04.109341
59	8	2	2	60	stable	1	200	60	sv	purple	turquoise	purple	turquoise	left	right	0.7	0.30000000000000004	2	2	1.4	0.6000000000000001	1	0	0.7	0.30000000000000004	2	2	1.4	0.6000000000000001	valid	0.38324792999992496	51200.0	0	0.0	1.0	51200	1	51200	1	53248	0	0.7	51200	purple	turquoise	1	2	ml	2.7.3	lorasick	sub-08_ses-02_task-ml_proj-lorasick_2021-01-19-14-11-04.109341
60	8	2	2	61	stable	1	200	61	sv	turquoise	purple	purple	turquoise	right	left	0.7	0.30000000000000004	4	2	2.8	0.6000000000000001	1	0	0.30000000000000004	0.7	2	4	0.6000000000000001	2.8	valid	0.5165520470000047	53248.0	0	1.0	1.0	53248	1	53248	1	53248	1	0.7	53248	purple	turquoise	1	4	ml	2.7.3	lorasick	sub-08_ses-02_task-ml_proj-lorasick_2021-01-19-14-11-04.109341
61	8	2	2	62	stable	1	200	62	sv	turquoise	purple	purple	turquoise	right	left	0.7	0.30000000000000004	4	6	2.8	1.8000000000000005	0	1	0.30000000000000004	0.7	6	4	1.8000000000000005	2.8	invalid	0.5165577219995612	53248.0	0	1.0	1.0	53248	1	53248	1	51200	0	0.7	53248	purple	turquoise	0	0	ml	2.7.3	lorasick	sub-08_ses-02_task-ml_proj-lorasick_2021-01-19-14-11-04.109341
62	8	2	2	63	stable	1	200	63	sv	turquoise	purple	purple	turquoise	right	left	0.7	0.30000000000000004	2	10	1.4	3.0000000000000004	1	0	0.30000000000000004	0.7	10	2	3.0000000000000004	1.4	valid	0.3499328969992348	51200.0	0	0.0	2.0	51200	1	53248	0	51200	1	0.7	53248	purple	turquoise	0	0	ml	2.7.3	lorasick	sub-08_ses-02_task-ml_proj-lorasick_2021-01-19-14-11-04.109341
63	8	2	2	64	stable	1	200	64	sv	purple	turquoise	purple	turquoise	left	right	0.7	0.30000000000000004	6	2	4.199999999999998	0.6000000000000001	1	0	0.7	0.30000000000000004	6	2	4.199999999999998	0.6000000000000001	valid	0.7164892529981444	51200.0	0	0.0	1.0	51200	1	51200	1	51200	1	0.7	51200	purple	turquoise	1	6	ml	2.7.3	lorasick	sub-08_ses-02_task-ml_proj-lorasick_2021-01-19-14-11-04.109341
64	8	2	2	65	stable	1	200	65	sv	purple	turquoise	purple	turquoise	left	right	0.7	0.30000000000000004	10	2	7.0	0.6000000000000001	1	0	0.7	0.30000000000000004	10	2	7.0	0.6000000000000001	valid	0.3832476950010459	51200.0	0	0.0	1.0	51200	1	51200	1	51200	1	0.7	51200	purple	turquoise	1	10	ml	2.7.3	lorasick	sub-08_ses-02_task-ml_proj-lorasick_2021-01-19-14-11-04.109341
65	8	2	2	66	stable	1	200	66	sv	purple	turquoise	purple	turquoise	left	right	0.7	0.30000000000000004	6	4	4.199999999999998	1.2000000000000002	1	0	0.7	0.30000000000000004	6	4	4.199999999999998	1.2000000000000002	valid	0.5665390499998466	53248.0	0	1.0	2.0	51200	0	51200	0	51200	0	0.7	51200	purple	turquoise	1	0	ml	2.7.3	lorasick	sub-08_ses-02_task-ml_proj-lorasick_2021-01-19-14-11-04.109341
66	8	2	2	67	stable	1	200	67	sv	purple	turquoise	purple	turquoise	left	right	0.7	0.30000000000000004	10	2	7.0	0.6000000000000001	0	1	0.7	0.30000000000000004	10	2	7.0	0.6000000000000001	invalid	0.5165408350003418	51200.0	0	0.0	1.0	51200	1	51200	1	51200	1	0.7	51200	purple	turquoise	1	0	ml	2.7.3	lorasick	sub-08_ses-02_task-ml_proj-lorasick_2021-01-19-14-11-04.109341
67	8	2	2	68	stable	1	200	68	sv	turquoise	purple	purple	turquoise	right	left	0.7	0.30000000000000004	2	4	1.4	1.2000000000000002	0	1	0.30000000000000004	0.7	4	2	1.2000000000000002	1.4	invalid	0.6498435469984543	53248.0	0	1.0	1.0	53248	1	53248	1	51200	0	0.7	53248	purple	turquoise	0	0	ml	2.7.3	lorasick	sub-08_ses-02_task-ml_proj-lorasick_2021-01-19-14-11-04.109341
68	8	2	2	69	stable	1	200	69	sv	turquoise	purple	purple	turquoise	right	left	0.7	0.30000000000000004	6	2	4.199999999999998	0.6000000000000001	1	0	0.30000000000000004	0.7	2	6	0.6000000000000001	4.199999999999998	valid	0.6165133469985449	51200.0	0	0.0	2.0	53248	0	53248	0	53248	0	0.7	53248	purple	turquoise	1	0	ml	2.7.3	lorasick	sub-08_ses-02_task-ml_proj-lorasick_2021-01-19-14-11-04.109341
69	8	2	2	70	stable	1	200	70	sv	purple	turquoise	purple	turquoise	left	right	0.7	0.30000000000000004	6	4	4.199999999999998	1.2000000000000002	1	0	0.7	0.30000000000000004	6	4	4.199999999999998	1.2000000000000002	valid	0.5831980740003928	53248.0	0	1.0	2.0	51200	0	51200	0	51200	0	0.7	51200	purple	turquoise	1	0	ml	2.7.3	lorasick	sub-08_ses-02_task-ml_proj-lorasick_2021-01-19-14-11-04.109341
70	8	2	2	71	stable	1	200	71	sv	purple	turquoise	purple	turquoise	left	right	0.7	0.30000000000000004	6	4	4.199999999999998	1.2000000000000002	1	0	0.7	0.30000000000000004	6	4	4.199999999999998	1.2000000000000002	valid	0.7831441800008179	53248.0	0	1.0	2.0	51200	0	51200	0	51200	0	0.7	51200	purple	turquoise	1	0	ml	2.7.3	lorasick	sub-08_ses-02_task-ml_proj-lorasick_2021-01-19-14-11-04.109341
71	8	2	2	72	stable	1	200	72	sv	turquoise	purple	purple	turquoise	right	left	0.7	0.30000000000000004	6	6	4.199999999999998	1.8000000000000005	0	1	0.30000000000000004	0.7	6	6	1.8000000000000005	4.199999999999998	invalid	0.3665868900025089	51200.0	0	0.0	2.0	53248	0	53248	0	53248	0	0.7	53248	purple	turquoise	0	6	ml	2.7.3	lorasick	sub-08_ses-02_task-ml_proj-lorasick_2021-01-19-14-11-04.109341
72	8	2	2	73	stable	1	200	73	sv	turquoise	purple	purple	turquoise	right	left	0.7	0.30000000000000004	6	4	4.199999999999998	1.2000000000000002	0	1	0.30000000000000004	0.7	4	6	1.2000000000000002	4.199999999999998	invalid	0.41657639400000335	51200.0	0	0.0	2.0	53248	0	53248	0	53248	0	0.7	53248	purple	turquoise	1	4	ml	2.7.3	lorasick	sub-08_ses-02_task-ml_proj-lorasick_2021-01-19-14-11-04.109341
73	8	2	2	74	stable	1	200	74	sv	turquoise	purple	purple	turquoise	right	left	0.7	0.30000000000000004	6	2	4.199999999999998	0.6000000000000001	1	0	0.30000000000000004	0.7	2	6	0.6000000000000001	4.199999999999998	valid	0.3832605829993554	53248.0	0	1.0	1.0	53248	1	53248	1	53248	1	0.7	53248	purple	turquoise	1	6	ml	2.7.3	lorasick	sub-08_ses-02_task-ml_proj-lorasick_2021-01-19-14-11-04.109341
74	8	2	2	75	stable	1	200	75	sv	turquoise	purple	purple	turquoise	right	left	0.7	0.30000000000000004	2	6	1.4	1.8000000000000005	1	0	0.30000000000000004	0.7	6	2	1.8000000000000005	1.4	valid	0.4499064239971631	53248.0	0	1.0	1.0	51200	0	53248	1	51200	0	0.7	53248	purple	turquoise	0	2	ml	2.7.3	lorasick	sub-08_ses-02_task-ml_proj-lorasick_2021-01-19-14-11-04.109341
75	8	2	2	76	stable	1	200	76	sv	purple	turquoise	purple	turquoise	left	right	0.7	0.30000000000000004	4	2	2.8	0.6000000000000001	1	0	0.7	0.30000000000000004	4	2	2.8	0.6000000000000001	valid	0.31659967900122865	51200.0	0	0.0	1.0	51200	1	51200	1	51200	1	0.7	51200	purple	turquoise	1	4	ml	2.7.3	lorasick	sub-08_ses-02_task-ml_proj-lorasick_2021-01-19-14-11-04.109341
76	8	2	2	77	stable	1	200	77	sv	purple	turquoise	purple	turquoise	left	right	0.7	0.30000000000000004	6	4	4.199999999999998	1.2000000000000002	0	1	0.7	0.30000000000000004	6	4	4.199999999999998	1.2000000000000002	invalid	1.0330681890009146	53248.0	0	1.0	2.0	51200	0	51200	0	51200	0	0.7	51200	purple	turquoise	1	4	ml	2.7.3	lorasick	sub-08_ses-02_task-ml_proj-lorasick_2021-01-19-14-11-04.109341
77	8	2	2	78	stable	1	200	78	sv	turquoise	purple	purple	turquoise	right	left	0.7	0.30000000000000004	2	2	1.4	0.6000000000000001	1	0	0.30000000000000004	0.7	2	2	0.6000000000000001	1.4	valid	0.9164384499999868	53248.0	0	1.0	1.0	53248	1	53248	1	53248	1	0.7	53248	purple	turquoise	0	2	ml	2.7.3	lorasick	sub-08_ses-02_task-ml_proj-lorasick_2021-01-19-14-11-04.109341
78	8	2	2	79	stable	1	200	79	sv	turquoise	purple	purple	turquoise	right	left	0.7	0.30000000000000004	2	2	1.4	0.6000000000000001	1	0	0.30000000000000004	0.7	2	2	0.6000000000000001	1.4	valid	1.2163497369983816	53248.0	0	1.0	1.0	53248	1	53248	1	53248	1	0.7	53248	purple	turquoise	0	2	ml	2.7.3	lorasick	sub-08_ses-02_task-ml_proj-lorasick_2021-01-19-14-11-04.109341
79	8	2	2	80	stable	1	200	80	sv	purple	turquoise	purple	turquoise	left	right	0.7	0.30000000000000004	2	10	1.4	3.0000000000000004	0	1	0.7	0.30000000000000004	2	10	1.4	3.0000000000000004	invalid	0.7997928859986132	51200.0	0	0.0	1.0	53248	0	51200	1	53248	0	0.7	51200	purple	turquoise	0	0	ml	2.7.3	lorasick	sub-08_ses-02_task-ml_proj-lorasick_2021-01-19-14-11-04.109341
80	8	2	2	81	stable	1	200	81	sv	purple	turquoise	purple	turquoise	left	right	0.7	0.30000000000000004	2	6	1.4	1.8000000000000005	1	0	0.7	0.30000000000000004	2	6	1.4	1.8000000000000005	valid	0.7164881429998786	53248.0	0	1.0	2.0	53248	1	51200	0	53248	1	0.7	51200	purple	turquoise	0	0	ml	2.7.3	lorasick	sub-08_ses-02_task-ml_proj-lorasick_2021-01-19-14-11-04.109341
81	8	2	2	82	stable	1	200	82	sv	turquoise	purple	purple	turquoise	right	left	0.7	0.30000000000000004	2	10	1.4	3.0000000000000004	1	0	0.30000000000000004	0.7	10	2	3.0000000000000004	1.4	valid	0.7331593749986496	53248.0	0	1.0	1.0	51200	0	53248	1	51200	0	0.7	53248	purple	turquoise	0	2	ml	2.7.3	lorasick	sub-08_ses-02_task-ml_proj-lorasick_2021-01-19-14-11-04.109341
82	8	2	2	83	stable	1	200	83	sv	turquoise	purple	purple	turquoise	right	left	0.7	0.30000000000000004	2	6	1.4	1.8000000000000005	0	1	0.30000000000000004	0.7	6	2	1.8000000000000005	1.4	invalid	0.41658426399953896	53248.0	0	1.0	1.0	51200	0	53248	1	51200	0	0.7	53248	purple	turquoise	0	0	ml	2.7.3	lorasick	sub-08_ses-02_task-ml_proj-lorasick_2021-01-19-14-11-04.109341
83	8	2	2	84	stable	1	200	84	sv	purple	turquoise	purple	turquoise	left	right	0.7	0.30000000000000004	6	6	4.199999999999998	1.8000000000000005	1	0	0.7	0.30000000000000004	6	6	4.199999999999998	1.8000000000000005	valid	0.4498881090003124	51200.0	0	0.0	1.0	51200	1	51200	1	53248	0	0.7	51200	purple	turquoise	1	6	ml	2.7.3	lorasick	sub-08_ses-02_task-ml_proj-lorasick_2021-01-19-14-11-04.109341
84	8	2	2	85	stable	1	200	85	sv	turquoise	purple	purple	turquoise	right	left	0.7	0.30000000000000004	2	6	1.4	1.8000000000000005	1	0	0.30000000000000004	0.7	6	2	1.8000000000000005	1.4	valid	0.4832286500022746	53248.0	0	1.0	1.0	51200	0	53248	1	51200	0	0.7	53248	purple	turquoise	0	2	ml	2.7.3	lorasick	sub-08_ses-02_task-ml_proj-lorasick_2021-01-19-14-11-04.109341
85	8	2	2	86	stable	1	200	86	sv	turquoise	purple	purple	turquoise	right	left	0.7	0.30000000000000004	4	2	2.8	0.6000000000000001	0	1	0.30000000000000004	0.7	2	4	0.6000000000000001	2.8	invalid	0.56653975700101	53248.0	0	1.0	1.0	53248	1	53248	1	53248	1	0.7	53248	purple	turquoise	1	0	ml	2.7.3	lorasick	sub-08_ses-02_task-ml_proj-lorasick_2021-01-19-14-11-04.109341
86	8	2	2	87	stable	1	200	87	sv	turquoise	purple	purple	turquoise	right	left	0.7	0.30000000000000004	6	2	4.199999999999998	0.6000000000000001	1	0	0.30000000000000004	0.7	2	6	0.6000000000000001	4.199999999999998	valid	0.4998805499999434	51200.0	0	0.0	2.0	53248	0	53248	0	53248	0	0.7	53248	purple	turquoise	1	0	ml	2.7.3	lorasick	sub-08_ses-02_task-ml_proj-lorasick_2021-01-19-14-11-04.109341
87	8	2	2	88	stable	1	200	88	sv	turquoise	purple	purple	turquoise	right	left	0.7	0.30000000000000004	6	2	4.199999999999998	0.6000000000000001	1	0	0.30000000000000004	0.7	2	6	0.6000000000000001	4.199999999999998	valid	0.5498783420007385	53248.0	0	1.0	1.0	53248	1	53248	1	53248	1	0.7	53248	purple	turquoise	1	6	ml	2.7.3	lorasick	sub-08_ses-02_task-ml_proj-lorasick_2021-01-19-14-11-04.109341
88	8	2	2	89	stable	1	200	89	sv	turquoise	purple	purple	turquoise	right	left	0.7	0.30000000000000004	6	6	4.199999999999998	1.8000000000000005	1	0	0.30000000000000004	0.7	6	6	1.8000000000000005	4.199999999999998	valid	0.46656535500005697	53248.0	0	1.0	1.0	53248	1	53248	1	53248	1	0.7	53248	purple	turquoise	0	6	ml	2.7.3	lorasick	sub-08_ses-02_task-ml_proj-lorasick_2021-01-19-14-11-04.109341
89	8	2	2	90	stable	1	200	90	sv	purple	turquoise	purple	turquoise	left	right	0.7	0.30000000000000004	4	6	2.8	1.8000000000000005	0	1	0.7	0.30000000000000004	4	6	2.8	1.8000000000000005	invalid	0.516557956001634	53248.0	0	1.0	2.0	51200	0	51200	0	53248	1	0.7	51200	purple	turquoise	0	6	ml	2.7.3	lorasick	sub-08_ses-02_task-ml_proj-lorasick_2021-01-19-14-11-04.109341
90	8	2	2	91	stable	1	200	91	sv	purple	turquoise	purple	turquoise	left	right	0.7	0.30000000000000004	2	4	1.4	1.2000000000000002	1	0	0.7	0.30000000000000004	2	4	1.4	1.2000000000000002	valid	0.8664350190010737	51200.0	0	0.0	1.0	51200	1	51200	1	53248	0	0.7	51200	purple	turquoise	0	2	ml	2.7.3	lorasick	sub-08_ses-02_task-ml_proj-lorasick_2021-01-19-14-11-04.109341
91	8	2	2	92	stable	1	200	92	sv	turquoise	purple	purple	turquoise	right	left	0.7	0.30000000000000004	2	10	1.4	3.0000000000000004	0	1	0.30000000000000004	0.7	10	2	3.0000000000000004	1.4	invalid	0.6998237649968361	51200.0	0	0.0	2.0	51200	1	53248	0	51200	1	0.7	53248	purple	turquoise	0	10	ml	2.7.3	lorasick	sub-08_ses-02_task-ml_proj-lorasick_2021-01-19-14-11-04.109341
92	8	2	2	93	stable	1	200	93	sv	turquoise	purple	purple	turquoise	right	left	0.7	0.30000000000000004	2	4	1.4	1.2000000000000002	1	0	0.30000000000000004	0.7	4	2	1.2000000000000002	1.4	valid	0.5332081689994084	53248.0	0	1.0	1.0	53248	1	53248	1	51200	0	0.7	53248	purple	turquoise	0	2	ml	2.7.3	lorasick	sub-08_ses-02_task-ml_proj-lorasick_2021-01-19-14-11-04.109341
93	8	2	2	94	stable	1	200	94	sv	turquoise	purple	purple	turquoise	right	left	0.7	0.30000000000000004	2	4	1.4	1.2000000000000002	1	0	0.30000000000000004	0.7	4	2	1.2000000000000002	1.4	valid	0.8164539190001958	51200.0	0	0.0	2.0	53248	0	53248	0	51200	1	0.7	53248	purple	turquoise	0	0	ml	2.7.3	lorasick	sub-08_ses-02_task-ml_proj-lorasick_2021-01-19-14-11-04.109341
94	8	2	2	95	stable	1	200	95	sv	purple	turquoise	purple	turquoise	left	right	0.7	0.30000000000000004	6	4	4.199999999999998	1.2000000000000002	0	1	0.7	0.30000000000000004	6	4	4.199999999999998	1.2000000000000002	invalid	0.4332430049980758	53248.0	0	1.0	2.0	51200	0	51200	0	51200	0	0.7	51200	purple	turquoise	1	4	ml	2.7.3	lorasick	sub-08_ses-02_task-ml_proj-lorasick_2021-01-19-14-11-04.109341
95	8	2	2	96	stable	1	200	96	sv	turquoise	purple	purple	turquoise	right	left	0.7	0.30000000000000004	2	10	1.4	3.0000000000000004	1	0	0.30000000000000004	0.7	10	2	3.0000000000000004	1.4	valid	0.8164570890003233	51200.0	0	0.0	2.0	51200	1	53248	0	51200	1	0.7	53248	purple	turquoise	0	0	ml	2.7.3	lorasick	sub-08_ses-02_task-ml_proj-lorasick_2021-01-19-14-11-04.109341
96	8	2	2	97	stable	1	200	97	sv	purple	turquoise	purple	turquoise	left	right	0.7	0.30000000000000004	4	2	2.8	0.6000000000000001	1	0	0.7	0.30000000000000004	4	2	2.8	0.6000000000000001	valid	0.6498495640007604	53248.0	0	1.0	2.0	51200	0	51200	0	51200	0	0.7	51200	purple	turquoise	1	0	ml	2.7.3	lorasick	sub-08_ses-02_task-ml_proj-lorasick_2021-01-19-14-11-04.109341
97	8	2	2	98	stable	1	200	98	sv	turquoise	purple	purple	turquoise	right	left	0.7	0.30000000000000004	10	2	7.0	0.6000000000000001	0	1	0.30000000000000004	0.7	2	10	0.6000000000000001	7.0	invalid	0.7164844010003435	51200.0	0	0.0	2.0	53248	0	53248	0	53248	0	0.7	53248	purple	turquoise	1	2	ml	2.7.3	lorasick	sub-08_ses-02_task-ml_proj-lorasick_2021-01-19-14-11-04.109341
98	8	2	2	99	stable	1	200	99	sv	turquoise	purple	purple	turquoise	right	left	0.7	0.30000000000000004	2	6	1.4	1.8000000000000005	1	0	0.30000000000000004	0.7	6	2	1.8000000000000005	1.4	valid	0.4165652990013768	51200.0	0	0.0	2.0	51200	1	53248	0	51200	1	0.7	53248	purple	turquoise	0	0	ml	2.7.3	lorasick	sub-08_ses-02_task-ml_proj-lorasick_2021-01-19-14-11-04.109341
99	8	2	2	100	stable	1	200	100	sv	purple	turquoise	purple	turquoise	left	right	0.7	0.30000000000000004	2	6	1.4	1.8000000000000005	0	1	0.7	0.30000000000000004	2	6	1.4	1.8000000000000005	invalid	0.4832268309983192	53248.0	0	1.0	2.0	53248	1	51200	0	53248	1	0.7	51200	purple	turquoise	0	6	ml	2.7.3	lorasick	sub-08_ses-02_task-ml_proj-lorasick_2021-01-19-14-11-04.109341
100	8	2	3	101	stable	1	200	101	sv	turquoise	purple	purple	turquoise	right	left	0.7	0.30000000000000004	6	6	4.199999999999998	1.8000000000000005	1	0	0.30000000000000004	0.7	6	6	1.8000000000000005	4.199999999999998	valid	0.6831613249996735	51200.0	0	0.0	2.0	53248	0	53248	0	53248	0	0.7	53248	purple	turquoise	0	0	ml	2.7.3	lorasick	sub-08_ses-02_task-ml_proj-lorasick_2021-01-19-14-11-04.109341
101	8	2	3	102	stable	1	200	102	sv	turquoise	purple	purple	turquoise	right	left	0.7	0.30000000000000004	2	4	1.4	1.2000000000000002	1	0	0.30000000000000004	0.7	4	2	1.2000000000000002	1.4	valid	0.7331559459998971	53248.0	0	1.0	1.0	53248	1	53248	1	51200	0	0.7	53248	purple	turquoise	0	2	ml	2.7.3	lorasick	sub-08_ses-02_task-ml_proj-lorasick_2021-01-19-14-11-04.109341
102	8	2	3	103	stable	1	200	103	sv	purple	turquoise	purple	turquoise	left	right	0.7	0.30000000000000004	2	2	1.4	0.6000000000000001	0	1	0.7	0.30000000000000004	2	2	1.4	0.6000000000000001	invalid	0.5165277250016516	51200.0	0	0.0	1.0	51200	1	51200	1	53248	0	0.7	51200	purple	turquoise	1	0	ml	2.7.3	lorasick	sub-08_ses-02_task-ml_proj-lorasick_2021-01-19-14-11-04.109341
103	8	2	3	104	stable	1	200	104	sv	turquoise	purple	purple	turquoise	right	left	0.7	0.30000000000000004	10	2	7.0	0.6000000000000001	0	1	0.30000000000000004	0.7	2	10	0.6000000000000001	7.0	invalid	0.6165238590001536	53248.0	0	1.0	1.0	53248	1	53248	1	53248	1	0.7	53248	purple	turquoise	1	0	ml	2.7.3	lorasick	sub-08_ses-02_task-ml_proj-lorasick_2021-01-19-14-11-04.109341
104	8	2	3	105	stable	1	200	105	sv	turquoise	purple	purple	turquoise	right	left	0.7	0.30000000000000004	2	10	1.4	3.0000000000000004	1	0	0.30000000000000004	0.7	10	2	3.0000000000000004	1.4	valid	0.3999105309994775	51200.0	0	0.0	2.0	51200	1	53248	0	51200	1	0.7	53248	purple	turquoise	0	0	ml	2.7.3	lorasick	sub-08_ses-02_task-ml_proj-lorasick_2021-01-19-14-11-04.109341
105	8	2	3	106	stable	1	200	106	sv	purple	turquoise	purple	turquoise	left	right	0.7	0.30000000000000004	4	6	2.8	1.8000000000000005	1	0	0.7	0.30000000000000004	4	6	2.8	1.8000000000000005	valid	0.7498260809989006	53248.0	0	1.0	2.0	51200	0	51200	0	53248	1	0.7	51200	purple	turquoise	0	0	ml	2.7.3	lorasick	sub-08_ses-02_task-ml_proj-lorasick_2021-01-19-14-11-04.109341
106	8	2	3	107	stable	1	200	107	sv	purple	turquoise	purple	turquoise	left	right	0.7	0.30000000000000004	6	2	4.199999999999998	0.6000000000000001	1	0	0.7	0.30000000000000004	6	2	4.199999999999998	0.6000000000000001	valid	0.4998731760024384	51200.0	0	0.0	1.0	51200	1	51200	1	51200	1	0.7	51200	purple	turquoise	1	6	ml	2.7.3	lorasick	sub-08_ses-02_task-ml_proj-lorasick_2021-01-19-14-11-04.109341
107	8	2	3	108	stable	1	200	108	sv	turquoise	purple	purple	turquoise	right	left	0.7	0.30000000000000004	2	4	1.4	1.2000000000000002	0	1	0.30000000000000004	0.7	4	2	1.2000000000000002	1.4	invalid	0.6165223669995612	53248.0	0	1.0	1.0	53248	1	53248	1	51200	0	0.7	53248	purple	turquoise	0	0	ml	2.7.3	lorasick	sub-08_ses-02_task-ml_proj-lorasick_2021-01-19-14-11-04.109341
108	8	2	3	109	stable	1	200	109	sv	purple	turquoise	purple	turquoise	left	right	0.7	0.30000000000000004	2	6	1.4	1.8000000000000005	1	0	0.7	0.30000000000000004	2	6	1.4	1.8000000000000005	valid	0.38324648599882494	51200.0	0	0.0	1.0	53248	0	51200	1	53248	0	0.7	51200	purple	turquoise	0	2	ml	2.7.3	lorasick	sub-08_ses-02_task-ml_proj-lorasick_2021-01-19-14-11-04.109341
109	8	2	3	110	stable	1	200	110	sv	turquoise	purple	purple	turquoise	right	left	0.7	0.30000000000000004	2	6	1.4	1.8000000000000005	1	0	0.30000000000000004	0.7	6	2	1.8000000000000005	1.4	valid	0.4332323929993436	51200.0	0	0.0	2.0	51200	1	53248	0	51200	1	0.7	53248	purple	turquoise	0	0	ml	2.7.3	lorasick	sub-08_ses-02_task-ml_proj-lorasick_2021-01-19-14-11-04.109341
110	8	2	3	111	stable	1	200	111	sv	turquoise	purple	purple	turquoise	right	left	0.7	0.30000000000000004	2	6	1.4	1.8000000000000005	1	0	0.30000000000000004	0.7	6	2	1.8000000000000005	1.4	valid	0.999746392997622	53248.0	0	1.0	1.0	51200	0	53248	1	51200	0	0.7	53248	purple	turquoise	0	2	ml	2.7.3	lorasick	sub-08_ses-02_task-ml_proj-lorasick_2021-01-19-14-11-04.109341
111	8	2	3	112	stable	1	200	112	sv	purple	turquoise	purple	turquoise	left	right	0.7	0.30000000000000004	2	4	1.4	1.2000000000000002	1	0	0.7	0.30000000000000004	2	4	1.4	1.2000000000000002	valid	0.7831315029980033	51200.0	0	0.0	1.0	51200	1	51200	1	53248	0	0.7	51200	purple	turquoise	0	2	ml	2.7.3	lorasick	sub-08_ses-02_task-ml_proj-lorasick_2021-01-19-14-11-04.109341
112	8	2	3	113	stable	1	200	113	sv	turquoise	purple	purple	turquoise	right	left	0.7	0.30000000000000004	6	2	4.199999999999998	0.6000000000000001	1	0	0.30000000000000004	0.7	2	6	0.6000000000000001	4.199999999999998	valid	0.8164675070001977	53248.0	0	1.0	1.0	53248	1	53248	1	53248	1	0.7	53248	purple	turquoise	1	6	ml	2.7.3	lorasick	sub-08_ses-02_task-ml_proj-lorasick_2021-01-19-14-11-04.109341
113	8	2	3	114	stable	1	200	114	sv	purple	turquoise	purple	turquoise	left	right	0.7	0.30000000000000004	4	2	2.8	0.6000000000000001	1	0	0.7	0.30000000000000004	4	2	2.8	0.6000000000000001	valid	0.7997785970001132	51200.0	0	0.0	1.0	51200	1	51200	1	51200	1	0.7	51200	purple	turquoise	1	4	ml	2.7.3	lorasick	sub-08_ses-02_task-ml_proj-lorasick_2021-01-19-14-11-04.109341
114	8	2	3	115	stable	1	200	115	sv	turquoise	purple	purple	turquoise	right	left	0.7	0.30000000000000004	6	6	4.199999999999998	1.8000000000000005	0	1	0.30000000000000004	0.7	6	6	1.8000000000000005	4.199999999999998	invalid	0.6998337410004751	53248.0	0	1.0	1.0	53248	1	53248	1	53248	1	0.7	53248	purple	turquoise	0	0	ml	2.7.3	lorasick	sub-08_ses-02_task-ml_proj-lorasick_2021-01-19-14-11-04.109341
115	8	2	3	116	stable	1	200	116	sv	purple	turquoise	purple	turquoise	left	right	0.7	0.30000000000000004	2	10	1.4	3.0000000000000004	0	1	0.7	0.30000000000000004	2	10	1.4	3.0000000000000004	invalid	0.6165129779983545	51200.0	0	0.0	1.0	53248	0	51200	1	53248	0	0.7	51200	purple	turquoise	0	0	ml	2.7.3	lorasick	sub-08_ses-02_task-ml_proj-lorasick_2021-01-19-14-11-04.109341
116	8	2	3	117	stable	1	200	117	sv	turquoise	purple	purple	turquoise	right	left	0.7	0.30000000000000004	4	6	2.8	1.8000000000000005	1	0	0.30000000000000004	0.7	6	4	1.8000000000000005	2.8	valid	0.7997919629997341	51200.0	0	0.0	2.0	53248	0	53248	0	51200	1	0.7	53248	purple	turquoise	0	0	ml	2.7.3	lorasick	sub-08_ses-02_task-ml_proj-lorasick_2021-01-19-14-11-04.109341
117	8	2	3	118	stable	1	200	118	sv	purple	turquoise	purple	turquoise	left	right	0.7	0.30000000000000004	6	4	4.199999999999998	1.2000000000000002	1	0	0.7	0.30000000000000004	6	4	4.199999999999998	1.2000000000000002	valid	1.2330029680015286	51200.0	0	0.0	1.0	51200	1	51200	1	51200	1	0.7	51200	purple	turquoise	1	6	ml	2.7.3	lorasick	sub-08_ses-02_task-ml_proj-lorasick_2021-01-19-14-11-04.109341
118	8	2	3	119	stable	1	200	119	sv	turquoise	purple	purple	turquoise	right	left	0.7	0.30000000000000004	2	2	1.4	0.6000000000000001	1	0	0.30000000000000004	0.7	2	2	0.6000000000000001	1.4	valid	0.48323222699764296	53248.0	0	1.0	1.0	53248	1	53248	1	53248	1	0.7	53248	purple	turquoise	0	2	ml	2.7.3	lorasick	sub-08_ses-02_task-ml_proj-lorasick_2021-01-19-14-11-04.109341
119	8	2	3	120	stable	1	200	120	sv	turquoise	purple	purple	turquoise	right	left	0.7	0.30000000000000004	2	4	1.4	1.2000000000000002	1	0	0.30000000000000004	0.7	4	2	1.2000000000000002	1.4	valid	0.5165548919976573	53248.0	0	1.0	1.0	53248	1	53248	1	51200	0	0.7	53248	purple	turquoise	0	2	ml	2.7.3	lorasick	sub-08_ses-02_task-ml_proj-lorasick_2021-01-19-14-11-04.109341
120	8	2	3	121	stable	1	200	121	sv	purple	turquoise	purple	turquoise	left	right	0.7	0.30000000000000004	2	6	1.4	1.8000000000000005	0	1	0.7	0.30000000000000004	2	6	1.4	1.8000000000000005	invalid	0.4498884630011162	51200.0	0	0.0	1.0	53248	0	51200	1	53248	0	0.7	51200	purple	turquoise	0	0	ml	2.7.3	lorasick	sub-08_ses-02_task-ml_proj-lorasick_2021-01-19-14-11-04.109341
121	8	2	3	122	stable	1	200	122	sv	purple	turquoise	purple	turquoise	left	right	0.7	0.30000000000000004	4	2	2.8	0.6000000000000001	1	0	0.7	0.30000000000000004	4	2	2.8	0.6000000000000001	valid	0.8331176259998756	51200.0	0	0.0	1.0	51200	1	51200	1	51200	1	0.7	51200	purple	turquoise	1	4	ml	2.7.3	lorasick	sub-08_ses-02_task-ml_proj-lorasick_2021-01-19-14-11-04.109341
122	8	2	3	123	stable	1	200	123	sv	turquoise	purple	purple	turquoise	right	left	0.7	0.30000000000000004	2	6	1.4	1.8000000000000005	1	0	0.30000000000000004	0.7	6	2	1.8000000000000005	1.4	valid	1.083055360999424	53248.0	0	1.0	1.0	51200	0	53248	1	51200	0	0.7	53248	purple	turquoise	0	2	ml	2.7.3	lorasick	sub-08_ses-02_task-ml_proj-lorasick_2021-01-19-14-11-04.109341
123	8	2	3	124	stable	1	200	124	sv	turquoise	purple	purple	turquoise	right	left	0.7	0.30000000000000004	2	2	1.4	0.6000000000000001	1	0	0.30000000000000004	0.7	2	2	0.6000000000000001	1.4	valid	0.8497833209985401	53248.0	0	1.0	1.0	53248	1	53248	1	53248	1	0.7	53248	purple	turquoise	0	2	ml	2.7.3	lorasick	sub-08_ses-02_task-ml_proj-lorasick_2021-01-19-14-11-04.109341
124	8	2	3	125	stable	1	200	125	sv	turquoise	purple	purple	turquoise	right	left	0.7	0.30000000000000004	2	2	1.4	0.6000000000000001	1	0	0.30000000000000004	0.7	2	2	0.6000000000000001	1.4	valid	0.8497893120002118	53248.0	0	1.0	1.0	53248	1	53248	1	53248	1	0.7	53248	purple	turquoise	0	2	ml	2.7.3	lorasick	sub-08_ses-02_task-ml_proj-lorasick_2021-01-19-14-11-04.109341
125	8	2	3	126	stable	1	200	126	sv	purple	turquoise	purple	turquoise	left	right	0.7	0.30000000000000004	2	2	1.4	0.6000000000000001	1	0	0.7	0.30000000000000004	2	2	1.4	0.6000000000000001	valid	0.8664418679982191	51200.0	0	0.0	1.0	51200	1	51200	1	53248	0	0.7	51200	purple	turquoise	1	2	ml	2.7.3	lorasick	sub-08_ses-02_task-ml_proj-lorasick_2021-01-19-14-11-04.109341
126	8	2	3	127	stable	1	200	127	sv	purple	turquoise	purple	turquoise	left	right	0.7	0.30000000000000004	6	6	4.199999999999998	1.8000000000000005	1	0	0.7	0.30000000000000004	6	6	4.199999999999998	1.8000000000000005	valid	0.6998241290020815	51200.0	0	0.0	1.0	51200	1	51200	1	53248	0	0.7	51200	purple	turquoise	1	6	ml	2.7.3	lorasick	sub-08_ses-02_task-ml_proj-lorasick_2021-01-19-14-11-04.109341
127	8	2	3	128	stable	1	200	128	sv	purple	turquoise	purple	turquoise	left	right	0.7	0.30000000000000004	2	2	1.4	0.6000000000000001	1	0	0.7	0.30000000000000004	2	2	1.4	0.6000000000000001	valid	1.199678303000837	51200.0	0	0.0	1.0	51200	1	51200	1	53248	0	0.7	51200	purple	turquoise	1	2	ml	2.7.3	lorasick	sub-08_ses-02_task-ml_proj-lorasick_2021-01-19-14-11-04.109341
128	8	2	3	129	stable	1	200	129	sv	purple	turquoise	purple	turquoise	left	right	0.7	0.30000000000000004	2	10	1.4	3.0000000000000004	0	1	0.7	0.30000000000000004	2	10	1.4	3.0000000000000004	invalid	0.7164914870008943	51200.0	0	0.0	1.0	53248	0	51200	1	53248	0	0.7	51200	purple	turquoise	0	0	ml	2.7.3	lorasick	sub-08_ses-02_task-ml_proj-lorasick_2021-01-19-14-11-04.109341
129	8	2	3	130	stable	1	200	130	sv	purple	turquoise	purple	turquoise	left	right	0.7	0.30000000000000004	2	2	1.4	0.6000000000000001	1	0	0.7	0.30000000000000004	2	2	1.4	0.6000000000000001	valid	0.9330870500016316	51200.0	0	0.0	1.0	51200	1	51200	1	53248	0	0.7	51200	purple	turquoise	1	2	ml	2.7.3	lorasick	sub-08_ses-02_task-ml_proj-lorasick_2021-01-19-14-11-04.109341
130	8	2	3	131	stable	1	200	131	sv	turquoise	purple	purple	turquoise	right	left	0.7	0.30000000000000004	2	10	1.4	3.0000000000000004	1	0	0.30000000000000004	0.7	10	2	3.0000000000000004	1.4	valid	0.8997765059975791	53248.0	0	1.0	1.0	51200	0	53248	1	51200	0	0.7	53248	purple	turquoise	0	2	ml	2.7.3	lorasick	sub-08_ses-02_task-ml_proj-lorasick_2021-01-19-14-11-04.109341
131	8	2	3	132	stable	1	200	132	sv	purple	turquoise	purple	turquoise	left	right	0.7	0.30000000000000004	2	4	1.4	1.2000000000000002	1	0	0.7	0.30000000000000004	2	4	1.4	1.2000000000000002	valid	0.6165135399969586	51200.0	0	0.0	1.0	51200	1	51200	1	53248	0	0.7	51200	purple	turquoise	0	2	ml	2.7.3	lorasick	sub-08_ses-02_task-ml_proj-lorasick_2021-01-19-14-11-04.109341
132	8	2	3	133	stable	1	200	133	sv	turquoise	purple	purple	turquoise	right	left	0.7	0.30000000000000004	2	6	1.4	1.8000000000000005	1	0	0.30000000000000004	0.7	6	2	1.8000000000000005	1.4	valid	1.8161772720013687	53248.0	0	1.0	1.0	51200	0	53248	1	51200	0	0.7	53248	purple	turquoise	0	2	ml	2.7.3	lorasick	sub-08_ses-02_task-ml_proj-lorasick_2021-01-19-14-11-04.109341
133	8	2	3	134	stable	1	200	134	sv	turquoise	purple	purple	turquoise	right	left	0.7	0.30000000000000004	4	2	2.8	0.6000000000000001	1	0	0.30000000000000004	0.7	2	4	0.6000000000000001	2.8	valid	0.6998240659995645	51200.0	0	0.0	2.0	53248	0	53248	0	53248	0	0.7	53248	purple	turquoise	1	0	ml	2.7.3	lorasick	sub-08_ses-02_task-ml_proj-lorasick_2021-01-19-14-11-04.109341
134	8	2	3	135	stable	1	200	135	sv	purple	turquoise	purple	turquoise	left	right	0.7	0.30000000000000004	4	2	2.8	0.6000000000000001	1	0	0.7	0.30000000000000004	4	2	2.8	0.6000000000000001	valid	0.5165468650011462	51200.0	0	0.0	1.0	51200	1	51200	1	51200	1	0.7	51200	purple	turquoise	1	4	ml	2.7.3	lorasick	sub-08_ses-02_task-ml_proj-lorasick_2021-01-19-14-11-04.109341
135	8	2	3	136	stable	1	200	136	sv	turquoise	purple	purple	turquoise	right	left	0.7	0.30000000000000004	4	2	2.8	0.6000000000000001	1	0	0.30000000000000004	0.7	2	4	0.6000000000000001	2.8	valid	0.3999206679982308	53248.0	0	1.0	1.0	53248	1	53248	1	53248	1	0.7	53248	purple	turquoise	1	4	ml	2.7.3	lorasick	sub-08_ses-02_task-ml_proj-lorasick_2021-01-19-14-11-04.109341
136	8	2	3	137	stable	1	200	137	sv	purple	turquoise	purple	turquoise	left	right	0.7	0.30000000000000004	2	10	1.4	3.0000000000000004	1	0	0.7	0.30000000000000004	2	10	1.4	3.0000000000000004	valid	0.5831766520022938	51200.0	0	0.0	1.0	53248	0	51200	1	53248	0	0.7	51200	purple	turquoise	0	2	ml	2.7.3	lorasick	sub-08_ses-02_task-ml_proj-lorasick_2021-01-19-14-11-04.109341
137	8	2	3	138	stable	1	200	138	sv	purple	turquoise	purple	turquoise	left	right	0.7	0.30000000000000004	6	4	4.199999999999998	1.2000000000000002	1	0	0.7	0.30000000000000004	6	4	4.199999999999998	1.2000000000000002	valid	0.9664117339998484	51200.0	0	0.0	1.0	51200	1	51200	1	51200	1	0.7	51200	purple	turquoise	1	6	ml	2.7.3	lorasick	sub-08_ses-02_task-ml_proj-lorasick_2021-01-19-14-11-04.109341
138	8	2	3	139	stable	1	200	139	sv	turquoise	purple	purple	turquoise	right	left	0.7	0.30000000000000004	10	2	7.0	0.6000000000000001	1	0	0.30000000000000004	0.7	2	10	0.6000000000000001	7.0	valid	1.316313365001406	53248.0	0	1.0	1.0	53248	1	53248	1	53248	1	0.7	53248	purple	turquoise	1	10	ml	2.7.3	lorasick	sub-08_ses-02_task-ml_proj-lorasick_2021-01-19-14-11-04.109341
139	8	2	3	140	stable	1	200	140	sv	turquoise	purple	purple	turquoise	right	left	0.7	0.30000000000000004	2	2	1.4	0.6000000000000001	0	1	0.30000000000000004	0.7	2	2	0.6000000000000001	1.4	invalid	0.5498748110003362	53248.0	0	1.0	1.0	53248	1	53248	1	53248	1	0.7	53248	purple	turquoise	0	0	ml	2.7.3	lorasick	sub-08_ses-02_task-ml_proj-lorasick_2021-01-19-14-11-04.109341
140	8	2	3	141	stable	1	200	141	sv	purple	turquoise	purple	turquoise	left	right	0.7	0.30000000000000004	6	4	4.199999999999998	1.2000000000000002	0	1	0.7	0.30000000000000004	6	4	4.199999999999998	1.2000000000000002	invalid	0.9497523669997464	51200.0	0	0.0	1.0	51200	1	51200	1	51200	1	0.7	51200	purple	turquoise	1	0	ml	2.7.3	lorasick	sub-08_ses-02_task-ml_proj-lorasick_2021-01-19-14-11-04.109341
141	8	2	3	142	stable	1	200	142	sv	turquoise	purple	purple	turquoise	right	left	0.7	0.30000000000000004	4	6	2.8	1.8000000000000005	1	0	0.30000000000000004	0.7	6	4	1.8000000000000005	2.8	valid	0.6998191370003042	51200.0	0	0.0	2.0	53248	0	53248	0	51200	1	0.7	53248	purple	turquoise	0	0	ml	2.7.3	lorasick	sub-08_ses-02_task-ml_proj-lorasick_2021-01-19-14-11-04.109341
142	8	2	3	143	stable	1	200	143	sv	turquoise	purple	purple	turquoise	right	left	0.7	0.30000000000000004	6	4	4.199999999999998	1.2000000000000002	0	1	0.30000000000000004	0.7	4	6	1.2000000000000002	4.199999999999998	invalid	0.4498976869981561	53248.0	0	1.0	1.0	53248	1	53248	1	53248	1	0.7	53248	purple	turquoise	1	0	ml	2.7.3	lorasick	sub-08_ses-02_task-ml_proj-lorasick_2021-01-19-14-11-04.109341
143	8	2	3	144	stable	1	200	144	sv	purple	turquoise	purple	turquoise	left	right	0.7	0.30000000000000004	2	4	1.4	1.2000000000000002	1	0	0.7	0.30000000000000004	2	4	1.4	1.2000000000000002	valid	0.7998102029996517	53248.0	0	1.0	2.0	51200	0	51200	0	53248	1	0.7	51200	purple	turquoise	0	0	ml	2.7.3	lorasick	sub-08_ses-02_task-ml_proj-lorasick_2021-01-19-14-11-04.109341
144	8	2	3	145	stable	1	200	145	sv	purple	turquoise	purple	turquoise	left	right	0.7	0.30000000000000004	10	2	7.0	0.6000000000000001	1	0	0.7	0.30000000000000004	10	2	7.0	0.6000000000000001	valid	0.3999068550001539	51200.0	0	0.0	1.0	51200	1	51200	1	51200	1	0.7	51200	purple	turquoise	1	10	ml	2.7.3	lorasick	sub-08_ses-02_task-ml_proj-lorasick_2021-01-19-14-11-04.109341
145	8	2	3	146	stable	1	200	146	sv	purple	turquoise	purple	turquoise	left	right	0.7	0.30000000000000004	4	6	2.8	1.8000000000000005	1	0	0.7	0.30000000000000004	4	6	2.8	1.8000000000000005	valid	0.38324773099884624	51200.0	0	0.0	1.0	51200	1	51200	1	53248	0	0.7	51200	purple	turquoise	0	4	ml	2.7.3	lorasick	sub-08_ses-02_task-ml_proj-lorasick_2021-01-19-14-11-04.109341
146	8	2	3	147	stable	1	200	147	sv	purple	turquoise	purple	turquoise	left	right	0.7	0.30000000000000004	2	2	1.4	0.6000000000000001	1	0	0.7	0.30000000000000004	2	2	1.4	0.6000000000000001	valid	0.38325013700159616	51200.0	0	0.0	1.0	51200	1	51200	1	53248	0	0.7	51200	purple	turquoise	1	2	ml	2.7.3	lorasick	sub-08_ses-02_task-ml_proj-lorasick_2021-01-19-14-11-04.109341
147	8	2	3	148	stable	1	200	148	sv	purple	turquoise	purple	turquoise	left	right	0.7	0.30000000000000004	2	10	1.4	3.0000000000000004	1	0	0.7	0.30000000000000004	2	10	1.4	3.0000000000000004	valid	0.49988140100322204	51200.0	0	0.0	1.0	53248	0	51200	1	53248	0	0.7	51200	purple	turquoise	0	2	ml	2.7.3	lorasick	sub-08_ses-02_task-ml_proj-lorasick_2021-01-19-14-11-04.109341
148	8	2	3	149	stable	1	200	149	sv	purple	turquoise	purple	turquoise	left	right	0.7	0.30000000000000004	2	4	1.4	1.2000000000000002	1	0	0.7	0.30000000000000004	2	4	1.4	1.2000000000000002	valid	0.4998812379999436	51200.0	0	0.0	1.0	51200	1	51200	1	53248	0	0.7	51200	purple	turquoise	0	2	ml	2.7.3	lorasick	sub-08_ses-02_task-ml_proj-lorasick_2021-01-19-14-11-04.109341
149	8	2	3	150	stable	1	200	150	sv	purple	turquoise	purple	turquoise	left	right	0.7	0.30000000000000004	10	2	7.0	0.6000000000000001	0	1	0.7	0.30000000000000004	10	2	7.0	0.6000000000000001	invalid	0.5998506260002614	51200.0	0	0.0	1.0	51200	1	51200	1	51200	1	0.7	51200	purple	turquoise	1	0	ml	2.7.3	lorasick	sub-08_ses-02_task-ml_proj-lorasick_2021-01-19-14-11-04.109341
150	8	2	4	151	stable	1	200	151	sv	turquoise	purple	purple	turquoise	right	left	0.7	0.30000000000000004	2	2	1.4	0.6000000000000001	1	0	0.30000000000000004	0.7	2	2	0.6000000000000001	1.4	valid	0.7831359519987018	53248.0	0	1.0	1.0	53248	1	53248	1	53248	1	0.7	53248	purple	turquoise	0	2	ml	2.7.3	lorasick	sub-08_ses-02_task-ml_proj-lorasick_2021-01-19-14-11-04.109341
151	8	2	4	152	stable	1	200	152	sv	turquoise	purple	purple	turquoise	right	left	0.7	0.30000000000000004	4	6	2.8	1.8000000000000005	1	0	0.30000000000000004	0.7	6	4	1.8000000000000005	2.8	valid	0.6831725810006901	53248.0	0	1.0	1.0	53248	1	53248	1	51200	0	0.7	53248	purple	turquoise	0	4	ml	2.7.3	lorasick	sub-08_ses-02_task-ml_proj-lorasick_2021-01-19-14-11-04.109341
152	8	2	4	153	stable	1	200	153	sv	purple	turquoise	purple	turquoise	left	right	0.7	0.30000000000000004	2	4	1.4	1.2000000000000002	0	1	0.7	0.30000000000000004	2	4	1.4	1.2000000000000002	invalid	0.6998286340021878	51200.0	0	0.0	1.0	51200	1	51200	1	53248	0	0.7	51200	purple	turquoise	0	0	ml	2.7.3	lorasick	sub-08_ses-02_task-ml_proj-lorasick_2021-01-19-14-11-04.109341
153	8	2	4	154	stable	1	200	154	sv	purple	turquoise	purple	turquoise	left	right	0.7	0.30000000000000004	6	6	4.199999999999998	1.8000000000000005	1	0	0.7	0.30000000000000004	6	6	4.199999999999998	1.8000000000000005	valid	0.6165147130013793	51200.0	0	0.0	1.0	51200	1	51200	1	53248	0	0.7	51200	purple	turquoise	1	6	ml	2.7.3	lorasick	sub-08_ses-02_task-ml_proj-lorasick_2021-01-19-14-11-04.109341
154	8	2	4	155	stable	1	200	155	sv	turquoise	purple	purple	turquoise	right	left	0.7	0.30000000000000004	2	10	1.4	3.0000000000000004	1	0	0.30000000000000004	0.7	10	2	3.0000000000000004	1.4	valid	0.3665856099978555	51200.0	0	0.0	2.0	51200	1	53248	0	51200	1	0.7	53248	purple	turquoise	0	0	ml	2.7.3	lorasick	sub-08_ses-02_task-ml_proj-lorasick_2021-01-19-14-11-04.109341
155	8	2	4	156	stable	1	200	156	sv	purple	turquoise	purple	turquoise	left	right	0.7	0.30000000000000004	4	6	2.8	1.8000000000000005	0	1	0.7	0.30000000000000004	4	6	2.8	1.8000000000000005	invalid	0.4165728709995165	51200.0	0	0.0	1.0	51200	1	51200	1	53248	0	0.7	51200	purple	turquoise	0	0	ml	2.7.3	lorasick	sub-08_ses-02_task-ml_proj-lorasick_2021-01-19-14-11-04.109341
156	8	2	4	157	stable	1	200	157	sv	purple	turquoise	purple	turquoise	left	right	0.7	0.30000000000000004	6	6	4.199999999999998	1.8000000000000005	1	0	0.7	0.30000000000000004	6	6	4.199999999999998	1.8000000000000005	valid	0.5498654510010965	51200.0	0	0.0	1.0	51200	1	51200	1	53248	0	0.7	51200	purple	turquoise	1	6	ml	2.7.3	lorasick	sub-08_ses-02_task-ml_proj-lorasick_2021-01-19-14-11-04.109341
157	8	2	4	158	stable	1	200	158	sv	purple	turquoise	purple	turquoise	left	right	0.7	0.30000000000000004	2	10	1.4	3.0000000000000004	1	0	0.7	0.30000000000000004	2	10	1.4	3.0000000000000004	valid	0.31659902300089016	51200.0	0	0.0	1.0	53248	0	51200	1	53248	0	0.7	51200	purple	turquoise	0	2	ml	2.7.3	lorasick	sub-08_ses-02_task-ml_proj-lorasick_2021-01-19-14-11-04.109341
158	8	2	4	159	stable	1	200	159	sv	purple	turquoise	purple	turquoise	left	right	0.7	0.30000000000000004	6	6	4.199999999999998	1.8000000000000005	1	0	0.7	0.30000000000000004	6	6	4.199999999999998	1.8000000000000005	valid	0.3832568200014066	51200.0	0	0.0	1.0	51200	1	51200	1	53248	0	0.7	51200	purple	turquoise	1	6	ml	2.7.3	lorasick	sub-08_ses-02_task-ml_proj-lorasick_2021-01-19-14-11-04.109341
159	8	2	4	160	stable	1	200	160	sv	turquoise	purple	purple	turquoise	right	left	0.7	0.30000000000000004	2	6	1.4	1.8000000000000005	1	0	0.30000000000000004	0.7	6	2	1.8000000000000005	1.4	valid	0.7331546169989451	53248.0	0	1.0	1.0	51200	0	53248	1	51200	0	0.7	53248	purple	turquoise	0	2	ml	2.7.3	lorasick	sub-08_ses-02_task-ml_proj-lorasick_2021-01-19-14-11-04.109341
160	8	2	4	161	stable	1	200	161	sv	purple	turquoise	purple	turquoise	left	right	0.7	0.30000000000000004	6	6	4.199999999999998	1.8000000000000005	0	1	0.7	0.30000000000000004	6	6	4.199999999999998	1.8000000000000005	invalid	0.4998826880000706	51200.0	0	0.0	1.0	51200	1	51200	1	53248	0	0.7	51200	purple	turquoise	1	0	ml	2.7.3	lorasick	sub-08_ses-02_task-ml_proj-lorasick_2021-01-19-14-11-04.109341
161	8	2	4	162	stable	1	200	162	sv	purple	turquoise	purple	turquoise	left	right	0.7	0.30000000000000004	6	6	4.199999999999998	1.8000000000000005	0	1	0.7	0.30000000000000004	6	6	4.199999999999998	1.8000000000000005	invalid	0.3999131439995836	51200.0	0	0.0	1.0	51200	1	51200	1	53248	0	0.7	51200	purple	turquoise	1	0	ml	2.7.3	lorasick	sub-08_ses-02_task-ml_proj-lorasick_2021-01-19-14-11-04.109341
162	8	2	4	163	stable	1	200	163	sv	turquoise	purple	purple	turquoise	right	left	0.7	0.30000000000000004	6	4	4.199999999999998	1.2000000000000002	1	0	0.30000000000000004	0.7	4	6	1.2000000000000002	4.199999999999998	valid	0.5332141059989226	53248.0	0	1.0	1.0	53248	1	53248	1	53248	1	0.7	53248	purple	turquoise	1	6	ml	2.7.3	lorasick	sub-08_ses-02_task-ml_proj-lorasick_2021-01-19-14-11-04.109341
163	8	2	4	164	stable	1	200	164	sv	turquoise	purple	purple	turquoise	right	left	0.7	0.30000000000000004	2	2	1.4	0.6000000000000001	1	0	0.30000000000000004	0.7	2	2	0.6000000000000001	1.4	valid	0.7664854089998698	53248.0	0	1.0	1.0	53248	1	53248	1	53248	1	0.7	53248	purple	turquoise	0	2	ml	2.7.3	lorasick	sub-08_ses-02_task-ml_proj-lorasick_2021-01-19-14-11-04.109341
164	8	2	4	165	stable	1	200	165	sv	turquoise	purple	purple	turquoise	right	left	0.7	0.30000000000000004	4	2	2.8	0.6000000000000001	1	0	0.30000000000000004	0.7	2	4	0.6000000000000001	2.8	valid	0.5332216220012924	53248.0	0	1.0	1.0	53248	1	53248	1	53248	1	0.7	53248	purple	turquoise	1	4	ml	2.7.3	lorasick	sub-08_ses-02_task-ml_proj-lorasick_2021-01-19-14-11-04.109341
165	8	2	4	166	stable	1	200	166	sv	turquoise	purple	purple	turquoise	right	left	0.7	0.30000000000000004	6	6	4.199999999999998	1.8000000000000005	1	0	0.30000000000000004	0.7	6	6	1.8000000000000005	4.199999999999998	valid	0.5332148839988804	53248.0	0	1.0	1.0	53248	1	53248	1	53248	1	0.7	53248	purple	turquoise	0	6	ml	2.7.3	lorasick	sub-08_ses-02_task-ml_proj-lorasick_2021-01-19-14-11-04.109341
166	8	2	4	167	stable	1	200	167	sv	turquoise	purple	purple	turquoise	right	left	0.7	0.30000000000000004	2	4	1.4	1.2000000000000002	1	0	0.30000000000000004	0.7	4	2	1.2000000000000002	1.4	valid	0.3999142540014873	53248.0	0	1.0	1.0	53248	1	53248	1	51200	0	0.7	53248	purple	turquoise	0	2	ml	2.7.3	lorasick	sub-08_ses-02_task-ml_proj-lorasick_2021-01-19-14-11-04.109341
167	8	2	4	168	stable	1	200	168	sv	purple	turquoise	purple	turquoise	left	right	0.7	0.30000000000000004	2	10	1.4	3.0000000000000004	1	0	0.7	0.30000000000000004	2	10	1.4	3.0000000000000004	valid	0.5165474269997503	53248.0	0	1.0	2.0	53248	1	51200	0	53248	1	0.7	51200	purple	turquoise	0	0	ml	2.7.3	lorasick	sub-08_ses-02_task-ml_proj-lorasick_2021-01-19-14-11-04.109341
168	8	2	4	169	stable	1	200	169	sv	purple	turquoise	purple	turquoise	left	right	0.7	0.30000000000000004	10	2	7.0	0.6000000000000001	0	1	0.7	0.30000000000000004	10	2	7.0	0.6000000000000001	invalid	0.7997987839989946	53248.0	0	1.0	2.0	51200	0	51200	0	51200	0	0.7	51200	purple	turquoise	1	2	ml	2.7.3	lorasick	sub-08_ses-02_task-ml_proj-lorasick_2021-01-19-14-11-04.109341
169	8	2	4	170	stable	1	200	170	sv	turquoise	purple	purple	turquoise	right	left	0.7	0.30000000000000004	6	6	4.199999999999998	1.8000000000000005	1	0	0.30000000000000004	0.7	6	6	1.8000000000000005	4.199999999999998	valid	0.8831054809998022	51200.0	0	0.0	2.0	53248	0	53248	0	53248	0	0.7	53248	purple	turquoise	0	0	ml	2.7.3	lorasick	sub-08_ses-02_task-ml_proj-lorasick_2021-01-19-14-11-04.109341
170	8	2	4	171	stable	1	200	171	sv	turquoise	purple	purple	turquoise	right	left	0.7	0.30000000000000004	2	10	1.4	3.0000000000000004	1	0	0.30000000000000004	0.7	10	2	3.0000000000000004	1.4	valid	1.0663996280018182	53248.0	0	1.0	1.0	51200	0	53248	1	51200	0	0.7	53248	purple	turquoise	0	2	ml	2.7.3	lorasick	sub-08_ses-02_task-ml_proj-lorasick_2021-01-19-14-11-04.109341
171	8	2	4	172	stable	1	200	172	sv	turquoise	purple	purple	turquoise	right	left	0.7	0.30000000000000004	4	2	2.8	0.6000000000000001	0	1	0.30000000000000004	0.7	2	4	0.6000000000000001	2.8	invalid	0.9997402759981924	51200.0	0	0.0	2.0	53248	0	53248	0	53248	0	0.7	53248	purple	turquoise	1	2	ml	2.7.3	lorasick	sub-08_ses-02_task-ml_proj-lorasick_2021-01-19-14-11-04.109341
172	8	2	4	173	stable	1	200	173	sv	turquoise	purple	purple	turquoise	right	left	0.7	0.30000000000000004	6	2	4.199999999999998	0.6000000000000001	1	0	0.30000000000000004	0.7	2	6	0.6000000000000001	4.199999999999998	valid	0.3999199680001766	53248.0	0	1.0	1.0	53248	1	53248	1	53248	1	0.7	53248	purple	turquoise	1	6	ml	2.7.3	lorasick	sub-08_ses-02_task-ml_proj-lorasick_2021-01-19-14-11-04.109341
173	8	2	4	174	stable	1	200	174	sv	turquoise	purple	purple	turquoise	right	left	0.7	0.30000000000000004	4	6	2.8	1.8000000000000005	1	0	0.30000000000000004	0.7	6	4	1.8000000000000005	2.8	valid	0.2999302999996871	51200.0	0	0.0	2.0	53248	0	53248	0	51200	1	0.7	53248	purple	turquoise	0	0	ml	2.7.3	lorasick	sub-08_ses-02_task-ml_proj-lorasick_2021-01-19-14-11-04.109341
174	8	2	4	175	stable	1	200	175	sv	purple	turquoise	purple	turquoise	left	right	0.7	0.30000000000000004	4	6	2.8	1.8000000000000005	1	0	0.7	0.30000000000000004	4	6	2.8	1.8000000000000005	valid	1.2663359559992386	51200.0	0	0.0	1.0	51200	1	51200	1	53248	0	0.7	51200	purple	turquoise	0	4	ml	2.7.3	lorasick	sub-08_ses-02_task-ml_proj-lorasick_2021-01-19-14-11-04.109341
175	8	2	4	176	stable	1	200	176	sv	purple	turquoise	purple	turquoise	left	right	0.7	0.30000000000000004	2	4	1.4	1.2000000000000002	1	0	0.7	0.30000000000000004	2	4	1.4	1.2000000000000002	valid	0.34993579699948896	53248.0	0	1.0	2.0	51200	0	51200	0	53248	1	0.7	51200	purple	turquoise	0	0	ml	2.7.3	lorasick	sub-08_ses-02_task-ml_proj-lorasick_2021-01-19-14-11-04.109341
176	8	2	4	177	stable	1	200	177	sv	purple	turquoise	purple	turquoise	left	right	0.7	0.30000000000000004	2	10	1.4	3.0000000000000004	0	1	0.7	0.30000000000000004	2	10	1.4	3.0000000000000004	invalid	1.1330368220005766	53248.0	0	1.0	2.0	53248	1	51200	0	53248	1	0.7	51200	purple	turquoise	0	10	ml	2.7.3	lorasick	sub-08_ses-02_task-ml_proj-lorasick_2021-01-19-14-11-04.109341
177	8	2	4	178	stable	1	200	178	sv	turquoise	purple	purple	turquoise	right	left	0.7	0.30000000000000004	10	2	7.0	0.6000000000000001	1	0	0.30000000000000004	0.7	2	10	0.6000000000000001	7.0	valid	0.6998336149990791	53248.0	0	1.0	1.0	53248	1	53248	1	53248	1	0.7	53248	purple	turquoise	1	10	ml	2.7.3	lorasick	sub-08_ses-02_task-ml_proj-lorasick_2021-01-19-14-11-04.109341
178	8	2	4	179	stable	1	200	179	sv	purple	turquoise	purple	turquoise	left	right	0.7	0.30000000000000004	2	10	1.4	3.0000000000000004	1	0	0.7	0.30000000000000004	2	10	1.4	3.0000000000000004	valid	1.3663041199979489	53248.0	0	1.0	2.0	53248	1	51200	0	53248	1	0.7	51200	purple	turquoise	0	0	ml	2.7.3	lorasick	sub-08_ses-02_task-ml_proj-lorasick_2021-01-19-14-11-04.109341
179	8	2	4	180	stable	1	200	180	sv	turquoise	purple	purple	turquoise	right	left	0.7	0.30000000000000004	2	4	1.4	1.2000000000000002	0	1	0.30000000000000004	0.7	4	2	1.2000000000000002	1.4	invalid	0.7831446339987451	53248.0	0	1.0	1.0	53248	1	53248	1	51200	0	0.7	53248	purple	turquoise	0	0	ml	2.7.3	lorasick	sub-08_ses-02_task-ml_proj-lorasick_2021-01-19-14-11-04.109341
180	8	2	4	181	stable	1	200	181	sv	turquoise	purple	purple	turquoise	right	left	0.7	0.30000000000000004	6	2	4.199999999999998	0.6000000000000001	0	1	0.30000000000000004	0.7	2	6	0.6000000000000001	4.199999999999998	invalid	0.4165678039971681	51200.0	0	0.0	2.0	53248	0	53248	0	53248	0	0.7	53248	purple	turquoise	1	2	ml	2.7.3	lorasick	sub-08_ses-02_task-ml_proj-lorasick_2021-01-19-14-11-04.109341
181	8	2	4	182	stable	1	200	182	sv	turquoise	purple	purple	turquoise	right	left	0.7	0.30000000000000004	2	6	1.4	1.8000000000000005	0	1	0.30000000000000004	0.7	6	2	1.8000000000000005	1.4	invalid	0.8664541869984532	53248.0	0	1.0	1.0	51200	0	53248	1	51200	0	0.7	53248	purple	turquoise	0	0	ml	2.7.3	lorasick	sub-08_ses-02_task-ml_proj-lorasick_2021-01-19-14-11-04.109341
182	8	2	4	183	stable	1	200	183	sv	purple	turquoise	purple	turquoise	left	right	0.7	0.30000000000000004	2	2	1.4	0.6000000000000001	1	0	0.7	0.30000000000000004	2	2	1.4	0.6000000000000001	valid	0.44989508599974215	51200.0	0	0.0	1.0	51200	1	51200	1	53248	0	0.7	51200	purple	turquoise	1	2	ml	2.7.3	lorasick	sub-08_ses-02_task-ml_proj-lorasick_2021-01-19-14-11-04.109341
183	8	2	4	184	stable	1	200	184	sv	purple	turquoise	purple	turquoise	left	right	0.7	0.30000000000000004	2	6	1.4	1.8000000000000005	0	1	0.7	0.30000000000000004	2	6	1.4	1.8000000000000005	invalid	0.4832299550034804	53248.0	0	1.0	2.0	53248	1	51200	0	53248	1	0.7	51200	purple	turquoise	0	6	ml	2.7.3	lorasick	sub-08_ses-02_task-ml_proj-lorasick_2021-01-19-14-11-04.109341
184	8	2	4	185	stable	1	200	185	sv	turquoise	purple	purple	turquoise	right	left	0.7	0.30000000000000004	6	4	4.199999999999998	1.2000000000000002	1	0	0.30000000000000004	0.7	4	6	1.2000000000000002	4.199999999999998	valid	0.5498764080002729	53248.0	0	1.0	1.0	53248	1	53248	1	53248	1	0.7	53248	purple	turquoise	1	6	ml	2.7.3	lorasick	sub-08_ses-02_task-ml_proj-lorasick_2021-01-19-14-11-04.109341
185	8	2	4	186	stable	1	200	186	sv	turquoise	purple	purple	turquoise	right	left	0.7	0.30000000000000004	6	4	4.199999999999998	1.2000000000000002	0	1	0.30000000000000004	0.7	4	6	1.2000000000000002	4.199999999999998	invalid	0.33326285400107736	51200.0	0	0.0	2.0	53248	0	53248	0	53248	0	0.7	53248	purple	turquoise	1	4	ml	2.7.3	lorasick	sub-08_ses-02_task-ml_proj-lorasick_2021-01-19-14-11-04.109341
186	8	2	4	187	stable	1	200	187	sv	turquoise	purple	purple	turquoise	right	left	0.7	0.30000000000000004	6	2	4.199999999999998	0.6000000000000001	0	1	0.30000000000000004	0.7	2	6	0.6000000000000001	4.199999999999998	invalid	0.3999202989980404	53248.0	0	1.0	1.0	53248	1	53248	1	53248	1	0.7	53248	purple	turquoise	1	0	ml	2.7.3	lorasick	sub-08_ses-02_task-ml_proj-lorasick_2021-01-19-14-11-04.109341
187	8	2	4	188	stable	1	200	188	sv	purple	turquoise	purple	turquoise	left	right	0.7	0.30000000000000004	2	2	1.4	0.6000000000000001	1	0	0.7	0.30000000000000004	2	2	1.4	0.6000000000000001	valid	1.0663818680004624	51200.0	0	0.0	1.0	51200	1	51200	1	53248	0	0.7	51200	purple	turquoise	1	2	ml	2.7.3	lorasick	sub-08_ses-02_task-ml_proj-lorasick_2021-01-19-14-11-04.109341
188	8	2	4	189	stable	1	200	189	sv	purple	turquoise	purple	turquoise	left	right	0.7	0.30000000000000004	2	6	1.4	1.8000000000000005	1	0	0.7	0.30000000000000004	2	6	1.4	1.8000000000000005	valid	0.6498526139985188	53248.0	0	1.0	2.0	53248	1	51200	0	53248	1	0.7	51200	purple	turquoise	0	0	ml	2.7.3	lorasick	sub-08_ses-02_task-ml_proj-lorasick_2021-01-19-14-11-04.109341
189	8	2	4	190	stable	1	200	190	sv	turquoise	purple	purple	turquoise	right	left	0.7	0.30000000000000004	2	6	1.4	1.8000000000000005	0	1	0.30000000000000004	0.7	6	2	1.8000000000000005	1.4	invalid	0.8664429410018784	51200.0	0	0.0	2.0	51200	1	53248	0	51200	1	0.7	53248	purple	turquoise	0	6	ml	2.7.3	lorasick	sub-08_ses-02_task-ml_proj-lorasick_2021-01-19-14-11-04.109341
190	8	2	4	191	stable	1	200	191	sv	turquoise	purple	purple	turquoise	right	left	0.7	0.30000000000000004	6	4	4.199999999999998	1.2000000000000002	0	1	0.30000000000000004	0.7	4	6	1.2000000000000002	4.199999999999998	invalid	1.316321659996902	53248.0	0	1.0	1.0	53248	1	53248	1	53248	1	0.7	53248	purple	turquoise	1	0	ml	2.7.3	lorasick	sub-08_ses-02_task-ml_proj-lorasick_2021-01-19-14-11-04.109341
191	8	2	4	192	stable	1	200	192	sv	purple	turquoise	purple	turquoise	left	right	0.7	0.30000000000000004	6	4	4.199999999999998	1.2000000000000002	1	0	0.7	0.30000000000000004	6	4	4.199999999999998	1.2000000000000002	valid	1.0830451660003746	53248.0	0	1.0	2.0	51200	0	51200	0	51200	0	0.7	51200	purple	turquoise	1	0	ml	2.7.3	lorasick	sub-08_ses-02_task-ml_proj-lorasick_2021-01-19-14-11-04.109341
192	8	2	4	193	stable	1	200	193	sv	purple	turquoise	purple	turquoise	left	right	0.7	0.30000000000000004	6	4	4.199999999999998	1.2000000000000002	1	0	0.7	0.30000000000000004	6	4	4.199999999999998	1.2000000000000002	valid	0.6998211610007274	51200.0	0	0.0	1.0	51200	1	51200	1	51200	1	0.7	51200	purple	turquoise	1	6	ml	2.7.3	lorasick	sub-08_ses-02_task-ml_proj-lorasick_2021-01-19-14-11-04.109341
193	8	2	4	194	stable	1	200	194	sv	purple	turquoise	purple	turquoise	left	right	0.7	0.30000000000000004	6	2	4.199999999999998	0.6000000000000001	1	0	0.7	0.30000000000000004	6	2	4.199999999999998	0.6000000000000001	valid	1.649553356000979	53248.0	0	1.0	2.0	51200	0	51200	0	51200	0	0.7	51200	purple	turquoise	1	0	ml	2.7.3	lorasick	sub-08_ses-02_task-ml_proj-lorasick_2021-01-19-14-11-04.109341
194	8	2	4	195	stable	1	200	195	sv	purple	turquoise	purple	turquoise	left	right	0.7	0.30000000000000004	6	4	4.199999999999998	1.2000000000000002	0	1	0.7	0.30000000000000004	6	4	4.199999999999998	1.2000000000000002	invalid	0.7331364849997044	51200.0	0	0.0	1.0	51200	1	51200	1	51200	1	0.7	51200	purple	turquoise	1	0	ml	2.7.3	lorasick	sub-08_ses-02_task-ml_proj-lorasick_2021-01-19-14-11-04.109341
195	8	2	4	196	stable	1	200	196	sv	turquoise	purple	purple	turquoise	right	left	0.7	0.30000000000000004	4	2	2.8	0.6000000000000001	1	0	0.30000000000000004	0.7	2	4	0.6000000000000001	2.8	valid	0.6665027210001426	53248.0	0	1.0	1.0	53248	1	53248	1	53248	1	0.7	53248	purple	turquoise	1	4	ml	2.7.3	lorasick	sub-08_ses-02_task-ml_proj-lorasick_2021-01-19-14-11-04.109341
196	8	2	4	197	stable	1	200	197	sv	purple	turquoise	purple	turquoise	left	right	0.7	0.30000000000000004	4	2	2.8	0.6000000000000001	1	0	0.7	0.30000000000000004	4	2	2.8	0.6000000000000001	valid	0.5498764049989404	53248.0	0	1.0	2.0	51200	0	51200	0	51200	0	0.7	51200	purple	turquoise	1	0	ml	2.7.3	lorasick	sub-08_ses-02_task-ml_proj-lorasick_2021-01-19-14-11-04.109341
197	8	2	4	198	stable	1	200	198	sv	turquoise	purple	purple	turquoise	right	left	0.7	0.30000000000000004	6	4	4.199999999999998	1.2000000000000002	1	0	0.30000000000000004	0.7	4	6	1.2000000000000002	4.199999999999998	valid	0.5831891689995246	51200.0	0	0.0	2.0	53248	0	53248	0	53248	0	0.7	53248	purple	turquoise	1	0	ml	2.7.3	lorasick	sub-08_ses-02_task-ml_proj-lorasick_2021-01-19-14-11-04.109341
198	8	2	4	199	stable	1	200	199	sv	purple	turquoise	purple	turquoise	left	right	0.7	0.30000000000000004	6	6	4.199999999999998	1.8000000000000005	0	1	0.7	0.30000000000000004	6	6	4.199999999999998	1.8000000000000005	invalid	0.4998894460004522	53248.0	0	1.0	2.0	51200	0	51200	0	53248	1	0.7	51200	purple	turquoise	1	6	ml	2.7.3	lorasick	sub-08_ses-02_task-ml_proj-lorasick_2021-01-19-14-11-04.109341
199	8	2	4	200	stable	1	200	200	sv	turquoise	purple	purple	turquoise	right	left	0.7	0.30000000000000004	2	2	1.4	0.6000000000000001	0	1	0.30000000000000004	0.7	2	2	0.6000000000000001	1.4	invalid	0.3332591580001463	51200.0	0	0.0	2.0	53248	0	53248	0	53248	0	0.7	53248	purple	turquoise	0	2	ml	2.7.3	lorasick	sub-08_ses-02_task-ml_proj-lorasick_2021-01-19-14-11-04.109341
200	8	2	5	201	volatile	2	20	1	sv	purple	turquoise	purple	turquoise	left	right	0.30000000000000004	0.7	4	6	1.2000000000000002	4.199999999999998	1	0	0.30000000000000004	0.7	4	6	1.2000000000000002	4.199999999999998	invalid	0.8164526679975097	51200.0	0	0.0	1.0	53248	0	53248	0	53248	0	0.7	53248	turquoise	purple	1	4	ml	2.7.3	lorasick	sub-08_ses-02_task-ml_proj-lorasick_2021-01-19-14-11-04.109341
201	8	2	5	202	volatile	2	20	2	sv	purple	turquoise	purple	turquoise	left	right	0.30000000000000004	0.7	2	10	0.6000000000000001	7.0	0	1	0.30000000000000004	0.7	2	10	0.6000000000000001	7.0	valid	0.3832456049967732	51200.0	0	0.0	1.0	53248	0	53248	0	53248	0	0.7	53248	turquoise	purple	1	0	ml	2.7.3	lorasick	sub-08_ses-02_task-ml_proj-lorasick_2021-01-19-14-11-04.109341
202	8	2	5	203	volatile	2	20	3	sv	turquoise	purple	purple	turquoise	right	left	0.30000000000000004	0.7	6	2	1.8000000000000005	1.4	0	1	0.7	0.30000000000000004	2	6	1.4	1.8000000000000005	valid	0.5498641339981987	53248.0	0	1.0	1.0	53248	1	51200	0	53248	1	0.7	51200	turquoise	purple	0	0	ml	2.7.3	lorasick	sub-08_ses-02_task-ml_proj-lorasick_2021-01-19-14-11-04.109341
203	8	2	5	204	volatile	2	20	4	sv	purple	turquoise	purple	turquoise	left	right	0.30000000000000004	0.7	2	10	0.6000000000000001	7.0	0	1	0.30000000000000004	0.7	2	10	0.6000000000000001	7.0	valid	0.7664819769997848	53248.0	0	1.0	2.0	53248	1	53248	1	53248	1	0.7	53248	turquoise	purple	1	10	ml	2.7.3	lorasick	sub-08_ses-02_task-ml_proj-lorasick_2021-01-19-14-11-04.109341
204	8	2	5	205	volatile	2	20	5	sv	purple	turquoise	purple	turquoise	left	right	0.30000000000000004	0.7	2	6	0.6000000000000001	4.199999999999998	1	0	0.30000000000000004	0.7	2	6	0.6000000000000001	4.199999999999998	invalid	0.616523316999519	51200.0	0	0.0	1.0	53248	0	53248	0	53248	0	0.7	53248	turquoise	purple	1	2	ml	2.7.3	lorasick	sub-08_ses-02_task-ml_proj-lorasick_2021-01-19-14-11-04.109341
205	8	2	5	206	volatile	2	20	6	sv	turquoise	purple	purple	turquoise	right	left	0.30000000000000004	0.7	2	2	0.6000000000000001	1.4	0	1	0.7	0.30000000000000004	2	2	1.4	0.6000000000000001	valid	0.7498158909984342	53248.0	0	1.0	1.0	51200	0	51200	0	53248	1	0.7	51200	turquoise	purple	1	0	ml	2.7.3	lorasick	sub-08_ses-02_task-ml_proj-lorasick_2021-01-19-14-11-04.109341
206	8	2	5	207	volatile	2	20	7	sv	turquoise	purple	purple	turquoise	right	left	0.30000000000000004	0.7	2	10	0.6000000000000001	7.0	1	0	0.7	0.30000000000000004	10	2	7.0	0.6000000000000001	invalid	0.4998678880001535	51200.0	0	0.0	2.0	51200	1	51200	1	51200	1	0.7	51200	turquoise	purple	1	0	ml	2.7.3	lorasick	sub-08_ses-02_task-ml_proj-lorasick_2021-01-19-14-11-04.109341
207	8	2	5	208	volatile	2	20	8	sv	turquoise	purple	purple	turquoise	right	left	0.30000000000000004	0.7	2	4	0.6000000000000001	2.8	0	1	0.7	0.30000000000000004	4	2	2.8	0.6000000000000001	valid	0.6831725360025303	53248.0	0	1.0	1.0	51200	0	51200	0	51200	0	0.7	51200	turquoise	purple	1	0	ml	2.7.3	lorasick	sub-08_ses-02_task-ml_proj-lorasick_2021-01-19-14-11-04.109341
208	8	2	5	209	volatile	2	20	9	sv	turquoise	purple	purple	turquoise	right	left	0.30000000000000004	0.7	2	10	0.6000000000000001	7.0	0	1	0.7	0.30000000000000004	10	2	7.0	0.6000000000000001	valid	0.3665879580003093	51200.0	0	0.0	2.0	51200	1	51200	1	51200	1	0.7	51200	turquoise	purple	1	10	ml	2.7.3	lorasick	sub-08_ses-02_task-ml_proj-lorasick_2021-01-19-14-11-04.109341
209	8	2	5	210	volatile	2	20	10	sv	purple	turquoise	purple	turquoise	left	right	0.30000000000000004	0.7	6	4	1.8000000000000005	2.8	0	1	0.30000000000000004	0.7	6	4	1.8000000000000005	2.8	valid	0.4665710029985348	53248.0	0	1.0	2.0	53248	1	53248	1	51200	0	0.7	53248	turquoise	purple	0	4	ml	2.7.3	lorasick	sub-08_ses-02_task-ml_proj-lorasick_2021-01-19-14-11-04.109341
210	8	2	5	211	volatile	2	20	11	sv	turquoise	purple	purple	turquoise	right	left	0.30000000000000004	0.7	6	6	1.8000000000000005	4.199999999999998	1	0	0.7	0.30000000000000004	6	6	4.199999999999998	1.8000000000000005	invalid	0.5998523679991195	51200.0	0	0.0	2.0	51200	1	51200	1	53248	0	0.7	51200	turquoise	purple	1	0	ml	2.7.3	lorasick	sub-08_ses-02_task-ml_proj-lorasick_2021-01-19-14-11-04.109341
211	8	2	5	212	volatile	2	20	12	sv	purple	turquoise	purple	turquoise	left	right	0.30000000000000004	0.7	4	2	1.2000000000000002	1.4	0	1	0.30000000000000004	0.7	4	2	1.2000000000000002	1.4	valid	0.6665090089991281	53248.0	0	1.0	2.0	53248	1	53248	1	51200	0	0.7	53248	turquoise	purple	0	2	ml	2.7.3	lorasick	sub-08_ses-02_task-ml_proj-lorasick_2021-01-19-14-11-04.109341
212	8	2	5	213	volatile	2	20	13	sv	turquoise	purple	purple	turquoise	right	left	0.30000000000000004	0.7	4	6	1.2000000000000002	4.199999999999998	0	1	0.7	0.30000000000000004	6	4	4.199999999999998	1.2000000000000002	valid	0.483222235001449	51200.0	0	0.0	2.0	51200	1	51200	1	51200	1	0.7	51200	turquoise	purple	1	6	ml	2.7.3	lorasick	sub-08_ses-02_task-ml_proj-lorasick_2021-01-19-14-11-04.109341
213	8	2	5	214	volatile	2	20	14	sv	turquoise	purple	purple	turquoise	right	left	0.30000000000000004	0.7	4	2	1.2000000000000002	1.4	0	1	0.7	0.30000000000000004	2	4	1.4	1.2000000000000002	valid	0.4665654609998455	53248.0	0	1.0	1.0	51200	0	51200	0	53248	1	0.7	51200	turquoise	purple	0	0	ml	2.7.3	lorasick	sub-08_ses-02_task-ml_proj-lorasick_2021-01-19-14-11-04.109341
214	8	2	5	215	volatile	2	20	15	sv	purple	turquoise	purple	turquoise	left	right	0.30000000000000004	0.7	6	6	1.8000000000000005	4.199999999999998	1	0	0.30000000000000004	0.7	6	6	1.8000000000000005	4.199999999999998	invalid	0.5831908780019148	51200.0	0	0.0	1.0	53248	0	53248	0	53248	0	0.7	53248	turquoise	purple	0	6	ml	2.7.3	lorasick	sub-08_ses-02_task-ml_proj-lorasick_2021-01-19-14-11-04.109341
215	8	2	5	216	volatile	2	20	16	sv	purple	turquoise	purple	turquoise	left	right	0.30000000000000004	0.7	4	6	1.2000000000000002	4.199999999999998	0	1	0.30000000000000004	0.7	4	6	1.2000000000000002	4.199999999999998	valid	0.3499243860023853	51200.0	0	0.0	1.0	53248	0	53248	0	53248	0	0.7	53248	turquoise	purple	1	0	ml	2.7.3	lorasick	sub-08_ses-02_task-ml_proj-lorasick_2021-01-19-14-11-04.109341
216	8	2	5	217	volatile	2	20	17	sv	turquoise	purple	purple	turquoise	right	left	0.30000000000000004	0.7	4	2	1.2000000000000002	1.4	1	0	0.7	0.30000000000000004	2	4	1.4	1.2000000000000002	invalid	0.7498086220002733	51200.0	0	0.0	2.0	51200	1	51200	1	53248	0	0.7	51200	turquoise	purple	0	0	ml	2.7.3	lorasick	sub-08_ses-02_task-ml_proj-lorasick_2021-01-19-14-11-04.109341
217	8	2	5	218	volatile	2	20	18	sv	turquoise	purple	purple	turquoise	right	left	0.30000000000000004	0.7	2	2	0.6000000000000001	1.4	0	1	0.7	0.30000000000000004	2	2	1.4	0.6000000000000001	valid	0.5665373839983658	53248.0	0	1.0	1.0	51200	0	51200	0	53248	1	0.7	51200	turquoise	purple	1	0	ml	2.7.3	lorasick	sub-08_ses-02_task-ml_proj-lorasick_2021-01-19-14-11-04.109341
218	8	2	5	219	volatile	2	20	19	sv	purple	turquoise	purple	turquoise	left	right	0.30000000000000004	0.7	6	2	1.8000000000000005	1.4	0	1	0.30000000000000004	0.7	6	2	1.8000000000000005	1.4	valid	0.5332105749985203	51200.0	0	0.0	1.0	51200	1	53248	0	51200	1	0.7	53248	turquoise	purple	0	0	ml	2.7.3	lorasick	sub-08_ses-02_task-ml_proj-lorasick_2021-01-19-14-11-04.109341
219	8	2	5	220	volatile	2	20	20	sv	purple	turquoise	purple	turquoise	left	right	0.30000000000000004	0.7	6	2	1.8000000000000005	1.4	0	1	0.30000000000000004	0.7	6	2	1.8000000000000005	1.4	valid	0.5165542869981437	53248.0	0	1.0	2.0	51200	0	53248	1	51200	0	0.7	53248	turquoise	purple	0	2	ml	2.7.3	lorasick	sub-08_ses-02_task-ml_proj-lorasick_2021-01-19-14-11-04.109341
220	8	2	5	221	volatile	3	20	1	sv	turquoise	purple	purple	turquoise	right	left	0.7	0.30000000000000004	4	6	2.8	1.8000000000000005	0	1	0.30000000000000004	0.7	6	4	1.8000000000000005	2.8	invalid	0.5998499620000075	51200.0	0	0.0	2.0	53248	0	53248	0	51200	1	0.7	53248	purple	turquoise	0	6	ml	2.7.3	lorasick	sub-08_ses-02_task-ml_proj-lorasick_2021-01-19-14-11-04.109341
221	8	2	5	222	volatile	3	20	2	sv	turquoise	purple	purple	turquoise	right	left	0.7	0.30000000000000004	2	2	1.4	0.6000000000000001	1	0	0.30000000000000004	0.7	2	2	0.6000000000000001	1.4	valid	0.8164626190009585	51200.0	0	0.0	2.0	53248	0	53248	0	53248	0	0.7	53248	purple	turquoise	0	0	ml	2.7.3	lorasick	sub-08_ses-02_task-ml_proj-lorasick_2021-01-19-14-11-04.109341
222	8	2	5	223	volatile	3	20	3	sv	turquoise	purple	purple	turquoise	right	left	0.7	0.30000000000000004	6	4	4.199999999999998	1.2000000000000002	0	1	0.30000000000000004	0.7	4	6	1.2000000000000002	4.199999999999998	invalid	0.5665368369991484	53248.0	0	1.0	1.0	53248	1	53248	1	53248	1	0.7	53248	purple	turquoise	1	0	ml	2.7.3	lorasick	sub-08_ses-02_task-ml_proj-lorasick_2021-01-19-14-11-04.109341
223	8	2	5	224	volatile	3	20	4	sv	turquoise	purple	purple	turquoise	right	left	0.7	0.30000000000000004	6	2	4.199999999999998	0.6000000000000001	1	0	0.30000000000000004	0.7	2	6	0.6000000000000001	4.199999999999998	valid	0.8831184309965465	53248.0	0	1.0	1.0	53248	1	53248	1	53248	1	0.7	53248	purple	turquoise	1	6	ml	2.7.3	lorasick	sub-08_ses-02_task-ml_proj-lorasick_2021-01-19-14-11-04.109341
224	8	2	5	225	volatile	3	20	5	sv	purple	turquoise	purple	turquoise	left	right	0.7	0.30000000000000004	4	2	2.8	0.6000000000000001	1	0	0.7	0.30000000000000004	4	2	2.8	0.6000000000000001	valid	0.5498648079992563	51200.0	0	0.0	1.0	51200	1	51200	1	51200	1	0.7	51200	purple	turquoise	1	4	ml	2.7.3	lorasick	sub-08_ses-02_task-ml_proj-lorasick_2021-01-19-14-11-04.109341
225	8	2	5	226	volatile	3	20	6	sv	turquoise	purple	purple	turquoise	right	left	0.7	0.30000000000000004	10	2	7.0	0.6000000000000001	1	0	0.30000000000000004	0.7	2	10	0.6000000000000001	7.0	valid	0.5332081559972721	53248.0	0	1.0	1.0	53248	1	53248	1	53248	1	0.7	53248	purple	turquoise	1	10	ml	2.7.3	lorasick	sub-08_ses-02_task-ml_proj-lorasick_2021-01-19-14-11-04.109341
226	8	2	5	227	volatile	3	20	7	sv	purple	turquoise	purple	turquoise	left	right	0.7	0.30000000000000004	2	10	1.4	3.0000000000000004	1	0	0.7	0.30000000000000004	2	10	1.4	3.0000000000000004	valid	0.4832163259998197	51200.0	0	0.0	1.0	53248	0	51200	1	53248	0	0.7	51200	purple	turquoise	0	2	ml	2.7.3	lorasick	sub-08_ses-02_task-ml_proj-lorasick_2021-01-19-14-11-04.109341
227	8	2	5	228	volatile	3	20	8	sv	purple	turquoise	purple	turquoise	left	right	0.7	0.30000000000000004	10	2	7.0	0.6000000000000001	0	1	0.7	0.30000000000000004	10	2	7.0	0.6000000000000001	invalid	0.5498660500015831	51200.0	0	0.0	1.0	51200	1	51200	1	51200	1	0.7	51200	purple	turquoise	1	0	ml	2.7.3	lorasick	sub-08_ses-02_task-ml_proj-lorasick_2021-01-19-14-11-04.109341
228	8	2	5	229	volatile	3	20	9	sv	purple	turquoise	purple	turquoise	left	right	0.7	0.30000000000000004	10	2	7.0	0.6000000000000001	1	0	0.7	0.30000000000000004	10	2	7.0	0.6000000000000001	valid	0.6998229140008334	51200.0	0	0.0	1.0	51200	1	51200	1	51200	1	0.7	51200	purple	turquoise	1	10	ml	2.7.3	lorasick	sub-08_ses-02_task-ml_proj-lorasick_2021-01-19-14-11-04.109341
229	8	2	5	230	volatile	3	20	10	sv	turquoise	purple	purple	turquoise	right	left	0.7	0.30000000000000004	6	6	4.199999999999998	1.8000000000000005	1	0	0.30000000000000004	0.7	6	6	1.8000000000000005	4.199999999999998	valid	0.5998604009982955	53248.0	0	1.0	1.0	53248	1	53248	1	53248	1	0.7	53248	purple	turquoise	0	6	ml	2.7.3	lorasick	sub-08_ses-02_task-ml_proj-lorasick_2021-01-19-14-11-04.109341
230	8	2	5	231	volatile	3	20	11	sv	purple	turquoise	purple	turquoise	left	right	0.7	0.30000000000000004	4	2	2.8	0.6000000000000001	0	1	0.7	0.30000000000000004	4	2	2.8	0.6000000000000001	invalid	0.5332052269986889	51200.0	0	0.0	1.0	51200	1	51200	1	51200	1	0.7	51200	purple	turquoise	1	0	ml	2.7.3	lorasick	sub-08_ses-02_task-ml_proj-lorasick_2021-01-19-14-11-04.109341
231	8	2	5	232	volatile	3	20	12	sv	purple	turquoise	purple	turquoise	left	right	0.7	0.30000000000000004	2	4	1.4	1.2000000000000002	1	0	0.7	0.30000000000000004	2	4	1.4	1.2000000000000002	valid	0.4332424229978642	53248.0	0	1.0	2.0	51200	0	51200	0	53248	1	0.7	51200	purple	turquoise	0	0	ml	2.7.3	lorasick	sub-08_ses-02_task-ml_proj-lorasick_2021-01-19-14-11-04.109341
232	8	2	5	233	volatile	3	20	13	sv	turquoise	purple	purple	turquoise	right	left	0.7	0.30000000000000004	6	4	4.199999999999998	1.2000000000000002	1	0	0.30000000000000004	0.7	4	6	1.2000000000000002	4.199999999999998	valid	0.5831894219991227	51200.0	0	0.0	2.0	53248	0	53248	0	53248	0	0.7	53248	purple	turquoise	1	0	ml	2.7.3	lorasick	sub-08_ses-02_task-ml_proj-lorasick_2021-01-19-14-11-04.109341
233	8	2	5	234	volatile	3	20	14	sv	purple	turquoise	purple	turquoise	left	right	0.7	0.30000000000000004	2	6	1.4	1.8000000000000005	1	0	0.7	0.30000000000000004	2	6	1.4	1.8000000000000005	valid	0.6998315450000518	53248.0	0	1.0	2.0	53248	1	51200	0	53248	1	0.7	51200	purple	turquoise	0	0	ml	2.7.3	lorasick	sub-08_ses-02_task-ml_proj-lorasick_2021-01-19-14-11-04.109341
234	8	2	5	235	volatile	3	20	15	sv	purple	turquoise	purple	turquoise	left	right	0.7	0.30000000000000004	6	6	4.199999999999998	1.8000000000000005	1	0	0.7	0.30000000000000004	6	6	4.199999999999998	1.8000000000000005	valid	0.9997354759980226	51200.0	0	0.0	1.0	51200	1	51200	1	53248	0	0.7	51200	purple	turquoise	1	6	ml	2.7.3	lorasick	sub-08_ses-02_task-ml_proj-lorasick_2021-01-19-14-11-04.109341
235	8	2	5	236	volatile	3	20	16	sv	purple	turquoise	purple	turquoise	left	right	0.7	0.30000000000000004	6	2	4.199999999999998	0.6000000000000001	1	0	0.7	0.30000000000000004	6	2	4.199999999999998	0.6000000000000001	valid	0.6998211899990565	51200.0	0	0.0	1.0	51200	1	51200	1	51200	1	0.7	51200	purple	turquoise	1	6	ml	2.7.3	lorasick	sub-08_ses-02_task-ml_proj-lorasick_2021-01-19-14-11-04.109341
236	8	2	5	237	volatile	3	20	17	sv	turquoise	purple	purple	turquoise	right	left	0.7	0.30000000000000004	4	6	2.8	1.8000000000000005	1	0	0.30000000000000004	0.7	6	4	1.8000000000000005	2.8	valid	0.666509398000926	53248.0	0	1.0	1.0	53248	1	53248	1	51200	0	0.7	53248	purple	turquoise	0	4	ml	2.7.3	lorasick	sub-08_ses-02_task-ml_proj-lorasick_2021-01-19-14-11-04.109341
237	8	2	5	238	volatile	3	20	18	sv	purple	turquoise	purple	turquoise	left	right	0.7	0.30000000000000004	2	2	1.4	0.6000000000000001	0	1	0.7	0.30000000000000004	2	2	1.4	0.6000000000000001	invalid	0.6831616769995891	51200.0	0	0.0	1.0	51200	1	51200	1	53248	0	0.7	51200	purple	turquoise	1	0	ml	2.7.3	lorasick	sub-08_ses-02_task-ml_proj-lorasick_2021-01-19-14-11-04.109341
238	8	2	5	239	volatile	3	20	19	sv	turquoise	purple	purple	turquoise	right	left	0.7	0.30000000000000004	2	6	1.4	1.8000000000000005	0	1	0.30000000000000004	0.7	6	2	1.8000000000000005	1.4	invalid	0.533215425999515	53248.0	0	1.0	1.0	51200	0	53248	1	51200	0	0.7	53248	purple	turquoise	0	0	ml	2.7.3	lorasick	sub-08_ses-02_task-ml_proj-lorasick_2021-01-19-14-11-04.109341
239	8	2	5	240	volatile	3	20	20	sv	turquoise	purple	purple	turquoise	right	left	0.7	0.30000000000000004	4	2	2.8	0.6000000000000001	1	0	0.30000000000000004	0.7	2	4	0.6000000000000001	2.8	valid	1.0330697110002802	53248.0	0	1.0	1.0	53248	1	53248	1	53248	1	0.7	53248	purple	turquoise	1	4	ml	2.7.3	lorasick	sub-08_ses-02_task-ml_proj-lorasick_2021-01-19-14-11-04.109341
240	8	2	5	241	volatile	4	40	1	sv	purple	turquoise	purple	turquoise	left	right	0.30000000000000004	0.7	6	4	1.8000000000000005	2.8	0	1	0.30000000000000004	0.7	6	4	1.8000000000000005	2.8	valid	0.6664988530028495	51200.0	0	0.0	1.0	53248	0	53248	0	51200	1	0.7	53248	turquoise	purple	0	0	ml	2.7.3	lorasick	sub-08_ses-02_task-ml_proj-lorasick_2021-01-19-14-11-04.109341
241	8	2	5	242	volatile	4	40	2	sv	purple	turquoise	purple	turquoise	left	right	0.30000000000000004	0.7	2	2	0.6000000000000001	1.4	0	1	0.30000000000000004	0.7	2	2	0.6000000000000001	1.4	valid	1.4662766080000438	53248.0	0	1.0	2.0	53248	1	53248	1	53248	1	0.7	53248	turquoise	purple	0	2	ml	2.7.3	lorasick	sub-08_ses-02_task-ml_proj-lorasick_2021-01-19-14-11-04.109341
242	8	2	5	243	volatile	4	40	3	sv	purple	turquoise	purple	turquoise	left	right	0.30000000000000004	0.7	2	10	0.6000000000000001	7.0	1	0	0.30000000000000004	0.7	2	10	0.6000000000000001	7.0	invalid	0.4332473879985628	53248.0	0	1.0	2.0	53248	1	53248	1	53248	1	0.7	53248	turquoise	purple	1	0	ml	2.7.3	lorasick	sub-08_ses-02_task-ml_proj-lorasick_2021-01-19-14-11-04.109341
243	8	2	5	244	volatile	4	40	4	sv	turquoise	purple	purple	turquoise	right	left	0.30000000000000004	0.7	2	4	0.6000000000000001	2.8	0	1	0.7	0.30000000000000004	4	2	2.8	0.6000000000000001	valid	0.7831346040002245	51200.0	0	0.0	2.0	51200	1	51200	1	51200	1	0.7	51200	turquoise	purple	1	4	ml	2.7.3	lorasick	sub-08_ses-02_task-ml_proj-lorasick_2021-01-19-14-11-04.109341
244	8	2	5	245	volatile	4	40	5	sv	purple	turquoise	purple	turquoise	left	right	0.30000000000000004	0.7	2	6	0.6000000000000001	4.199999999999998	0	1	0.30000000000000004	0.7	2	6	0.6000000000000001	4.199999999999998	valid	0.7997993909993966	51200.0	0	0.0	1.0	53248	0	53248	0	53248	0	0.7	53248	turquoise	purple	1	0	ml	2.7.3	lorasick	sub-08_ses-02_task-ml_proj-lorasick_2021-01-19-14-11-04.109341
245	8	2	5	246	volatile	4	40	6	sv	purple	turquoise	purple	turquoise	left	right	0.30000000000000004	0.7	10	2	3.0000000000000004	1.4	0	1	0.30000000000000004	0.7	10	2	3.0000000000000004	1.4	valid	1.1330305060000685	51200.0	0	0.0	1.0	51200	1	53248	0	51200	1	0.7	53248	turquoise	purple	0	0	ml	2.7.3	lorasick	sub-08_ses-02_task-ml_proj-lorasick_2021-01-19-14-11-04.109341
246	8	2	5	247	volatile	4	40	7	sv	turquoise	purple	purple	turquoise	right	left	0.30000000000000004	0.7	6	2	1.8000000000000005	1.4	0	1	0.7	0.30000000000000004	2	6	1.4	1.8000000000000005	valid	1.4162995320002665	53248.0	0	1.0	1.0	53248	1	51200	0	53248	1	0.7	51200	turquoise	purple	0	0	ml	2.7.3	lorasick	sub-08_ses-02_task-ml_proj-lorasick_2021-01-19-14-11-04.109341
247	8	2	5	248	volatile	4	40	8	sv	purple	turquoise	purple	turquoise	left	right	0.30000000000000004	0.7	6	6	1.8000000000000005	4.199999999999998	1	0	0.30000000000000004	0.7	6	6	1.8000000000000005	4.199999999999998	invalid	0.5165418360011245	51200.0	0	0.0	1.0	53248	0	53248	0	53248	0	0.7	53248	turquoise	purple	0	6	ml	2.7.3	lorasick	sub-08_ses-02_task-ml_proj-lorasick_2021-01-19-14-11-04.109341
248	8	2	5	249	volatile	4	40	9	sv	purple	turquoise	purple	turquoise	left	right	0.30000000000000004	0.7	6	4	1.8000000000000005	2.8	0	1	0.30000000000000004	0.7	6	4	1.8000000000000005	2.8	valid	0.6165254560000903	53248.0	0	1.0	2.0	53248	1	53248	1	51200	0	0.7	53248	turquoise	purple	0	4	ml	2.7.3	lorasick	sub-08_ses-02_task-ml_proj-lorasick_2021-01-19-14-11-04.109341
249	8	2	5	250	volatile	4	40	10	sv	purple	turquoise	purple	turquoise	left	right	0.30000000000000004	0.7	2	2	0.6000000000000001	1.4	0	1	0.30000000000000004	0.7	2	2	0.6000000000000001	1.4	valid	0.366588167998998	51200.0	0	0.0	1.0	53248	0	53248	0	53248	0	0.7	53248	turquoise	purple	0	0	ml	2.7.3	lorasick	sub-08_ses-02_task-ml_proj-lorasick_2021-01-19-14-11-04.109341
250	8	2	6	251	volatile	4	40	11	sv	purple	turquoise	purple	turquoise	left	right	0.30000000000000004	0.7	6	4	1.8000000000000005	2.8	0	1	0.30000000000000004	0.7	6	4	1.8000000000000005	2.8	valid	1.6328928639995866	51200.0	0	0.0	1.0	53248	0	53248	0	51200	1	0.7	53248	turquoise	purple	0	0	ml	2.7.3	lorasick	sub-08_ses-02_task-ml_proj-lorasick_2021-01-19-14-11-04.109341
251	8	2	6	252	volatile	4	40	12	sv	purple	turquoise	purple	turquoise	left	right	0.30000000000000004	0.7	6	6	1.8000000000000005	4.199999999999998	0	1	0.30000000000000004	0.7	6	6	1.8000000000000005	4.199999999999998	valid	0.7498004420012876	53248.0	0	1.0	2.0	53248	1	53248	1	53248	1	0.7	53248	turquoise	purple	0	6	ml	2.7.3	lorasick	sub-08_ses-02_task-ml_proj-lorasick_2021-01-19-14-11-04.109341
252	8	2	6	253	volatile	4	40	13	sv	turquoise	purple	purple	turquoise	right	left	0.30000000000000004	0.7	2	4	0.6000000000000001	2.8	0	1	0.7	0.30000000000000004	4	2	2.8	0.6000000000000001	valid	0.5998510049976176	51200.0	0	0.0	2.0	51200	1	51200	1	51200	1	0.7	51200	turquoise	purple	1	4	ml	2.7.3	lorasick	sub-08_ses-02_task-ml_proj-lorasick_2021-01-19-14-11-04.109341
253	8	2	6	254	volatile	4	40	14	sv	turquoise	purple	purple	turquoise	right	left	0.30000000000000004	0.7	6	4	1.8000000000000005	2.8	1	0	0.7	0.30000000000000004	4	6	2.8	1.8000000000000005	invalid	0.6498274380028306	51200.0	0	0.0	2.0	51200	1	51200	1	53248	0	0.7	51200	turquoise	purple	0	0	ml	2.7.3	lorasick	sub-08_ses-02_task-ml_proj-lorasick_2021-01-19-14-11-04.109341
254	8	2	6	255	volatile	4	40	15	sv	purple	turquoise	purple	turquoise	left	right	0.30000000000000004	0.7	2	4	0.6000000000000001	2.8	0	1	0.30000000000000004	0.7	2	4	0.6000000000000001	2.8	valid	0.5998621180006012	53248.0	0	1.0	2.0	53248	1	53248	1	53248	1	0.7	53248	turquoise	purple	1	4	ml	2.7.3	lorasick	sub-08_ses-02_task-ml_proj-lorasick_2021-01-19-14-11-04.109341
255	8	2	6	256	volatile	4	40	16	sv	purple	turquoise	purple	turquoise	left	right	0.30000000000000004	0.7	10	2	3.0000000000000004	1.4	0	1	0.30000000000000004	0.7	10	2	3.0000000000000004	1.4	valid	0.3999191440016148	53248.0	0	1.0	2.0	51200	0	53248	1	51200	0	0.7	53248	turquoise	purple	0	2	ml	2.7.3	lorasick	sub-08_ses-02_task-ml_proj-lorasick_2021-01-19-14-11-04.109341
256	8	2	6	257	volatile	4	40	17	sv	turquoise	purple	purple	turquoise	right	left	0.30000000000000004	0.7	10	2	3.0000000000000004	1.4	0	1	0.7	0.30000000000000004	2	10	1.4	3.0000000000000004	valid	0.4665651810028066	53248.0	0	1.0	1.0	53248	1	51200	0	53248	1	0.7	51200	turquoise	purple	0	0	ml	2.7.3	lorasick	sub-08_ses-02_task-ml_proj-lorasick_2021-01-19-14-11-04.109341
257	8	2	6	258	volatile	4	40	18	sv	turquoise	purple	purple	turquoise	right	left	0.30000000000000004	0.7	2	2	0.6000000000000001	1.4	0	1	0.7	0.30000000000000004	2	2	1.4	0.6000000000000001	valid	0.5831923730002018	51200.0	0	0.0	2.0	51200	1	51200	1	53248	0	0.7	51200	turquoise	purple	1	2	ml	2.7.3	lorasick	sub-08_ses-02_task-ml_proj-lorasick_2021-01-19-14-11-04.109341
258	8	2	6	259	volatile	4	40	19	sv	purple	turquoise	purple	turquoise	left	right	0.30000000000000004	0.7	6	6	1.8000000000000005	4.199999999999998	1	0	0.30000000000000004	0.7	6	6	1.8000000000000005	4.199999999999998	invalid	0.4499044930016679	53248.0	0	1.0	2.0	53248	1	53248	1	53248	1	0.7	53248	turquoise	purple	0	0	ml	2.7.3	lorasick	sub-08_ses-02_task-ml_proj-lorasick_2021-01-19-14-11-04.109341
259	8	2	6	260	volatile	4	40	20	sv	turquoise	purple	purple	turquoise	right	left	0.30000000000000004	0.7	6	6	1.8000000000000005	4.199999999999998	1	0	0.7	0.30000000000000004	6	6	4.199999999999998	1.8000000000000005	invalid	0.6165089140013151	51200.0	0	0.0	2.0	51200	1	51200	1	53248	0	0.7	51200	turquoise	purple	1	0	ml	2.7.3	lorasick	sub-08_ses-02_task-ml_proj-lorasick_2021-01-19-14-11-04.109341
260	8	2	6	261	volatile	4	40	21	sv	turquoise	purple	purple	turquoise	right	left	0.30000000000000004	0.7	4	2	1.2000000000000002	1.4	0	1	0.7	0.30000000000000004	2	4	1.4	1.2000000000000002	valid	0.7831289409987221	51200.0	0	0.0	2.0	51200	1	51200	1	53248	0	0.7	51200	turquoise	purple	0	2	ml	2.7.3	lorasick	sub-08_ses-02_task-ml_proj-lorasick_2021-01-19-14-11-04.109341
261	8	2	6	262	volatile	4	40	22	sv	turquoise	purple	purple	turquoise	right	left	0.30000000000000004	0.7	2	6	0.6000000000000001	4.199999999999998	0	1	0.7	0.30000000000000004	6	2	4.199999999999998	0.6000000000000001	valid	1.0997155430013663	53248.0	0	1.0	1.0	51200	0	51200	0	51200	0	0.7	51200	turquoise	purple	1	0	ml	2.7.3	lorasick	sub-08_ses-02_task-ml_proj-lorasick_2021-01-19-14-11-04.109341
262	8	2	6	263	volatile	4	40	23	sv	purple	turquoise	purple	turquoise	left	right	0.30000000000000004	0.7	2	10	0.6000000000000001	7.0	0	1	0.30000000000000004	0.7	2	10	0.6000000000000001	7.0	valid	0.8997742669998843	53248.0	0	1.0	2.0	53248	1	53248	1	53248	1	0.7	53248	turquoise	purple	1	10	ml	2.7.3	lorasick	sub-08_ses-02_task-ml_proj-lorasick_2021-01-19-14-11-04.109341
263	8	2	6	264	volatile	4	40	24	sv	purple	turquoise	purple	turquoise	left	right	0.30000000000000004	0.7	4	2	1.2000000000000002	1.4	0	1	0.30000000000000004	0.7	4	2	1.2000000000000002	1.4	valid	0.5998585460001777	53248.0	0	1.0	2.0	53248	1	53248	1	51200	0	0.7	53248	turquoise	purple	0	2	ml	2.7.3	lorasick	sub-08_ses-02_task-ml_proj-lorasick_2021-01-19-14-11-04.109341
264	8	2	6	265	volatile	4	40	25	sv	purple	turquoise	purple	turquoise	left	right	0.30000000000000004	0.7	6	4	1.8000000000000005	2.8	1	0	0.30000000000000004	0.7	6	4	1.8000000000000005	2.8	invalid	0.5165549190023739	53248.0	0	1.0	2.0	53248	1	53248	1	51200	0	0.7	53248	turquoise	purple	0	0	ml	2.7.3	lorasick	sub-08_ses-02_task-ml_proj-lorasick_2021-01-19-14-11-04.109341
265	8	2	6	266	volatile	4	40	26	sv	purple	turquoise	purple	turquoise	left	right	0.30000000000000004	0.7	4	6	1.2000000000000002	4.199999999999998	0	1	0.30000000000000004	0.7	4	6	1.2000000000000002	4.199999999999998	valid	0.5665397359989583	53248.0	0	1.0	2.0	53248	1	53248	1	53248	1	0.7	53248	turquoise	purple	1	6	ml	2.7.3	lorasick	sub-08_ses-02_task-ml_proj-lorasick_2021-01-19-14-11-04.109341
266	8	2	6	267	volatile	4	40	27	sv	turquoise	purple	purple	turquoise	right	left	0.30000000000000004	0.7	6	4	1.8000000000000005	2.8	1	0	0.7	0.30000000000000004	4	6	2.8	1.8000000000000005	invalid	0.6498363909995533	51200.0	0	0.0	2.0	51200	1	51200	1	53248	0	0.7	51200	turquoise	purple	0	0	ml	2.7.3	lorasick	sub-08_ses-02_task-ml_proj-lorasick_2021-01-19-14-11-04.109341
