Unnamed: 0	sub_id	ses_id	block_no	trial_no	phase_type	phase_no	phase_length	trialInPhase_no	phase_type_order	color_left	color_right	color1	color2	position1	position2	prob1	prob2	mag1	mag2	ev1	ev2	outcome1	outcome2	prob_left	prob_right	mag_left	mag_right	ev_left	ev_right	reward_validity	resp_time	resp_key	timeout	choice_side	choice	ev_corr_resp	ev_correct	prob_corr_resp	prob_correct	mag_corr_resp	mag_correct	high_prob	high_prob_side	high_prob_color	low_prob_color	no_brain	reward	name	version	proj_id	logFileID
0	5	2	1	1	volatile	1	20	1	vs	blue	red	blue	red	left	right	0.7	0.30000000000000004	4	2	2.8	0.6000000000000001	1	0	0.7	0.30000000000000004	4	2	2.8	0.6000000000000001	valid	0.7997952709993115	51200.0	0	0.0	1.0	51200	1	51200	1	51200	1	0.7	51200	blue	red	1	4	ml	2.7.3	lorasick	sub-05_ses-02_task-ml_proj-lorasick_2020-12-08-14-20-22.878888
1	5	2	1	2	volatile	1	20	2	vs	red	blue	blue	red	right	left	0.7	0.30000000000000004	10	2	7.0	0.6000000000000001	1	0	0.30000000000000004	0.7	2	10	0.6000000000000001	7.0	valid	0.4332439540012274	53248.0	0	1.0	1.0	53248	1	53248	1	53248	1	0.7	53248	blue	red	1	10	ml	2.7.3	lorasick	sub-05_ses-02_task-ml_proj-lorasick_2020-12-08-14-20-22.878888
2	5	2	1	3	volatile	1	20	3	vs	blue	red	blue	red	left	right	0.7	0.30000000000000004	4	2	2.8	0.6000000000000001	1	0	0.7	0.30000000000000004	4	2	2.8	0.6000000000000001	valid	0.39990980199945625	51200.0	0	0.0	1.0	51200	1	51200	1	51200	1	0.7	51200	blue	red	1	4	ml	2.7.3	lorasick	sub-05_ses-02_task-ml_proj-lorasick_2020-12-08-14-20-22.878888
3	5	2	1	4	volatile	1	20	4	vs	red	blue	blue	red	right	left	0.7	0.30000000000000004	2	6	1.4	1.8000000000000005	0	1	0.30000000000000004	0.7	6	2	1.8000000000000005	1.4	invalid	0.4665730000015174	53248.0	0	1.0	1.0	51200	0	53248	1	51200	0	0.7	53248	blue	red	0	0	ml	2.7.3	lorasick	sub-05_ses-02_task-ml_proj-lorasick_2020-12-08-14-20-22.878888
4	5	2	1	5	volatile	1	20	5	vs	red	blue	blue	red	right	left	0.7	0.30000000000000004	4	2	2.8	0.6000000000000001	1	0	0.30000000000000004	0.7	2	4	0.6000000000000001	2.8	valid	0.5665466749996995	53248.0	0	1.0	1.0	53248	1	53248	1	53248	1	0.7	53248	blue	red	1	4	ml	2.7.3	lorasick	sub-05_ses-02_task-ml_proj-lorasick_2020-12-08-14-20-22.878888
5	5	2	1	6	volatile	1	20	6	vs	red	blue	blue	red	right	left	0.7	0.30000000000000004	6	4	4.199999999999998	1.2000000000000002	0	1	0.30000000000000004	0.7	4	6	1.2000000000000002	4.199999999999998	invalid	0.4832324279996101	53248.0	0	1.0	1.0	53248	1	53248	1	53248	1	0.7	53248	blue	red	1	0	ml	2.7.3	lorasick	sub-05_ses-02_task-ml_proj-lorasick_2020-12-08-14-20-22.878888
6	5	2	1	7	volatile	1	20	7	vs	blue	red	blue	red	left	right	0.7	0.30000000000000004	6	4	4.199999999999998	1.2000000000000002	1	0	0.7	0.30000000000000004	6	4	4.199999999999998	1.2000000000000002	valid	0.36658645500210696	51200.0	0	0.0	1.0	51200	1	51200	1	51200	1	0.7	51200	blue	red	1	6	ml	2.7.3	lorasick	sub-05_ses-02_task-ml_proj-lorasick_2020-12-08-14-20-22.878888
7	5	2	1	8	volatile	1	20	8	vs	blue	red	blue	red	left	right	0.7	0.30000000000000004	2	6	1.4	1.8000000000000005	1	0	0.7	0.30000000000000004	2	6	1.4	1.8000000000000005	valid	0.3832499539967103	51200.0	0	0.0	1.0	53248	0	51200	1	53248	0	0.7	51200	blue	red	0	2	ml	2.7.3	lorasick	sub-05_ses-02_task-ml_proj-lorasick_2020-12-08-14-20-22.878888
8	5	2	1	9	volatile	1	20	9	vs	blue	red	blue	red	left	right	0.7	0.30000000000000004	2	2	1.4	0.6000000000000001	1	0	0.7	0.30000000000000004	2	2	1.4	0.6000000000000001	valid	0.38325173200064455	51200.0	0	0.0	1.0	51200	1	51200	1	53248	0	0.7	51200	blue	red	1	2	ml	2.7.3	lorasick	sub-05_ses-02_task-ml_proj-lorasick_2020-12-08-14-20-22.878888
9	5	2	1	10	volatile	1	20	10	vs	blue	red	blue	red	left	right	0.7	0.30000000000000004	4	6	2.8	1.8000000000000005	1	0	0.7	0.30000000000000004	4	6	2.8	1.8000000000000005	valid	0.3499305879995518	51200.0	0	0.0	1.0	51200	1	51200	1	53248	0	0.7	51200	blue	red	0	4	ml	2.7.3	lorasick	sub-05_ses-02_task-ml_proj-lorasick_2020-12-08-14-20-22.878888
10	5	2	1	11	volatile	1	20	11	vs	red	blue	blue	red	right	left	0.7	0.30000000000000004	2	2	1.4	0.6000000000000001	1	0	0.30000000000000004	0.7	2	2	0.6000000000000001	1.4	valid	0.3499340740017942	53248.0	0	1.0	1.0	53248	1	53248	1	53248	1	0.7	53248	blue	red	0	2	ml	2.7.3	lorasick	sub-05_ses-02_task-ml_proj-lorasick_2020-12-08-14-20-22.878888
11	5	2	1	12	volatile	1	20	12	vs	red	blue	blue	red	right	left	0.7	0.30000000000000004	6	6	4.199999999999998	1.8000000000000005	1	0	0.30000000000000004	0.7	6	6	1.8000000000000005	4.199999999999998	valid	0.4332551980005519	53248.0	0	1.0	1.0	53248	1	53248	1	53248	1	0.7	53248	blue	red	0	6	ml	2.7.3	lorasick	sub-05_ses-02_task-ml_proj-lorasick_2020-12-08-14-20-22.878888
12	5	2	1	13	volatile	1	20	13	vs	red	blue	blue	red	right	left	0.7	0.30000000000000004	2	10	1.4	3.0000000000000004	0	1	0.30000000000000004	0.7	10	2	3.0000000000000004	1.4	invalid	0.39992832600182737	53248.0	0	1.0	1.0	51200	0	53248	1	51200	0	0.7	53248	blue	red	0	0	ml	2.7.3	lorasick	sub-05_ses-02_task-ml_proj-lorasick_2020-12-08-14-20-22.878888
13	5	2	1	14	volatile	1	20	14	vs	blue	red	blue	red	left	right	0.7	0.30000000000000004	6	6	4.199999999999998	1.8000000000000005	0	1	0.7	0.30000000000000004	6	6	4.199999999999998	1.8000000000000005	invalid	0.399920015999669	51200.0	0	0.0	1.0	51200	1	51200	1	53248	0	0.7	51200	blue	red	1	0	ml	2.7.3	lorasick	sub-05_ses-02_task-ml_proj-lorasick_2020-12-08-14-20-22.878888
14	5	2	1	15	volatile	1	20	15	vs	red	blue	blue	red	right	left	0.7	0.30000000000000004	4	2	2.8	0.6000000000000001	1	0	0.30000000000000004	0.7	2	4	0.6000000000000001	2.8	valid	0.3166139099994325	53248.0	0	1.0	1.0	53248	1	53248	1	53248	1	0.7	53248	blue	red	1	4	ml	2.7.3	lorasick	sub-05_ses-02_task-ml_proj-lorasick_2020-12-08-14-20-22.878888
15	5	2	1	16	volatile	1	20	16	vs	red	blue	blue	red	right	left	0.7	0.30000000000000004	4	6	2.8	1.8000000000000005	1	0	0.30000000000000004	0.7	6	4	1.8000000000000005	2.8	valid	0.3999188369998592	53248.0	0	1.0	1.0	53248	1	53248	1	51200	0	0.7	53248	blue	red	0	4	ml	2.7.3	lorasick	sub-05_ses-02_task-ml_proj-lorasick_2020-12-08-14-20-22.878888
16	5	2	1	17	volatile	1	20	17	vs	blue	red	blue	red	left	right	0.7	0.30000000000000004	6	2	4.199999999999998	0.6000000000000001	0	1	0.7	0.30000000000000004	6	2	4.199999999999998	0.6000000000000001	invalid	0.3999013120010204	51200.0	0	0.0	1.0	51200	1	51200	1	51200	1	0.7	51200	blue	red	1	0	ml	2.7.3	lorasick	sub-05_ses-02_task-ml_proj-lorasick_2020-12-08-14-20-22.878888
17	5	2	1	18	volatile	1	20	18	vs	red	blue	blue	red	right	left	0.7	0.30000000000000004	2	10	1.4	3.0000000000000004	1	0	0.30000000000000004	0.7	10	2	3.0000000000000004	1.4	valid	0.3665986920022988	53248.0	0	1.0	1.0	51200	0	53248	1	51200	0	0.7	53248	blue	red	0	2	ml	2.7.3	lorasick	sub-05_ses-02_task-ml_proj-lorasick_2020-12-08-14-20-22.878888
18	5	2	1	19	volatile	1	20	19	vs	blue	red	blue	red	left	right	0.7	0.30000000000000004	2	6	1.4	1.8000000000000005	1	0	0.7	0.30000000000000004	2	6	1.4	1.8000000000000005	valid	0.3332641320012044	51200.0	0	0.0	1.0	53248	0	51200	1	53248	0	0.7	51200	blue	red	0	2	ml	2.7.3	lorasick	sub-05_ses-02_task-ml_proj-lorasick_2020-12-08-14-20-22.878888
19	5	2	1	20	volatile	1	20	20	vs	blue	red	blue	red	left	right	0.7	0.30000000000000004	2	10	1.4	3.0000000000000004	0	1	0.7	0.30000000000000004	2	10	1.4	3.0000000000000004	invalid	0.4998838100000285	51200.0	0	0.0	1.0	53248	0	51200	1	53248	0	0.7	51200	blue	red	0	0	ml	2.7.3	lorasick	sub-05_ses-02_task-ml_proj-lorasick_2020-12-08-14-20-22.878888
20	5	2	1	21	volatile	2	20	1	vs	blue	red	blue	red	left	right	0.30000000000000004	0.7	4	2	1.2000000000000002	1.4	0	1	0.30000000000000004	0.7	4	2	1.2000000000000002	1.4	valid	0.3832466789972386	51200.0	0	0.0	1.0	53248	0	53248	0	51200	1	0.7	53248	red	blue	0	0	ml	2.7.3	lorasick	sub-05_ses-02_task-ml_proj-lorasick_2020-12-08-14-20-22.878888
21	5	2	1	22	volatile	2	20	2	vs	blue	red	blue	red	left	right	0.30000000000000004	0.7	10	2	3.0000000000000004	1.4	0	1	0.30000000000000004	0.7	10	2	3.0000000000000004	1.4	valid	0.4832214959969861	51200.0	0	0.0	1.0	51200	1	53248	0	51200	1	0.7	53248	red	blue	0	0	ml	2.7.3	lorasick	sub-05_ses-02_task-ml_proj-lorasick_2020-12-08-14-20-22.878888
22	5	2	1	23	volatile	2	20	3	vs	red	blue	blue	red	right	left	0.30000000000000004	0.7	6	6	1.8000000000000005	4.199999999999998	0	1	0.7	0.30000000000000004	6	6	4.199999999999998	1.8000000000000005	valid	0.4165787940000881	51200.0	0	0.0	2.0	51200	1	51200	1	53248	0	0.7	51200	red	blue	1	6	ml	2.7.3	lorasick	sub-05_ses-02_task-ml_proj-lorasick_2020-12-08-14-20-22.878888
23	5	2	1	24	volatile	2	20	4	vs	red	blue	blue	red	right	left	0.30000000000000004	0.7	2	2	0.6000000000000001	1.4	1	0	0.7	0.30000000000000004	2	2	1.4	0.6000000000000001	invalid	0.3665920280000137	51200.0	0	0.0	2.0	51200	1	51200	1	53248	0	0.7	51200	red	blue	1	0	ml	2.7.3	lorasick	sub-05_ses-02_task-ml_proj-lorasick_2020-12-08-14-20-22.878888
24	5	2	1	25	volatile	2	20	5	vs	blue	red	blue	red	left	right	0.30000000000000004	0.7	6	4	1.8000000000000005	2.8	1	0	0.30000000000000004	0.7	6	4	1.8000000000000005	2.8	invalid	0.3999429690011311	53248.0	0	1.0	2.0	53248	1	53248	1	51200	0	0.7	53248	red	blue	0	0	ml	2.7.3	lorasick	sub-05_ses-02_task-ml_proj-lorasick_2020-12-08-14-20-22.878888
25	5	2	1	26	volatile	2	20	6	vs	blue	red	blue	red	left	right	0.30000000000000004	0.7	10	2	3.0000000000000004	1.4	0	1	0.30000000000000004	0.7	10	2	3.0000000000000004	1.4	valid	0.33327421300054993	53248.0	0	1.0	2.0	51200	0	53248	1	51200	0	0.7	53248	red	blue	0	2	ml	2.7.3	lorasick	sub-05_ses-02_task-ml_proj-lorasick_2020-12-08-14-20-22.878888
26	5	2	1	27	volatile	2	20	7	vs	red	blue	blue	red	right	left	0.30000000000000004	0.7	6	4	1.8000000000000005	2.8	0	1	0.7	0.30000000000000004	4	6	2.8	1.8000000000000005	valid	0.3332645529990259	51200.0	0	0.0	2.0	51200	1	51200	1	53248	0	0.7	51200	red	blue	0	4	ml	2.7.3	lorasick	sub-05_ses-02_task-ml_proj-lorasick_2020-12-08-14-20-22.878888
27	5	2	1	28	volatile	2	20	8	vs	red	blue	blue	red	right	left	0.30000000000000004	0.7	4	6	1.2000000000000002	4.199999999999998	0	1	0.7	0.30000000000000004	6	4	4.199999999999998	1.2000000000000002	valid	0.3166067919992201	51200.0	0	0.0	2.0	51200	1	51200	1	51200	1	0.7	51200	red	blue	1	6	ml	2.7.3	lorasick	sub-05_ses-02_task-ml_proj-lorasick_2020-12-08-14-20-22.878888
28	5	2	1	29	volatile	2	20	9	vs	blue	red	blue	red	left	right	0.30000000000000004	0.7	6	2	1.8000000000000005	1.4	1	0	0.30000000000000004	0.7	6	2	1.8000000000000005	1.4	invalid	0.3499356729989813	53248.0	0	1.0	2.0	51200	0	53248	1	51200	0	0.7	53248	red	blue	0	0	ml	2.7.3	lorasick	sub-05_ses-02_task-ml_proj-lorasick_2020-12-08-14-20-22.878888
29	5	2	1	30	volatile	2	20	10	vs	red	blue	blue	red	right	left	0.30000000000000004	0.7	4	2	1.2000000000000002	1.4	1	0	0.7	0.30000000000000004	2	4	1.4	1.2000000000000002	invalid	0.5165448790030496	51200.0	0	0.0	2.0	51200	1	51200	1	53248	0	0.7	51200	red	blue	0	0	ml	2.7.3	lorasick	sub-05_ses-02_task-ml_proj-lorasick_2020-12-08-14-20-22.878888
30	5	2	1	31	volatile	2	20	11	vs	blue	red	blue	red	left	right	0.30000000000000004	0.7	2	6	0.6000000000000001	4.199999999999998	0	1	0.30000000000000004	0.7	2	6	0.6000000000000001	4.199999999999998	valid	0.6498465149998083	53248.0	0	1.0	2.0	53248	1	53248	1	53248	1	0.7	53248	red	blue	1	6	ml	2.7.3	lorasick	sub-05_ses-02_task-ml_proj-lorasick_2020-12-08-14-20-22.878888
31	5	2	1	32	volatile	2	20	12	vs	blue	red	blue	red	left	right	0.30000000000000004	0.7	2	4	0.6000000000000001	2.8	1	0	0.30000000000000004	0.7	2	4	0.6000000000000001	2.8	invalid	0.3499365940006101	53248.0	0	1.0	2.0	53248	1	53248	1	53248	1	0.7	53248	red	blue	1	0	ml	2.7.3	lorasick	sub-05_ses-02_task-ml_proj-lorasick_2020-12-08-14-20-22.878888
32	5	2	1	33	volatile	2	20	13	vs	red	blue	blue	red	right	left	0.30000000000000004	0.7	6	2	1.8000000000000005	1.4	0	1	0.7	0.30000000000000004	2	6	1.4	1.8000000000000005	valid	0.3499423350003781	51200.0	0	0.0	2.0	53248	0	51200	1	53248	0	0.7	51200	red	blue	0	2	ml	2.7.3	lorasick	sub-05_ses-02_task-ml_proj-lorasick_2020-12-08-14-20-22.878888
33	5	2	1	34	volatile	2	20	14	vs	red	blue	blue	red	right	left	0.30000000000000004	0.7	10	2	3.0000000000000004	1.4	1	0	0.7	0.30000000000000004	2	10	1.4	3.0000000000000004	invalid	0.3332641380002315	51200.0	0	0.0	2.0	53248	0	51200	1	53248	0	0.7	51200	red	blue	0	0	ml	2.7.3	lorasick	sub-05_ses-02_task-ml_proj-lorasick_2020-12-08-14-20-22.878888
34	5	2	1	35	volatile	2	20	15	vs	red	blue	blue	red	right	left	0.30000000000000004	0.7	2	6	0.6000000000000001	4.199999999999998	0	1	0.7	0.30000000000000004	6	2	4.199999999999998	0.6000000000000001	valid	0.3832449190012994	51200.0	0	0.0	2.0	51200	1	51200	1	51200	1	0.7	51200	red	blue	1	6	ml	2.7.3	lorasick	sub-05_ses-02_task-ml_proj-lorasick_2020-12-08-14-20-22.878888
35	5	2	1	36	volatile	2	20	16	vs	red	blue	blue	red	right	left	0.30000000000000004	0.7	2	2	0.6000000000000001	1.4	0	1	0.7	0.30000000000000004	2	2	1.4	0.6000000000000001	valid	0.3332621039990045	51200.0	0	0.0	2.0	51200	1	51200	1	53248	0	0.7	51200	red	blue	1	2	ml	2.7.3	lorasick	sub-05_ses-02_task-ml_proj-lorasick_2020-12-08-14-20-22.878888
36	5	2	1	37	volatile	2	20	17	vs	blue	red	blue	red	left	right	0.30000000000000004	0.7	6	6	1.8000000000000005	4.199999999999998	0	1	0.30000000000000004	0.7	6	6	1.8000000000000005	4.199999999999998	valid	0.4998963630023354	53248.0	0	1.0	2.0	53248	1	53248	1	53248	1	0.7	53248	red	blue	0	6	ml	2.7.3	lorasick	sub-05_ses-02_task-ml_proj-lorasick_2020-12-08-14-20-22.878888
37	5	2	1	38	volatile	2	20	18	vs	blue	red	blue	red	left	right	0.30000000000000004	0.7	2	10	0.6000000000000001	7.0	0	1	0.30000000000000004	0.7	2	10	0.6000000000000001	7.0	valid	0.4165858460000891	53248.0	0	1.0	2.0	53248	1	53248	1	53248	1	0.7	53248	red	blue	1	10	ml	2.7.3	lorasick	sub-05_ses-02_task-ml_proj-lorasick_2020-12-08-14-20-22.878888
38	5	2	1	39	volatile	2	20	19	vs	blue	red	blue	red	left	right	0.30000000000000004	0.7	4	2	1.2000000000000002	1.4	0	1	0.30000000000000004	0.7	4	2	1.2000000000000002	1.4	valid	0.5498816260005697	53248.0	0	1.0	2.0	53248	1	53248	1	51200	0	0.7	53248	red	blue	0	2	ml	2.7.3	lorasick	sub-05_ses-02_task-ml_proj-lorasick_2020-12-08-14-20-22.878888
39	5	2	1	40	volatile	2	20	20	vs	red	blue	blue	red	right	left	0.30000000000000004	0.7	6	4	1.8000000000000005	2.8	0	1	0.7	0.30000000000000004	4	6	2.8	1.8000000000000005	valid	0.3166042750017368	51200.0	0	0.0	2.0	51200	1	51200	1	53248	0	0.7	51200	red	blue	0	4	ml	2.7.3	lorasick	sub-05_ses-02_task-ml_proj-lorasick_2020-12-08-14-20-22.878888
40	5	2	1	41	volatile	3	20	1	vs	red	blue	blue	red	right	left	0.7	0.30000000000000004	4	6	2.8	1.8000000000000005	1	0	0.30000000000000004	0.7	6	4	1.8000000000000005	2.8	valid	0.39990977200068295	51200.0	0	0.0	2.0	53248	0	53248	0	51200	1	0.7	53248	blue	red	0	0	ml	2.7.3	lorasick	sub-05_ses-02_task-ml_proj-lorasick_2020-12-08-14-20-22.878888
41	5	2	1	42	volatile	3	20	2	vs	red	blue	blue	red	right	left	0.7	0.30000000000000004	10	2	7.0	0.6000000000000001	0	1	0.30000000000000004	0.7	2	10	0.6000000000000001	7.0	invalid	0.5165456469985656	51200.0	0	0.0	2.0	53248	0	53248	0	53248	0	0.7	53248	blue	red	1	2	ml	2.7.3	lorasick	sub-05_ses-02_task-ml_proj-lorasick_2020-12-08-14-20-22.878888
42	5	2	1	43	volatile	3	20	3	vs	blue	red	blue	red	left	right	0.7	0.30000000000000004	2	6	1.4	1.8000000000000005	1	0	0.7	0.30000000000000004	2	6	1.4	1.8000000000000005	valid	0.3332749440014595	53248.0	0	1.0	2.0	53248	1	51200	0	53248	1	0.7	51200	blue	red	0	0	ml	2.7.3	lorasick	sub-05_ses-02_task-ml_proj-lorasick_2020-12-08-14-20-22.878888
43	5	2	1	44	volatile	3	20	4	vs	blue	red	blue	red	left	right	0.7	0.30000000000000004	10	2	7.0	0.6000000000000001	1	0	0.7	0.30000000000000004	10	2	7.0	0.6000000000000001	valid	0.3998931349997292	51200.0	0	0.0	1.0	51200	1	51200	1	51200	1	0.7	51200	blue	red	1	10	ml	2.7.3	lorasick	sub-05_ses-02_task-ml_proj-lorasick_2020-12-08-14-20-22.878888
44	5	2	1	45	volatile	3	20	5	vs	red	blue	blue	red	right	left	0.7	0.30000000000000004	4	2	2.8	0.6000000000000001	1	0	0.30000000000000004	0.7	2	4	0.6000000000000001	2.8	valid	0.31660616100271	53248.0	0	1.0	1.0	53248	1	53248	1	53248	1	0.7	53248	blue	red	1	4	ml	2.7.3	lorasick	sub-05_ses-02_task-ml_proj-lorasick_2020-12-08-14-20-22.878888
45	5	2	1	46	volatile	3	20	6	vs	red	blue	blue	red	right	left	0.7	0.30000000000000004	2	6	1.4	1.8000000000000005	0	1	0.30000000000000004	0.7	6	2	1.8000000000000005	1.4	invalid	0.3832620350003708	53248.0	0	1.0	1.0	51200	0	53248	1	51200	0	0.7	53248	blue	red	0	0	ml	2.7.3	lorasick	sub-05_ses-02_task-ml_proj-lorasick_2020-12-08-14-20-22.878888
46	5	2	1	47	volatile	3	20	7	vs	blue	red	blue	red	left	right	0.7	0.30000000000000004	2	4	1.4	1.2000000000000002	0	1	0.7	0.30000000000000004	2	4	1.4	1.2000000000000002	invalid	0.3665873650024878	51200.0	0	0.0	1.0	51200	1	51200	1	53248	0	0.7	51200	blue	red	0	0	ml	2.7.3	lorasick	sub-05_ses-02_task-ml_proj-lorasick_2020-12-08-14-20-22.878888
47	5	2	1	48	volatile	3	20	8	vs	red	blue	blue	red	right	left	0.7	0.30000000000000004	2	4	1.4	1.2000000000000002	1	0	0.30000000000000004	0.7	4	2	1.2000000000000002	1.4	valid	0.28328647300077137	53248.0	0	1.0	1.0	53248	1	53248	1	51200	0	0.7	53248	blue	red	0	2	ml	2.7.3	lorasick	sub-05_ses-02_task-ml_proj-lorasick_2020-12-08-14-20-22.878888
48	5	2	1	49	volatile	3	20	9	vs	red	blue	blue	red	right	left	0.7	0.30000000000000004	2	2	1.4	0.6000000000000001	0	1	0.30000000000000004	0.7	2	2	0.6000000000000001	1.4	invalid	0.4499000819996581	53248.0	0	1.0	1.0	53248	1	53248	1	53248	1	0.7	53248	blue	red	0	0	ml	2.7.3	lorasick	sub-05_ses-02_task-ml_proj-lorasick_2020-12-08-14-20-22.878888
49	5	2	1	50	volatile	3	20	10	vs	blue	red	blue	red	left	right	0.7	0.30000000000000004	10	2	7.0	0.6000000000000001	0	1	0.7	0.30000000000000004	10	2	7.0	0.6000000000000001	invalid	0.3999109690012119	51200.0	0	0.0	1.0	51200	1	51200	1	51200	1	0.7	51200	blue	red	1	0	ml	2.7.3	lorasick	sub-05_ses-02_task-ml_proj-lorasick_2020-12-08-14-20-22.878888
50	5	2	2	51	volatile	3	20	11	vs	blue	red	blue	red	left	right	0.7	0.30000000000000004	6	2	4.199999999999998	0.6000000000000001	1	0	0.7	0.30000000000000004	6	2	4.199999999999998	0.6000000000000001	valid	0.5831942639997578	51200.0	0	0.0	1.0	51200	1	51200	1	51200	1	0.7	51200	blue	red	1	6	ml	2.7.3	lorasick	sub-05_ses-02_task-ml_proj-lorasick_2020-12-08-14-20-22.878888
51	5	2	2	52	volatile	3	20	12	vs	red	blue	blue	red	right	left	0.7	0.30000000000000004	2	2	1.4	0.6000000000000001	1	0	0.30000000000000004	0.7	2	2	0.6000000000000001	1.4	valid	0.4998922430022503	53248.0	0	1.0	1.0	53248	1	53248	1	53248	1	0.7	53248	blue	red	0	2	ml	2.7.3	lorasick	sub-05_ses-02_task-ml_proj-lorasick_2020-12-08-14-20-22.878888
52	5	2	2	53	volatile	3	20	13	vs	red	blue	blue	red	right	left	0.7	0.30000000000000004	6	6	4.199999999999998	1.8000000000000005	1	0	0.30000000000000004	0.7	6	6	1.8000000000000005	4.199999999999998	valid	0.433245453001291	53248.0	0	1.0	1.0	53248	1	53248	1	53248	1	0.7	53248	blue	red	0	6	ml	2.7.3	lorasick	sub-05_ses-02_task-ml_proj-lorasick_2020-12-08-14-20-22.878888
53	5	2	2	54	volatile	3	20	14	vs	blue	red	blue	red	left	right	0.7	0.30000000000000004	2	10	1.4	3.0000000000000004	1	0	0.7	0.30000000000000004	2	10	1.4	3.0000000000000004	valid	0.49987464600053494	51200.0	0	0.0	1.0	53248	0	51200	1	53248	0	0.7	51200	blue	red	0	2	ml	2.7.3	lorasick	sub-05_ses-02_task-ml_proj-lorasick_2020-12-08-14-20-22.878888
54	5	2	2	55	volatile	3	20	15	vs	red	blue	blue	red	right	left	0.7	0.30000000000000004	2	4	1.4	1.2000000000000002	1	0	0.30000000000000004	0.7	4	2	1.2000000000000002	1.4	valid	0.26662626400138834	53248.0	0	1.0	1.0	53248	1	53248	1	51200	0	0.7	53248	blue	red	0	2	ml	2.7.3	lorasick	sub-05_ses-02_task-ml_proj-lorasick_2020-12-08-14-20-22.878888
55	5	2	2	56	volatile	3	20	16	vs	blue	red	blue	red	left	right	0.7	0.30000000000000004	6	6	4.199999999999998	1.8000000000000005	1	0	0.7	0.30000000000000004	6	6	4.199999999999998	1.8000000000000005	valid	0.31659898499856354	51200.0	0	0.0	1.0	51200	1	51200	1	53248	0	0.7	51200	blue	red	1	6	ml	2.7.3	lorasick	sub-05_ses-02_task-ml_proj-lorasick_2020-12-08-14-20-22.878888
56	5	2	2	57	volatile	3	20	17	vs	blue	red	blue	red	left	right	0.7	0.30000000000000004	2	6	1.4	1.8000000000000005	1	0	0.7	0.30000000000000004	2	6	1.4	1.8000000000000005	valid	0.36658610200174735	51200.0	0	0.0	1.0	53248	0	51200	1	53248	0	0.7	51200	blue	red	0	2	ml	2.7.3	lorasick	sub-05_ses-02_task-ml_proj-lorasick_2020-12-08-14-20-22.878888
57	5	2	2	58	volatile	3	20	18	vs	blue	red	blue	red	left	right	0.7	0.30000000000000004	4	6	2.8	1.8000000000000005	0	1	0.7	0.30000000000000004	4	6	2.8	1.8000000000000005	invalid	0.4165802160023304	51200.0	0	0.0	1.0	51200	1	51200	1	53248	0	0.7	51200	blue	red	0	0	ml	2.7.3	lorasick	sub-05_ses-02_task-ml_proj-lorasick_2020-12-08-14-20-22.878888
58	5	2	2	59	volatile	3	20	19	vs	red	blue	blue	red	right	left	0.7	0.30000000000000004	4	6	2.8	1.8000000000000005	1	0	0.30000000000000004	0.7	6	4	1.8000000000000005	2.8	valid	0.3999197489974904	53248.0	0	1.0	1.0	53248	1	53248	1	51200	0	0.7	53248	blue	red	0	4	ml	2.7.3	lorasick	sub-05_ses-02_task-ml_proj-lorasick_2020-12-08-14-20-22.878888
59	5	2	2	60	volatile	3	20	20	vs	blue	red	blue	red	left	right	0.7	0.30000000000000004	4	6	2.8	1.8000000000000005	1	0	0.7	0.30000000000000004	4	6	2.8	1.8000000000000005	valid	0.8831115870016221	53248.0	0	1.0	2.0	51200	0	51200	0	53248	1	0.7	51200	blue	red	0	0	ml	2.7.3	lorasick	sub-05_ses-02_task-ml_proj-lorasick_2020-12-08-14-20-22.878888
60	5	2	2	61	volatile	4	40	1	vs	red	blue	blue	red	right	left	0.30000000000000004	0.7	6	4	1.8000000000000005	2.8	1	0	0.7	0.30000000000000004	4	6	2.8	1.8000000000000005	invalid	0.3832590399979381	53248.0	0	1.0	1.0	51200	0	51200	0	53248	1	0.7	51200	red	blue	0	6	ml	2.7.3	lorasick	sub-05_ses-02_task-ml_proj-lorasick_2020-12-08-14-20-22.878888
61	5	2	2	62	volatile	4	40	2	vs	red	blue	blue	red	right	left	0.30000000000000004	0.7	4	2	1.2000000000000002	1.4	0	1	0.7	0.30000000000000004	2	4	1.4	1.2000000000000002	valid	0.3499377869993623	53248.0	0	1.0	1.0	51200	0	51200	0	53248	1	0.7	51200	red	blue	0	0	ml	2.7.3	lorasick	sub-05_ses-02_task-ml_proj-lorasick_2020-12-08-14-20-22.878888
62	5	2	2	63	volatile	4	40	3	vs	blue	red	blue	red	left	right	0.30000000000000004	0.7	6	6	1.8000000000000005	4.199999999999998	0	1	0.30000000000000004	0.7	6	6	1.8000000000000005	4.199999999999998	valid	0.3832503000012366	51200.0	0	0.0	1.0	53248	0	53248	0	53248	0	0.7	53248	red	blue	0	0	ml	2.7.3	lorasick	sub-05_ses-02_task-ml_proj-lorasick_2020-12-08-14-20-22.878888
63	5	2	2	64	volatile	4	40	4	vs	red	blue	blue	red	right	left	0.30000000000000004	0.7	2	2	0.6000000000000001	1.4	0	1	0.7	0.30000000000000004	2	2	1.4	0.6000000000000001	valid	0.3499234090013488	51200.0	0	0.0	2.0	51200	1	51200	1	53248	0	0.7	51200	red	blue	1	2	ml	2.7.3	lorasick	sub-05_ses-02_task-ml_proj-lorasick_2020-12-08-14-20-22.878888
64	5	2	2	65	volatile	4	40	5	vs	red	blue	blue	red	right	left	0.30000000000000004	0.7	6	4	1.8000000000000005	2.8	0	1	0.7	0.30000000000000004	4	6	2.8	1.8000000000000005	valid	0.3332603970011405	51200.0	0	0.0	2.0	51200	1	51200	1	53248	0	0.7	51200	red	blue	0	4	ml	2.7.3	lorasick	sub-05_ses-02_task-ml_proj-lorasick_2020-12-08-14-20-22.878888
65	5	2	2	66	volatile	4	40	6	vs	blue	red	blue	red	left	right	0.30000000000000004	0.7	6	2	1.8000000000000005	1.4	0	1	0.30000000000000004	0.7	6	2	1.8000000000000005	1.4	valid	0.31661075599913596	53248.0	0	1.0	2.0	51200	0	53248	1	51200	0	0.7	53248	red	blue	0	2	ml	2.7.3	lorasick	sub-05_ses-02_task-ml_proj-lorasick_2020-12-08-14-20-22.878888
66	5	2	2	67	volatile	4	40	7	vs	red	blue	blue	red	right	left	0.30000000000000004	0.7	4	2	1.2000000000000002	1.4	1	0	0.7	0.30000000000000004	2	4	1.4	1.2000000000000002	invalid	0.3166023919984582	51200.0	0	0.0	2.0	51200	1	51200	1	53248	0	0.7	51200	red	blue	0	0	ml	2.7.3	lorasick	sub-05_ses-02_task-ml_proj-lorasick_2020-12-08-14-20-22.878888
67	5	2	2	68	volatile	4	40	8	vs	blue	red	blue	red	left	right	0.30000000000000004	0.7	6	6	1.8000000000000005	4.199999999999998	1	0	0.30000000000000004	0.7	6	6	1.8000000000000005	4.199999999999998	invalid	0.3499360410023655	53248.0	0	1.0	2.0	53248	1	53248	1	53248	1	0.7	53248	red	blue	0	0	ml	2.7.3	lorasick	sub-05_ses-02_task-ml_proj-lorasick_2020-12-08-14-20-22.878888
68	5	2	2	69	volatile	4	40	9	vs	blue	red	blue	red	left	right	0.30000000000000004	0.7	2	6	0.6000000000000001	4.199999999999998	0	1	0.30000000000000004	0.7	2	6	0.6000000000000001	4.199999999999998	valid	0.3332629889991949	51200.0	0	0.0	1.0	53248	0	53248	0	53248	0	0.7	53248	red	blue	1	0	ml	2.7.3	lorasick	sub-05_ses-02_task-ml_proj-lorasick_2020-12-08-14-20-22.878888
69	5	2	2	70	volatile	4	40	10	vs	blue	red	blue	red	left	right	0.30000000000000004	0.7	4	2	1.2000000000000002	1.4	0	1	0.30000000000000004	0.7	4	2	1.2000000000000002	1.4	valid	0.3332749859982869	53248.0	0	1.0	2.0	53248	1	53248	1	51200	0	0.7	53248	red	blue	0	2	ml	2.7.3	lorasick	sub-05_ses-02_task-ml_proj-lorasick_2020-12-08-14-20-22.878888
70	5	2	2	71	volatile	4	40	11	vs	blue	red	blue	red	left	right	0.30000000000000004	0.7	4	2	1.2000000000000002	1.4	0	1	0.30000000000000004	0.7	4	2	1.2000000000000002	1.4	valid	0.3166226719986298	53248.0	0	1.0	2.0	53248	1	53248	1	51200	0	0.7	53248	red	blue	0	2	ml	2.7.3	lorasick	sub-05_ses-02_task-ml_proj-lorasick_2020-12-08-14-20-22.878888
71	5	2	2	72	volatile	4	40	12	vs	blue	red	blue	red	left	right	0.30000000000000004	0.7	6	4	1.8000000000000005	2.8	0	1	0.30000000000000004	0.7	6	4	1.8000000000000005	2.8	valid	0.8831133849998878	53248.0	0	1.0	2.0	53248	1	53248	1	51200	0	0.7	53248	red	blue	0	4	ml	2.7.3	lorasick	sub-05_ses-02_task-ml_proj-lorasick_2020-12-08-14-20-22.878888
72	5	2	2	73	volatile	4	40	13	vs	blue	red	blue	red	left	right	0.30000000000000004	0.7	4	6	1.2000000000000002	4.199999999999998	1	0	0.30000000000000004	0.7	4	6	1.2000000000000002	4.199999999999998	invalid	0.34993390800082125	53248.0	0	1.0	2.0	53248	1	53248	1	53248	1	0.7	53248	red	blue	1	0	ml	2.7.3	lorasick	sub-05_ses-02_task-ml_proj-lorasick_2020-12-08-14-20-22.878888
73	5	2	2	74	volatile	4	40	14	vs	blue	red	blue	red	left	right	0.30000000000000004	0.7	6	4	1.8000000000000005	2.8	0	1	0.30000000000000004	0.7	6	4	1.8000000000000005	2.8	valid	0.3332833499989647	53248.0	0	1.0	2.0	53248	1	53248	1	51200	0	0.7	53248	red	blue	0	4	ml	2.7.3	lorasick	sub-05_ses-02_task-ml_proj-lorasick_2020-12-08-14-20-22.878888
74	5	2	2	75	volatile	4	40	15	vs	red	blue	blue	red	right	left	0.30000000000000004	0.7	2	6	0.6000000000000001	4.199999999999998	0	1	0.7	0.30000000000000004	6	2	4.199999999999998	0.6000000000000001	valid	0.6831619379991025	51200.0	0	0.0	2.0	51200	1	51200	1	51200	1	0.7	51200	red	blue	1	6	ml	2.7.3	lorasick	sub-05_ses-02_task-ml_proj-lorasick_2020-12-08-14-20-22.878888
75	5	2	2	76	volatile	4	40	16	vs	red	blue	blue	red	right	left	0.30000000000000004	0.7	4	2	1.2000000000000002	1.4	1	0	0.7	0.30000000000000004	2	4	1.4	1.2000000000000002	invalid	0.8498075469979085	53248.0	0	1.0	1.0	51200	0	51200	0	53248	1	0.7	51200	red	blue	0	4	ml	2.7.3	lorasick	sub-05_ses-02_task-ml_proj-lorasick_2020-12-08-14-20-22.878888
76	5	2	2	77	volatile	4	40	17	vs	red	blue	blue	red	right	left	0.30000000000000004	0.7	2	2	0.6000000000000001	1.4	0	1	0.7	0.30000000000000004	2	2	1.4	0.6000000000000001	valid	0.5331992610008456	51200.0	0	0.0	2.0	51200	1	51200	1	53248	0	0.7	51200	red	blue	1	2	ml	2.7.3	lorasick	sub-05_ses-02_task-ml_proj-lorasick_2020-12-08-14-20-22.878888
77	5	2	2	78	volatile	4	40	18	vs	red	blue	blue	red	right	left	0.30000000000000004	0.7	2	10	0.6000000000000001	7.0	0	1	0.7	0.30000000000000004	10	2	7.0	0.6000000000000001	valid	0.3499246179999318	51200.0	0	0.0	2.0	51200	1	51200	1	51200	1	0.7	51200	red	blue	1	10	ml	2.7.3	lorasick	sub-05_ses-02_task-ml_proj-lorasick_2020-12-08-14-20-22.878888
78	5	2	2	79	volatile	4	40	19	vs	blue	red	blue	red	left	right	0.30000000000000004	0.7	4	6	1.2000000000000002	4.199999999999998	0	1	0.30000000000000004	0.7	4	6	1.2000000000000002	4.199999999999998	valid	0.3832539570030349	53248.0	0	1.0	2.0	53248	1	53248	1	53248	1	0.7	53248	red	blue	1	6	ml	2.7.3	lorasick	sub-05_ses-02_task-ml_proj-lorasick_2020-12-08-14-20-22.878888
79	5	2	2	80	volatile	4	40	20	vs	red	blue	blue	red	right	left	0.30000000000000004	0.7	2	2	0.6000000000000001	1.4	1	0	0.7	0.30000000000000004	2	2	1.4	0.6000000000000001	invalid	0.3832493079971755	51200.0	0	0.0	2.0	51200	1	51200	1	53248	0	0.7	51200	red	blue	1	0	ml	2.7.3	lorasick	sub-05_ses-02_task-ml_proj-lorasick_2020-12-08-14-20-22.878888
80	5	2	2	81	volatile	4	40	21	vs	red	blue	blue	red	right	left	0.30000000000000004	0.7	10	2	3.0000000000000004	1.4	0	1	0.7	0.30000000000000004	2	10	1.4	3.0000000000000004	valid	0.31661449400053243	53248.0	0	1.0	1.0	53248	1	51200	0	53248	1	0.7	51200	red	blue	0	0	ml	2.7.3	lorasick	sub-05_ses-02_task-ml_proj-lorasick_2020-12-08-14-20-22.878888
81	5	2	2	82	volatile	4	40	22	vs	red	blue	blue	red	right	left	0.30000000000000004	0.7	6	6	1.8000000000000005	4.199999999999998	1	0	0.7	0.30000000000000004	6	6	4.199999999999998	1.8000000000000005	invalid	0.34992302099999506	51200.0	0	0.0	2.0	51200	1	51200	1	53248	0	0.7	51200	red	blue	1	0	ml	2.7.3	lorasick	sub-05_ses-02_task-ml_proj-lorasick_2020-12-08-14-20-22.878888
82	5	2	2	83	volatile	4	40	23	vs	blue	red	blue	red	left	right	0.30000000000000004	0.7	4	2	1.2000000000000002	1.4	0	1	0.30000000000000004	0.7	4	2	1.2000000000000002	1.4	valid	0.3832515149988467	53248.0	0	1.0	2.0	53248	1	53248	1	51200	0	0.7	53248	red	blue	0	2	ml	2.7.3	lorasick	sub-05_ses-02_task-ml_proj-lorasick_2020-12-08-14-20-22.878888
83	5	2	2	84	volatile	4	40	24	vs	blue	red	blue	red	left	right	0.30000000000000004	0.7	2	6	0.6000000000000001	4.199999999999998	0	1	0.30000000000000004	0.7	2	6	0.6000000000000001	4.199999999999998	valid	0.31660096700215945	51200.0	0	0.0	1.0	53248	0	53248	0	53248	0	0.7	53248	red	blue	1	0	ml	2.7.3	lorasick	sub-05_ses-02_task-ml_proj-lorasick_2020-12-08-14-20-22.878888
84	5	2	2	85	volatile	4	40	25	vs	blue	red	blue	red	left	right	0.30000000000000004	0.7	2	10	0.6000000000000001	7.0	0	1	0.30000000000000004	0.7	2	10	0.6000000000000001	7.0	valid	0.3499341880014981	53248.0	0	1.0	2.0	53248	1	53248	1	53248	1	0.7	53248	red	blue	1	10	ml	2.7.3	lorasick	sub-05_ses-02_task-ml_proj-lorasick_2020-12-08-14-20-22.878888
85	5	2	2	86	volatile	4	40	26	vs	red	blue	blue	red	right	left	0.30000000000000004	0.7	4	6	1.2000000000000002	4.199999999999998	0	1	0.7	0.30000000000000004	6	4	4.199999999999998	1.2000000000000002	valid	0.4998810610013607	51200.0	0	0.0	2.0	51200	1	51200	1	51200	1	0.7	51200	red	blue	1	6	ml	2.7.3	lorasick	sub-05_ses-02_task-ml_proj-lorasick_2020-12-08-14-20-22.878888
86	5	2	2	87	volatile	4	40	27	vs	red	blue	blue	red	right	left	0.30000000000000004	0.7	2	6	0.6000000000000001	4.199999999999998	0	1	0.7	0.30000000000000004	6	2	4.199999999999998	0.6000000000000001	valid	0.5332112900032371	51200.0	0	0.0	2.0	51200	1	51200	1	51200	1	0.7	51200	red	blue	1	6	ml	2.7.3	lorasick	sub-05_ses-02_task-ml_proj-lorasick_2020-12-08-14-20-22.878888
87	5	2	2	88	volatile	4	40	28	vs	blue	red	blue	red	left	right	0.30000000000000004	0.7	6	6	1.8000000000000005	4.199999999999998	1	0	0.30000000000000004	0.7	6	6	1.8000000000000005	4.199999999999998	invalid	9.563299681758508e-05	51200.0	0	0.0	1.0	53248	0	53248	0	53248	0	0.7	53248	red	blue	0	6	ml	2.7.3	lorasick	sub-05_ses-02_task-ml_proj-lorasick_2020-12-08-14-20-22.878888
88	5	2	2	89	volatile	4	40	29	vs	blue	red	blue	red	left	right	0.30000000000000004	0.7	6	4	1.8000000000000005	2.8	0	1	0.30000000000000004	0.7	6	4	1.8000000000000005	2.8	valid	0.4332295620006335	51200.0	0	0.0	1.0	53248	0	53248	0	51200	1	0.7	53248	red	blue	0	0	ml	2.7.3	lorasick	sub-05_ses-02_task-ml_proj-lorasick_2020-12-08-14-20-22.878888
89	5	2	2	90	volatile	4	40	30	vs	red	blue	blue	red	right	left	0.30000000000000004	0.7	2	10	0.6000000000000001	7.0	0	1	0.7	0.30000000000000004	10	2	7.0	0.6000000000000001	valid	0.8164588609979546	51200.0	0	0.0	2.0	51200	1	51200	1	51200	1	0.7	51200	red	blue	1	10	ml	2.7.3	lorasick	sub-05_ses-02_task-ml_proj-lorasick_2020-12-08-14-20-22.878888
90	5	2	2	91	volatile	4	40	31	vs	blue	red	blue	red	left	right	0.30000000000000004	0.7	2	10	0.6000000000000001	7.0	1	0	0.30000000000000004	0.7	2	10	0.6000000000000001	7.0	invalid	0.0833738440014713	53248.0	0	1.0	2.0	53248	1	53248	1	53248	1	0.7	53248	red	blue	1	0	ml	2.7.3	lorasick	sub-05_ses-02_task-ml_proj-lorasick_2020-12-08-14-20-22.878888
91	5	2	2	92	volatile	4	40	32	vs	blue	red	blue	red	left	right	0.30000000000000004	0.7	10	2	3.0000000000000004	1.4	0	1	0.30000000000000004	0.7	10	2	3.0000000000000004	1.4	valid	0.3332623609967413	51200.0	0	0.0	1.0	51200	1	53248	0	51200	1	0.7	53248	red	blue	0	0	ml	2.7.3	lorasick	sub-05_ses-02_task-ml_proj-lorasick_2020-12-08-14-20-22.878888
92	5	2	2	93	volatile	4	40	33	vs	red	blue	blue	red	right	left	0.30000000000000004	0.7	2	4	0.6000000000000001	2.8	0	1	0.7	0.30000000000000004	4	2	2.8	0.6000000000000001	valid	0.3332731579976098	53248.0	0	1.0	1.0	51200	0	51200	0	51200	0	0.7	51200	red	blue	1	0	ml	2.7.3	lorasick	sub-05_ses-02_task-ml_proj-lorasick_2020-12-08-14-20-22.878888
93	5	2	2	94	volatile	4	40	34	vs	red	blue	blue	red	right	left	0.30000000000000004	0.7	6	2	1.8000000000000005	1.4	1	0	0.7	0.30000000000000004	2	6	1.4	1.8000000000000005	invalid	0.31660117999854265	51200.0	0	0.0	2.0	53248	0	51200	1	53248	0	0.7	51200	red	blue	0	0	ml	2.7.3	lorasick	sub-05_ses-02_task-ml_proj-lorasick_2020-12-08-14-20-22.878888
94	5	2	2	95	volatile	4	40	35	vs	red	blue	blue	red	right	left	0.30000000000000004	0.7	4	2	1.2000000000000002	1.4	0	1	0.7	0.30000000000000004	2	4	1.4	1.2000000000000002	valid	0.4999079609988257	51200.0	0	0.0	2.0	51200	1	51200	1	53248	0	0.7	51200	red	blue	0	2	ml	2.7.3	lorasick	sub-05_ses-02_task-ml_proj-lorasick_2020-12-08-14-20-22.878888
95	5	2	2	96	volatile	4	40	36	vs	red	blue	blue	red	right	left	0.30000000000000004	0.7	6	2	1.8000000000000005	1.4	0	1	0.7	0.30000000000000004	2	6	1.4	1.8000000000000005	valid	1.0497274810004456	51200.0	0	0.0	2.0	53248	0	51200	1	53248	0	0.7	51200	red	blue	0	2	ml	2.7.3	lorasick	sub-05_ses-02_task-ml_proj-lorasick_2020-12-08-14-20-22.878888
96	5	2	2	97	volatile	4	40	37	vs	blue	red	blue	red	left	right	0.30000000000000004	0.7	2	2	0.6000000000000001	1.4	1	0	0.30000000000000004	0.7	2	2	0.6000000000000001	1.4	invalid	0.36658083600195823	51200.0	0	0.0	1.0	53248	0	53248	0	53248	0	0.7	53248	red	blue	0	2	ml	2.7.3	lorasick	sub-05_ses-02_task-ml_proj-lorasick_2020-12-08-14-20-22.878888
97	5	2	2	98	volatile	4	40	38	vs	blue	red	blue	red	left	right	0.30000000000000004	0.7	2	10	0.6000000000000001	7.0	1	0	0.30000000000000004	0.7	2	10	0.6000000000000001	7.0	invalid	0.4499145240006328	53248.0	0	1.0	2.0	53248	1	53248	1	53248	1	0.7	53248	red	blue	1	0	ml	2.7.3	lorasick	sub-05_ses-02_task-ml_proj-lorasick_2020-12-08-14-20-22.878888
98	5	2	2	99	volatile	4	40	39	vs	blue	red	blue	red	left	right	0.30000000000000004	0.7	10	2	3.0000000000000004	1.4	0	1	0.30000000000000004	0.7	10	2	3.0000000000000004	1.4	valid	0.3665926590001618	51200.0	0	0.0	1.0	51200	1	53248	0	51200	1	0.7	53248	red	blue	0	0	ml	2.7.3	lorasick	sub-05_ses-02_task-ml_proj-lorasick_2020-12-08-14-20-22.878888
99	5	2	2	100	volatile	4	40	40	vs	red	blue	blue	red	right	left	0.30000000000000004	0.7	2	6	0.6000000000000001	4.199999999999998	0	1	0.7	0.30000000000000004	6	2	4.199999999999998	0.6000000000000001	valid	0.4499114410027687	53248.0	0	1.0	1.0	51200	0	51200	0	51200	0	0.7	51200	red	blue	1	0	ml	2.7.3	lorasick	sub-05_ses-02_task-ml_proj-lorasick_2020-12-08-14-20-22.878888
100	5	2	3	101	volatile	5	40	1	vs	blue	red	blue	red	left	right	0.7	0.30000000000000004	2	6	1.4	1.8000000000000005	1	0	0.7	0.30000000000000004	2	6	1.4	1.8000000000000005	valid	0.5165720500008321	53248.0	0	1.0	2.0	53248	1	51200	0	53248	1	0.7	51200	blue	red	0	0	ml	2.7.3	lorasick	sub-05_ses-02_task-ml_proj-lorasick_2020-12-08-14-20-22.878888
101	5	2	3	102	volatile	5	40	2	vs	blue	red	blue	red	left	right	0.7	0.30000000000000004	6	2	4.199999999999998	0.6000000000000001	1	0	0.7	0.30000000000000004	6	2	4.199999999999998	0.6000000000000001	valid	0.3832646479968389	53248.0	0	1.0	2.0	51200	0	51200	0	51200	0	0.7	51200	blue	red	1	0	ml	2.7.3	lorasick	sub-05_ses-02_task-ml_proj-lorasick_2020-12-08-14-20-22.878888
102	5	2	3	103	volatile	5	40	3	vs	blue	red	blue	red	left	right	0.7	0.30000000000000004	6	6	4.199999999999998	1.8000000000000005	0	1	0.7	0.30000000000000004	6	6	4.199999999999998	1.8000000000000005	invalid	0.4165807249992213	53248.0	0	1.0	2.0	51200	0	51200	0	53248	1	0.7	51200	blue	red	1	6	ml	2.7.3	lorasick	sub-05_ses-02_task-ml_proj-lorasick_2020-12-08-14-20-22.878888
103	5	2	3	104	volatile	5	40	4	vs	blue	red	blue	red	left	right	0.7	0.30000000000000004	6	6	4.199999999999998	1.8000000000000005	0	1	0.7	0.30000000000000004	6	6	4.199999999999998	1.8000000000000005	invalid	0.3832652900018729	53248.0	0	1.0	2.0	51200	0	51200	0	53248	1	0.7	51200	blue	red	1	6	ml	2.7.3	lorasick	sub-05_ses-02_task-ml_proj-lorasick_2020-12-08-14-20-22.878888
104	5	2	3	105	volatile	5	40	5	vs	red	blue	blue	red	right	left	0.7	0.30000000000000004	2	2	1.4	0.6000000000000001	1	0	0.30000000000000004	0.7	2	2	0.6000000000000001	1.4	valid	0.3999122770001122	51200.0	0	0.0	2.0	53248	0	53248	0	53248	0	0.7	53248	blue	red	0	0	ml	2.7.3	lorasick	sub-05_ses-02_task-ml_proj-lorasick_2020-12-08-14-20-22.878888
105	5	2	3	106	volatile	5	40	6	vs	blue	red	blue	red	left	right	0.7	0.30000000000000004	6	6	4.199999999999998	1.8000000000000005	0	1	0.7	0.30000000000000004	6	6	4.199999999999998	1.8000000000000005	invalid	0.3332732270027918	53248.0	0	1.0	2.0	51200	0	51200	0	53248	1	0.7	51200	blue	red	1	6	ml	2.7.3	lorasick	sub-05_ses-02_task-ml_proj-lorasick_2020-12-08-14-20-22.878888
106	5	2	3	107	volatile	5	40	7	vs	red	blue	blue	red	right	left	0.7	0.30000000000000004	10	2	7.0	0.6000000000000001	1	0	0.30000000000000004	0.7	2	10	0.6000000000000001	7.0	valid	0.31660271900182124	51200.0	0	0.0	2.0	53248	0	53248	0	53248	0	0.7	53248	blue	red	1	0	ml	2.7.3	lorasick	sub-05_ses-02_task-ml_proj-lorasick_2020-12-08-14-20-22.878888
107	5	2	3	108	volatile	5	40	8	vs	red	blue	blue	red	right	left	0.7	0.30000000000000004	2	4	1.4	1.2000000000000002	1	0	0.30000000000000004	0.7	4	2	1.2000000000000002	1.4	valid	0.3665874559992517	51200.0	0	0.0	2.0	53248	0	53248	0	51200	1	0.7	53248	blue	red	0	0	ml	2.7.3	lorasick	sub-05_ses-02_task-ml_proj-lorasick_2020-12-08-14-20-22.878888
108	5	2	3	109	volatile	5	40	9	vs	blue	red	blue	red	left	right	0.7	0.30000000000000004	2	4	1.4	1.2000000000000002	1	0	0.7	0.30000000000000004	2	4	1.4	1.2000000000000002	valid	0.433235214000888	51200.0	0	0.0	1.0	51200	1	51200	1	53248	0	0.7	51200	blue	red	0	2	ml	2.7.3	lorasick	sub-05_ses-02_task-ml_proj-lorasick_2020-12-08-14-20-22.878888
109	5	2	3	110	volatile	5	40	10	vs	red	blue	blue	red	right	left	0.7	0.30000000000000004	4	6	2.8	1.8000000000000005	1	0	0.30000000000000004	0.7	6	4	1.8000000000000005	2.8	valid	0.38326130700079375	53248.0	0	1.0	1.0	53248	1	53248	1	51200	0	0.7	53248	blue	red	0	4	ml	2.7.3	lorasick	sub-05_ses-02_task-ml_proj-lorasick_2020-12-08-14-20-22.878888
110	5	2	3	111	volatile	5	40	11	vs	blue	red	blue	red	left	right	0.7	0.30000000000000004	6	6	4.199999999999998	1.8000000000000005	1	0	0.7	0.30000000000000004	6	6	4.199999999999998	1.8000000000000005	valid	0.466558954998618	51200.0	0	0.0	1.0	51200	1	51200	1	53248	0	0.7	51200	blue	red	1	6	ml	2.7.3	lorasick	sub-05_ses-02_task-ml_proj-lorasick_2020-12-08-14-20-22.878888
111	5	2	3	112	volatile	5	40	12	vs	red	blue	blue	red	right	left	0.7	0.30000000000000004	2	4	1.4	1.2000000000000002	1	0	0.30000000000000004	0.7	4	2	1.2000000000000002	1.4	valid	0.5998638689998188	53248.0	0	1.0	1.0	53248	1	53248	1	51200	0	0.7	53248	blue	red	0	2	ml	2.7.3	lorasick	sub-05_ses-02_task-ml_proj-lorasick_2020-12-08-14-20-22.878888
112	5	2	3	113	volatile	5	40	13	vs	blue	red	blue	red	left	right	0.7	0.30000000000000004	6	4	4.199999999999998	1.2000000000000002	1	0	0.7	0.30000000000000004	6	4	4.199999999999998	1.2000000000000002	valid	0.34992414899897994	51200.0	0	0.0	1.0	51200	1	51200	1	51200	1	0.7	51200	blue	red	1	6	ml	2.7.3	lorasick	sub-05_ses-02_task-ml_proj-lorasick_2020-12-08-14-20-22.878888
113	5	2	3	114	volatile	5	40	14	vs	blue	red	blue	red	left	right	0.7	0.30000000000000004	10	2	7.0	0.6000000000000001	1	0	0.7	0.30000000000000004	10	2	7.0	0.6000000000000001	valid	0.4665681580008823	53248.0	0	1.0	2.0	51200	0	51200	0	51200	0	0.7	51200	blue	red	1	0	ml	2.7.3	lorasick	sub-05_ses-02_task-ml_proj-lorasick_2020-12-08-14-20-22.878888
114	5	2	3	115	volatile	5	40	15	vs	blue	red	blue	red	left	right	0.7	0.30000000000000004	6	2	4.199999999999998	0.6000000000000001	1	0	0.7	0.30000000000000004	6	2	4.199999999999998	0.6000000000000001	valid	0.29994134600201505	51200.0	0	0.0	1.0	51200	1	51200	1	51200	1	0.7	51200	blue	red	1	6	ml	2.7.3	lorasick	sub-05_ses-02_task-ml_proj-lorasick_2020-12-08-14-20-22.878888
115	5	2	3	116	volatile	5	40	16	vs	red	blue	blue	red	right	left	0.7	0.30000000000000004	6	4	4.199999999999998	1.2000000000000002	0	1	0.30000000000000004	0.7	4	6	1.2000000000000002	4.199999999999998	invalid	0.3499371770012658	53248.0	0	1.0	1.0	53248	1	53248	1	53248	1	0.7	53248	blue	red	1	0	ml	2.7.3	lorasick	sub-05_ses-02_task-ml_proj-lorasick_2020-12-08-14-20-22.878888
116	5	2	3	117	volatile	5	40	17	vs	blue	red	blue	red	left	right	0.7	0.30000000000000004	2	2	1.4	0.6000000000000001	1	0	0.7	0.30000000000000004	2	2	1.4	0.6000000000000001	valid	0.2999394670005131	51200.0	0	0.0	1.0	51200	1	51200	1	53248	0	0.7	51200	blue	red	1	2	ml	2.7.3	lorasick	sub-05_ses-02_task-ml_proj-lorasick_2020-12-08-14-20-22.878888
117	5	2	3	118	volatile	5	40	18	vs	red	blue	blue	red	right	left	0.7	0.30000000000000004	6	4	4.199999999999998	1.2000000000000002	1	0	0.30000000000000004	0.7	4	6	1.2000000000000002	4.199999999999998	valid	0.26663818799715955	53248.0	0	1.0	1.0	53248	1	53248	1	53248	1	0.7	53248	blue	red	1	6	ml	2.7.3	lorasick	sub-05_ses-02_task-ml_proj-lorasick_2020-12-08-14-20-22.878888
118	5	2	3	119	volatile	5	40	19	vs	blue	red	blue	red	left	right	0.7	0.30000000000000004	6	4	4.199999999999998	1.2000000000000002	1	0	0.7	0.30000000000000004	6	4	4.199999999999998	1.2000000000000002	valid	0.399912733999372	51200.0	0	0.0	1.0	51200	1	51200	1	51200	1	0.7	51200	blue	red	1	6	ml	2.7.3	lorasick	sub-05_ses-02_task-ml_proj-lorasick_2020-12-08-14-20-22.878888
119	5	2	3	120	volatile	5	40	20	vs	red	blue	blue	red	right	left	0.7	0.30000000000000004	4	2	2.8	0.6000000000000001	0	1	0.30000000000000004	0.7	2	4	0.6000000000000001	2.8	invalid	0.2999541310018685	53248.0	0	1.0	1.0	53248	1	53248	1	53248	1	0.7	53248	blue	red	1	0	ml	2.7.3	lorasick	sub-05_ses-02_task-ml_proj-lorasick_2020-12-08-14-20-22.878888
120	5	2	3	121	volatile	5	40	21	vs	blue	red	blue	red	left	right	0.7	0.30000000000000004	10	2	7.0	0.6000000000000001	0	1	0.7	0.30000000000000004	10	2	7.0	0.6000000000000001	invalid	0.349924767997436	51200.0	0	0.0	1.0	51200	1	51200	1	51200	1	0.7	51200	blue	red	1	0	ml	2.7.3	lorasick	sub-05_ses-02_task-ml_proj-lorasick_2020-12-08-14-20-22.878888
121	5	2	3	122	volatile	5	40	22	vs	red	blue	blue	red	right	left	0.7	0.30000000000000004	10	2	7.0	0.6000000000000001	1	0	0.30000000000000004	0.7	2	10	0.6000000000000001	7.0	valid	0.4498957830001018	51200.0	0	0.0	2.0	53248	0	53248	0	53248	0	0.7	53248	blue	red	1	0	ml	2.7.3	lorasick	sub-05_ses-02_task-ml_proj-lorasick_2020-12-08-14-20-22.878888
122	5	2	3	123	volatile	5	40	23	vs	red	blue	blue	red	right	left	0.7	0.30000000000000004	2	6	1.4	1.8000000000000005	0	1	0.30000000000000004	0.7	6	2	1.8000000000000005	1.4	invalid	0.3665968300010718	53248.0	0	1.0	1.0	51200	0	53248	1	51200	0	0.7	53248	blue	red	0	0	ml	2.7.3	lorasick	sub-05_ses-02_task-ml_proj-lorasick_2020-12-08-14-20-22.878888
123	5	2	3	124	volatile	5	40	24	vs	blue	red	blue	red	left	right	0.7	0.30000000000000004	2	4	1.4	1.2000000000000002	1	0	0.7	0.30000000000000004	2	4	1.4	1.2000000000000002	valid	1.3329864560000717	53248.0	0	1.0	2.0	51200	0	51200	0	53248	1	0.7	51200	blue	red	0	0	ml	2.7.3	lorasick	sub-05_ses-02_task-ml_proj-lorasick_2020-12-08-14-20-22.878888
124	5	2	3	125	volatile	5	40	25	vs	blue	red	blue	red	left	right	0.7	0.30000000000000004	2	2	1.4	0.6000000000000001	1	0	0.7	0.30000000000000004	2	2	1.4	0.6000000000000001	valid	0.3499281700023857	51200.0	0	0.0	1.0	51200	1	51200	1	53248	0	0.7	51200	blue	red	1	2	ml	2.7.3	lorasick	sub-05_ses-02_task-ml_proj-lorasick_2020-12-08-14-20-22.878888
125	5	2	3	126	volatile	5	40	26	vs	red	blue	blue	red	right	left	0.7	0.30000000000000004	4	2	2.8	0.6000000000000001	1	0	0.30000000000000004	0.7	2	4	0.6000000000000001	2.8	valid	0.4165719029988395	51200.0	0	0.0	2.0	53248	0	53248	0	53248	0	0.7	53248	blue	red	1	0	ml	2.7.3	lorasick	sub-05_ses-02_task-ml_proj-lorasick_2020-12-08-14-20-22.878888
126	5	2	3	127	volatile	5	40	27	vs	blue	red	blue	red	left	right	0.7	0.30000000000000004	2	6	1.4	1.8000000000000005	1	0	0.7	0.30000000000000004	2	6	1.4	1.8000000000000005	valid	0.616517403999751	51200.0	0	0.0	1.0	53248	0	51200	1	53248	0	0.7	51200	blue	red	0	2	ml	2.7.3	lorasick	sub-05_ses-02_task-ml_proj-lorasick_2020-12-08-14-20-22.878888
127	5	2	3	128	volatile	5	40	28	vs	blue	red	blue	red	left	right	0.7	0.30000000000000004	2	10	1.4	3.0000000000000004	1	0	0.7	0.30000000000000004	2	10	1.4	3.0000000000000004	valid	0.5165432070025417	51200.0	0	0.0	1.0	53248	0	51200	1	53248	0	0.7	51200	blue	red	0	2	ml	2.7.3	lorasick	sub-05_ses-02_task-ml_proj-lorasick_2020-12-08-14-20-22.878888
128	5	2	3	129	volatile	5	40	29	vs	red	blue	blue	red	right	left	0.7	0.30000000000000004	4	6	2.8	1.8000000000000005	0	1	0.30000000000000004	0.7	6	4	1.8000000000000005	2.8	invalid	0.4665684530009458	53248.0	0	1.0	1.0	53248	1	53248	1	51200	0	0.7	53248	blue	red	0	0	ml	2.7.3	lorasick	sub-05_ses-02_task-ml_proj-lorasick_2020-12-08-14-20-22.878888
129	5	2	3	130	volatile	5	40	30	vs	red	blue	blue	red	right	left	0.7	0.30000000000000004	2	10	1.4	3.0000000000000004	1	0	0.30000000000000004	0.7	10	2	3.0000000000000004	1.4	valid	1.033071058001951	53248.0	0	1.0	1.0	51200	0	53248	1	51200	0	0.7	53248	blue	red	0	2	ml	2.7.3	lorasick	sub-05_ses-02_task-ml_proj-lorasick_2020-12-08-14-20-22.878888
130	5	2	3	131	volatile	5	40	31	vs	blue	red	blue	red	left	right	0.7	0.30000000000000004	4	2	2.8	0.6000000000000001	0	1	0.7	0.30000000000000004	4	2	2.8	0.6000000000000001	invalid	0.4165706139974645	51200.0	0	0.0	1.0	51200	1	51200	1	51200	1	0.7	51200	blue	red	1	0	ml	2.7.3	lorasick	sub-05_ses-02_task-ml_proj-lorasick_2020-12-08-14-20-22.878888
131	5	2	3	132	volatile	5	40	32	vs	red	blue	blue	red	right	left	0.7	0.30000000000000004	6	2	4.199999999999998	0.6000000000000001	1	0	0.30000000000000004	0.7	2	6	0.6000000000000001	4.199999999999998	valid	0.5332142649967864	53248.0	0	1.0	1.0	53248	1	53248	1	53248	1	0.7	53248	blue	red	1	6	ml	2.7.3	lorasick	sub-05_ses-02_task-ml_proj-lorasick_2020-12-08-14-20-22.878888
132	5	2	3	133	volatile	5	40	33	vs	red	blue	blue	red	right	left	0.7	0.30000000000000004	6	2	4.199999999999998	0.6000000000000001	1	0	0.30000000000000004	0.7	2	6	0.6000000000000001	4.199999999999998	valid	2.0327783200009435	53248.0	0	1.0	1.0	53248	1	53248	1	53248	1	0.7	53248	blue	red	1	6	ml	2.7.3	lorasick	sub-05_ses-02_task-ml_proj-lorasick_2020-12-08-14-20-22.878888
133	5	2	3	134	volatile	5	40	34	vs	red	blue	blue	red	right	left	0.7	0.30000000000000004	2	10	1.4	3.0000000000000004	0	1	0.30000000000000004	0.7	10	2	3.0000000000000004	1.4	invalid	0.6665103970008204	53248.0	0	1.0	1.0	51200	0	53248	1	51200	0	0.7	53248	blue	red	0	0	ml	2.7.3	lorasick	sub-05_ses-02_task-ml_proj-lorasick_2020-12-08-14-20-22.878888
134	5	2	3	135	volatile	5	40	35	vs	blue	red	blue	red	left	right	0.7	0.30000000000000004	2	2	1.4	0.6000000000000001	0	1	0.7	0.30000000000000004	2	2	1.4	0.6000000000000001	invalid	0.449907008001901	53248.0	0	1.0	2.0	51200	0	51200	0	53248	1	0.7	51200	blue	red	1	2	ml	2.7.3	lorasick	sub-05_ses-02_task-ml_proj-lorasick_2020-12-08-14-20-22.878888
135	5	2	3	136	volatile	5	40	36	vs	blue	red	blue	red	left	right	0.7	0.30000000000000004	2	10	1.4	3.0000000000000004	1	0	0.7	0.30000000000000004	2	10	1.4	3.0000000000000004	valid	1.349645034999412	53248.0	0	1.0	2.0	53248	1	51200	0	53248	1	0.7	51200	blue	red	0	0	ml	2.7.3	lorasick	sub-05_ses-02_task-ml_proj-lorasick_2020-12-08-14-20-22.878888
136	5	2	3	137	volatile	5	40	37	vs	red	blue	blue	red	right	left	0.7	0.30000000000000004	6	4	4.199999999999998	1.2000000000000002	1	0	0.30000000000000004	0.7	4	6	1.2000000000000002	4.199999999999998	valid	0.583198326999991	51200.0	0	0.0	2.0	53248	0	53248	0	53248	0	0.7	53248	blue	red	1	0	ml	2.7.3	lorasick	sub-05_ses-02_task-ml_proj-lorasick_2020-12-08-14-20-22.878888
137	5	2	3	138	volatile	5	40	38	vs	red	blue	blue	red	right	left	0.7	0.30000000000000004	2	4	1.4	1.2000000000000002	1	0	0.30000000000000004	0.7	4	2	1.2000000000000002	1.4	valid	0.6664937189998454	51200.0	0	0.0	2.0	53248	0	53248	0	51200	1	0.7	53248	blue	red	0	0	ml	2.7.3	lorasick	sub-05_ses-02_task-ml_proj-lorasick_2020-12-08-14-20-22.878888
138	5	2	3	139	volatile	5	40	39	vs	red	blue	blue	red	right	left	0.7	0.30000000000000004	2	6	1.4	1.8000000000000005	1	0	0.30000000000000004	0.7	6	2	1.8000000000000005	1.4	valid	0.4665548589982791	51200.0	0	0.0	2.0	51200	1	53248	0	51200	1	0.7	53248	blue	red	0	0	ml	2.7.3	lorasick	sub-05_ses-02_task-ml_proj-lorasick_2020-12-08-14-20-22.878888
139	5	2	3	140	volatile	5	40	40	vs	red	blue	blue	red	right	left	0.7	0.30000000000000004	6	4	4.199999999999998	1.2000000000000002	0	1	0.30000000000000004	0.7	4	6	1.2000000000000002	4.199999999999998	invalid	0.6665019990032306	51200.0	0	0.0	2.0	53248	0	53248	0	53248	0	0.7	53248	blue	red	1	4	ml	2.7.3	lorasick	sub-05_ses-02_task-ml_proj-lorasick_2020-12-08-14-20-22.878888
140	5	2	3	141	volatile	6	40	1	vs	blue	red	blue	red	left	right	0.30000000000000004	0.7	2	2	0.6000000000000001	1.4	0	1	0.30000000000000004	0.7	2	2	0.6000000000000001	1.4	valid	0.44991052000114	53248.0	0	1.0	2.0	53248	1	53248	1	53248	1	0.7	53248	red	blue	0	2	ml	2.7.3	lorasick	sub-05_ses-02_task-ml_proj-lorasick_2020-12-08-14-20-22.878888
141	5	2	3	142	volatile	6	40	2	vs	blue	red	blue	red	left	right	0.30000000000000004	0.7	6	4	1.8000000000000005	2.8	0	1	0.30000000000000004	0.7	6	4	1.8000000000000005	2.8	valid	0.6331823059990711	53248.0	0	1.0	2.0	53248	1	53248	1	51200	0	0.7	53248	red	blue	0	4	ml	2.7.3	lorasick	sub-05_ses-02_task-ml_proj-lorasick_2020-12-08-14-20-22.878888
142	5	2	3	143	volatile	6	40	3	vs	red	blue	blue	red	right	left	0.30000000000000004	0.7	6	4	1.8000000000000005	2.8	0	1	0.7	0.30000000000000004	4	6	2.8	1.8000000000000005	valid	0.43322931300281203	51200.0	0	0.0	2.0	51200	1	51200	1	53248	0	0.7	51200	red	blue	0	4	ml	2.7.3	lorasick	sub-05_ses-02_task-ml_proj-lorasick_2020-12-08-14-20-22.878888
143	5	2	3	144	volatile	6	40	4	vs	red	blue	blue	red	right	left	0.30000000000000004	0.7	2	6	0.6000000000000001	4.199999999999998	1	0	0.7	0.30000000000000004	6	2	4.199999999999998	0.6000000000000001	invalid	0.3999088040000061	51200.0	0	0.0	2.0	51200	1	51200	1	51200	1	0.7	51200	red	blue	1	0	ml	2.7.3	lorasick	sub-05_ses-02_task-ml_proj-lorasick_2020-12-08-14-20-22.878888
144	5	2	3	145	volatile	6	40	5	vs	blue	red	blue	red	left	right	0.30000000000000004	0.7	6	6	1.8000000000000005	4.199999999999998	1	0	0.30000000000000004	0.7	6	6	1.8000000000000005	4.199999999999998	invalid	0.3832645940019575	53248.0	0	1.0	2.0	53248	1	53248	1	53248	1	0.7	53248	red	blue	0	0	ml	2.7.3	lorasick	sub-05_ses-02_task-ml_proj-lorasick_2020-12-08-14-20-22.878888
145	5	2	3	146	volatile	6	40	6	vs	blue	red	blue	red	left	right	0.30000000000000004	0.7	6	6	1.8000000000000005	4.199999999999998	0	1	0.30000000000000004	0.7	6	6	1.8000000000000005	4.199999999999998	valid	0.3499202120001428	51200.0	0	0.0	1.0	53248	0	53248	0	53248	0	0.7	53248	red	blue	0	0	ml	2.7.3	lorasick	sub-05_ses-02_task-ml_proj-lorasick_2020-12-08-14-20-22.878888
146	5	2	3	147	volatile	6	40	7	vs	red	blue	blue	red	right	left	0.30000000000000004	0.7	4	2	1.2000000000000002	1.4	0	1	0.7	0.30000000000000004	2	4	1.4	1.2000000000000002	valid	0.4332306869982858	51200.0	0	0.0	2.0	51200	1	51200	1	53248	0	0.7	51200	red	blue	0	2	ml	2.7.3	lorasick	sub-05_ses-02_task-ml_proj-lorasick_2020-12-08-14-20-22.878888
147	5	2	3	148	volatile	6	40	8	vs	red	blue	blue	red	right	left	0.30000000000000004	0.7	6	2	1.8000000000000005	1.4	0	1	0.7	0.30000000000000004	2	6	1.4	1.8000000000000005	valid	0.7998141310017672	53248.0	0	1.0	1.0	53248	1	51200	0	53248	1	0.7	51200	red	blue	0	0	ml	2.7.3	lorasick	sub-05_ses-02_task-ml_proj-lorasick_2020-12-08-14-20-22.878888
148	5	2	3	149	volatile	6	40	9	vs	blue	red	blue	red	left	right	0.30000000000000004	0.7	2	10	0.6000000000000001	7.0	0	1	0.30000000000000004	0.7	2	10	0.6000000000000001	7.0	valid	0.3166015799979505	51200.0	0	0.0	1.0	53248	0	53248	0	53248	0	0.7	53248	red	blue	1	0	ml	2.7.3	lorasick	sub-05_ses-02_task-ml_proj-lorasick_2020-12-08-14-20-22.878888
149	5	2	3	150	volatile	6	40	10	vs	red	blue	blue	red	right	left	0.30000000000000004	0.7	4	2	1.2000000000000002	1.4	0	1	0.7	0.30000000000000004	2	4	1.4	1.2000000000000002	valid	0.4665588620009658	51200.0	0	0.0	2.0	51200	1	51200	1	53248	0	0.7	51200	red	blue	0	2	ml	2.7.3	lorasick	sub-05_ses-02_task-ml_proj-lorasick_2020-12-08-14-20-22.878888
150	5	2	4	151	volatile	6	40	11	vs	red	blue	blue	red	right	left	0.30000000000000004	0.7	4	6	1.2000000000000002	4.199999999999998	0	1	0.7	0.30000000000000004	6	4	4.199999999999998	1.2000000000000002	valid	0.49987803199837794	51200.0	0	0.0	2.0	51200	1	51200	1	51200	1	0.7	51200	red	blue	1	6	ml	2.7.3	lorasick	sub-05_ses-02_task-ml_proj-lorasick_2020-12-08-14-20-22.878888
151	5	2	4	152	volatile	6	40	12	vs	blue	red	blue	red	left	right	0.30000000000000004	0.7	2	4	0.6000000000000001	2.8	0	1	0.30000000000000004	0.7	2	4	0.6000000000000001	2.8	valid	0.3665951879993372	53248.0	0	1.0	2.0	53248	1	53248	1	53248	1	0.7	53248	red	blue	1	4	ml	2.7.3	lorasick	sub-05_ses-02_task-ml_proj-lorasick_2020-12-08-14-20-22.878888
152	5	2	4	153	volatile	6	40	13	vs	red	blue	blue	red	right	left	0.30000000000000004	0.7	2	2	0.6000000000000001	1.4	1	0	0.7	0.30000000000000004	2	2	1.4	0.6000000000000001	invalid	0.5831920149976213	51200.0	0	0.0	2.0	51200	1	51200	1	53248	0	0.7	51200	red	blue	1	0	ml	2.7.3	lorasick	sub-05_ses-02_task-ml_proj-lorasick_2020-12-08-14-20-22.878888
153	5	2	4	154	volatile	6	40	14	vs	blue	red	blue	red	left	right	0.30000000000000004	0.7	2	4	0.6000000000000001	2.8	0	1	0.30000000000000004	0.7	2	4	0.6000000000000001	2.8	valid	0.4999034159991425	53248.0	0	1.0	2.0	53248	1	53248	1	53248	1	0.7	53248	red	blue	1	4	ml	2.7.3	lorasick	sub-05_ses-02_task-ml_proj-lorasick_2020-12-08-14-20-22.878888
154	5	2	4	155	volatile	6	40	15	vs	blue	red	blue	red	left	right	0.30000000000000004	0.7	6	2	1.8000000000000005	1.4	0	1	0.30000000000000004	0.7	6	2	1.8000000000000005	1.4	valid	1.066394957000739	53248.0	0	1.0	2.0	51200	0	53248	1	51200	0	0.7	53248	red	blue	0	2	ml	2.7.3	lorasick	sub-05_ses-02_task-ml_proj-lorasick_2020-12-08-14-20-22.878888
155	5	2	4	156	volatile	6	40	16	vs	blue	red	blue	red	left	right	0.30000000000000004	0.7	4	2	1.2000000000000002	1.4	0	1	0.30000000000000004	0.7	4	2	1.2000000000000002	1.4	valid	0.5165617729981022	53248.0	0	1.0	2.0	53248	1	53248	1	51200	0	0.7	53248	red	blue	0	2	ml	2.7.3	lorasick	sub-05_ses-02_task-ml_proj-lorasick_2020-12-08-14-20-22.878888
156	5	2	4	157	volatile	6	40	17	vs	red	blue	blue	red	right	left	0.30000000000000004	0.7	4	6	1.2000000000000002	4.199999999999998	1	0	0.7	0.30000000000000004	6	4	4.199999999999998	1.2000000000000002	invalid	0.3665856570005417	51200.0	0	0.0	2.0	51200	1	51200	1	51200	1	0.7	51200	red	blue	1	0	ml	2.7.3	lorasick	sub-05_ses-02_task-ml_proj-lorasick_2020-12-08-14-20-22.878888
157	5	2	4	158	volatile	6	40	18	vs	blue	red	blue	red	left	right	0.30000000000000004	0.7	4	6	1.2000000000000002	4.199999999999998	0	1	0.30000000000000004	0.7	4	6	1.2000000000000002	4.199999999999998	valid	0.3166222750005545	53248.0	0	1.0	2.0	53248	1	53248	1	53248	1	0.7	53248	red	blue	1	6	ml	2.7.3	lorasick	sub-05_ses-02_task-ml_proj-lorasick_2020-12-08-14-20-22.878888
158	5	2	4	159	volatile	6	40	19	vs	red	blue	blue	red	right	left	0.30000000000000004	0.7	2	2	0.6000000000000001	1.4	0	1	0.7	0.30000000000000004	2	2	1.4	0.6000000000000001	valid	0.44989440299832495	51200.0	0	0.0	2.0	51200	1	51200	1	53248	0	0.7	51200	red	blue	1	2	ml	2.7.3	lorasick	sub-05_ses-02_task-ml_proj-lorasick_2020-12-08-14-20-22.878888
159	5	2	4	160	volatile	6	40	20	vs	red	blue	blue	red	right	left	0.30000000000000004	0.7	2	4	0.6000000000000001	2.8	0	1	0.7	0.30000000000000004	4	2	2.8	0.6000000000000001	valid	0.3999110419972567	51200.0	0	0.0	2.0	51200	1	51200	1	51200	1	0.7	51200	red	blue	1	4	ml	2.7.3	lorasick	sub-05_ses-02_task-ml_proj-lorasick_2020-12-08-14-20-22.878888
160	5	2	4	161	volatile	6	40	21	vs	blue	red	blue	red	left	right	0.30000000000000004	0.7	6	4	1.8000000000000005	2.8	1	0	0.30000000000000004	0.7	6	4	1.8000000000000005	2.8	invalid	0.3499359560009907	53248.0	0	1.0	2.0	53248	1	53248	1	51200	0	0.7	53248	red	blue	0	0	ml	2.7.3	lorasick	sub-05_ses-02_task-ml_proj-lorasick_2020-12-08-14-20-22.878888
161	5	2	4	162	volatile	6	40	22	vs	blue	red	blue	red	left	right	0.30000000000000004	0.7	6	2	1.8000000000000005	1.4	1	0	0.30000000000000004	0.7	6	2	1.8000000000000005	1.4	invalid	0.2499548420018982	51200.0	0	0.0	1.0	51200	1	53248	0	51200	1	0.7	53248	red	blue	0	6	ml	2.7.3	lorasick	sub-05_ses-02_task-ml_proj-lorasick_2020-12-08-14-20-22.878888
162	5	2	4	163	volatile	6	40	23	vs	blue	red	blue	red	left	right	0.30000000000000004	0.7	2	10	0.6000000000000001	7.0	0	1	0.30000000000000004	0.7	2	10	0.6000000000000001	7.0	valid	0.6664966460011783	51200.0	0	0.0	1.0	53248	0	53248	0	53248	0	0.7	53248	red	blue	1	0	ml	2.7.3	lorasick	sub-05_ses-02_task-ml_proj-lorasick_2020-12-08-14-20-22.878888
163	5	2	4	164	volatile	6	40	24	vs	blue	red	blue	red	left	right	0.30000000000000004	0.7	2	10	0.6000000000000001	7.0	1	0	0.30000000000000004	0.7	2	10	0.6000000000000001	7.0	invalid	0.3499381850015197	53248.0	0	1.0	2.0	53248	1	53248	1	53248	1	0.7	53248	red	blue	1	0	ml	2.7.3	lorasick	sub-05_ses-02_task-ml_proj-lorasick_2020-12-08-14-20-22.878888
164	5	2	4	165	volatile	6	40	25	vs	blue	red	blue	red	left	right	0.30000000000000004	0.7	4	2	1.2000000000000002	1.4	0	1	0.30000000000000004	0.7	4	2	1.2000000000000002	1.4	valid	0.4998876210011076	51200.0	0	0.0	1.0	53248	0	53248	0	51200	1	0.7	53248	red	blue	0	0	ml	2.7.3	lorasick	sub-05_ses-02_task-ml_proj-lorasick_2020-12-08-14-20-22.878888
165	5	2	4	166	volatile	6	40	26	vs	blue	red	blue	red	left	right	0.30000000000000004	0.7	10	2	3.0000000000000004	1.4	1	0	0.30000000000000004	0.7	10	2	3.0000000000000004	1.4	invalid	0.5665394230018137	53248.0	0	1.0	2.0	51200	0	53248	1	51200	0	0.7	53248	red	blue	0	0	ml	2.7.3	lorasick	sub-05_ses-02_task-ml_proj-lorasick_2020-12-08-14-20-22.878888
166	5	2	4	167	volatile	6	40	27	vs	red	blue	blue	red	right	left	0.30000000000000004	0.7	6	2	1.8000000000000005	1.4	0	1	0.7	0.30000000000000004	2	6	1.4	1.8000000000000005	valid	0.4332395050005289	53248.0	0	1.0	1.0	53248	1	51200	0	53248	1	0.7	51200	red	blue	0	0	ml	2.7.3	lorasick	sub-05_ses-02_task-ml_proj-lorasick_2020-12-08-14-20-22.878888
167	5	2	4	168	volatile	6	40	28	vs	blue	red	blue	red	left	right	0.30000000000000004	0.7	4	6	1.2000000000000002	4.199999999999998	0	1	0.30000000000000004	0.7	4	6	1.2000000000000002	4.199999999999998	valid	0.5498699840027257	51200.0	0	0.0	1.0	53248	0	53248	0	53248	0	0.7	53248	red	blue	1	0	ml	2.7.3	lorasick	sub-05_ses-02_task-ml_proj-lorasick_2020-12-08-14-20-22.878888
168	5	2	4	169	volatile	6	40	29	vs	red	blue	blue	red	right	left	0.30000000000000004	0.7	6	2	1.8000000000000005	1.4	0	1	0.7	0.30000000000000004	2	6	1.4	1.8000000000000005	valid	0.39989344499917934	51200.0	0	0.0	2.0	53248	0	51200	1	53248	0	0.7	51200	red	blue	0	2	ml	2.7.3	lorasick	sub-05_ses-02_task-ml_proj-lorasick_2020-12-08-14-20-22.878888
169	5	2	4	170	volatile	6	40	30	vs	red	blue	blue	red	right	left	0.30000000000000004	0.7	6	6	1.8000000000000005	4.199999999999998	1	0	0.7	0.30000000000000004	6	6	4.199999999999998	1.8000000000000005	invalid	0.3832488799998828	51200.0	0	0.0	2.0	51200	1	51200	1	53248	0	0.7	51200	red	blue	1	0	ml	2.7.3	lorasick	sub-05_ses-02_task-ml_proj-lorasick_2020-12-08-14-20-22.878888
170	5	2	4	171	volatile	6	40	31	vs	red	blue	blue	red	right	left	0.30000000000000004	0.7	2	10	0.6000000000000001	7.0	0	1	0.7	0.30000000000000004	10	2	7.0	0.6000000000000001	valid	0.16665618300248752	53248.0	0	1.0	1.0	51200	0	51200	0	51200	0	0.7	51200	red	blue	1	0	ml	2.7.3	lorasick	sub-05_ses-02_task-ml_proj-lorasick_2020-12-08-14-20-22.878888
171	5	2	4	172	volatile	6	40	32	vs	red	blue	blue	red	right	left	0.30000000000000004	0.7	2	10	0.6000000000000001	7.0	1	0	0.7	0.30000000000000004	10	2	7.0	0.6000000000000001	invalid	0.2999392140009149	51200.0	0	0.0	2.0	51200	1	51200	1	51200	1	0.7	51200	red	blue	1	0	ml	2.7.3	lorasick	sub-05_ses-02_task-ml_proj-lorasick_2020-12-08-14-20-22.878888
172	5	2	4	173	volatile	6	40	33	vs	red	blue	blue	red	right	left	0.30000000000000004	0.7	2	10	0.6000000000000001	7.0	0	1	0.7	0.30000000000000004	10	2	7.0	0.6000000000000001	valid	0.3332601080001041	51200.0	0	0.0	2.0	51200	1	51200	1	51200	1	0.7	51200	red	blue	1	10	ml	2.7.3	lorasick	sub-05_ses-02_task-ml_proj-lorasick_2020-12-08-14-20-22.878888
173	5	2	4	174	volatile	6	40	34	vs	blue	red	blue	red	left	right	0.30000000000000004	0.7	2	10	0.6000000000000001	7.0	0	1	0.30000000000000004	0.7	2	10	0.6000000000000001	7.0	valid	1.1830274589992769	53248.0	0	1.0	2.0	53248	1	53248	1	53248	1	0.7	53248	red	blue	1	10	ml	2.7.3	lorasick	sub-05_ses-02_task-ml_proj-lorasick_2020-12-08-14-20-22.878888
174	5	2	4	175	volatile	6	40	35	vs	red	blue	blue	red	right	left	0.30000000000000004	0.7	6	2	1.8000000000000005	1.4	1	0	0.7	0.30000000000000004	2	6	1.4	1.8000000000000005	invalid	1.9328133929993785	53248.0	0	1.0	1.0	53248	1	51200	0	53248	1	0.7	51200	red	blue	0	6	ml	2.7.3	lorasick	sub-05_ses-02_task-ml_proj-lorasick_2020-12-08-14-20-22.878888
175	5	2	4	176	volatile	6	40	36	vs	red	blue	blue	red	right	left	0.30000000000000004	0.7	2	6	0.6000000000000001	4.199999999999998	0	1	0.7	0.30000000000000004	6	2	4.199999999999998	0.6000000000000001	valid	0.4332469759974629	53248.0	0	1.0	1.0	51200	0	51200	0	51200	0	0.7	51200	red	blue	1	0	ml	2.7.3	lorasick	sub-05_ses-02_task-ml_proj-lorasick_2020-12-08-14-20-22.878888
176	5	2	4	177	volatile	6	40	37	vs	blue	red	blue	red	left	right	0.30000000000000004	0.7	6	6	1.8000000000000005	4.199999999999998	0	1	0.30000000000000004	0.7	6	6	1.8000000000000005	4.199999999999998	valid	0.4332454719988164	53248.0	0	1.0	2.0	53248	1	53248	1	53248	1	0.7	53248	red	blue	0	6	ml	2.7.3	lorasick	sub-05_ses-02_task-ml_proj-lorasick_2020-12-08-14-20-22.878888
177	5	2	4	178	volatile	6	40	38	vs	red	blue	blue	red	right	left	0.30000000000000004	0.7	2	2	0.6000000000000001	1.4	0	1	0.7	0.30000000000000004	2	2	1.4	0.6000000000000001	valid	0.4832284360018093	53248.0	0	1.0	1.0	51200	0	51200	0	53248	1	0.7	51200	red	blue	1	0	ml	2.7.3	lorasick	sub-05_ses-02_task-ml_proj-lorasick_2020-12-08-14-20-22.878888
178	5	2	4	179	volatile	6	40	39	vs	red	blue	blue	red	right	left	0.30000000000000004	0.7	6	4	1.8000000000000005	2.8	0	1	0.7	0.30000000000000004	4	6	2.8	1.8000000000000005	valid	0.00010883399954764172	53248.0	0	1.0	1.0	51200	0	51200	0	53248	1	0.7	51200	red	blue	0	0	ml	2.7.3	lorasick	sub-05_ses-02_task-ml_proj-lorasick_2020-12-08-14-20-22.878888
179	5	2	4	180	volatile	6	40	40	vs	blue	red	blue	red	left	right	0.30000000000000004	0.7	4	2	1.2000000000000002	1.4	1	0	0.30000000000000004	0.7	4	2	1.2000000000000002	1.4	invalid	1.0497331439983102	53248.0	0	1.0	2.0	53248	1	53248	1	51200	0	0.7	53248	red	blue	0	0	ml	2.7.3	lorasick	sub-05_ses-02_task-ml_proj-lorasick_2020-12-08-14-20-22.878888
180	5	2	4	181	volatile	7	20	1	vs	red	blue	blue	red	right	left	0.7	0.30000000000000004	10	2	7.0	0.6000000000000001	1	0	0.30000000000000004	0.7	2	10	0.6000000000000001	7.0	valid	0.4165791269988404	53248.0	0	1.0	1.0	53248	1	53248	1	53248	1	0.7	53248	blue	red	1	10	ml	2.7.3	lorasick	sub-05_ses-02_task-ml_proj-lorasick_2020-12-08-14-20-22.878888
181	5	2	4	182	volatile	7	20	2	vs	blue	red	blue	red	left	right	0.7	0.30000000000000004	6	6	4.199999999999998	1.8000000000000005	1	0	0.7	0.30000000000000004	6	6	4.199999999999998	1.8000000000000005	valid	0.3665882919995056	51200.0	0	0.0	1.0	51200	1	51200	1	53248	0	0.7	51200	blue	red	1	6	ml	2.7.3	lorasick	sub-05_ses-02_task-ml_proj-lorasick_2020-12-08-14-20-22.878888
182	5	2	4	183	volatile	7	20	3	vs	blue	red	blue	red	left	right	0.7	0.30000000000000004	4	6	2.8	1.8000000000000005	1	0	0.7	0.30000000000000004	4	6	2.8	1.8000000000000005	valid	0.3499269940002705	51200.0	0	0.0	1.0	51200	1	51200	1	53248	0	0.7	51200	blue	red	0	4	ml	2.7.3	lorasick	sub-05_ses-02_task-ml_proj-lorasick_2020-12-08-14-20-22.878888
183	5	2	4	184	volatile	7	20	4	vs	red	blue	blue	red	right	left	0.7	0.30000000000000004	6	2	4.199999999999998	0.6000000000000001	1	0	0.30000000000000004	0.7	2	6	0.6000000000000001	4.199999999999998	valid	0.3832686220011965	53248.0	0	1.0	1.0	53248	1	53248	1	53248	1	0.7	53248	blue	red	1	6	ml	2.7.3	lorasick	sub-05_ses-02_task-ml_proj-lorasick_2020-12-08-14-20-22.878888
184	5	2	4	185	volatile	7	20	5	vs	blue	red	blue	red	left	right	0.7	0.30000000000000004	2	4	1.4	1.2000000000000002	1	0	0.7	0.30000000000000004	2	4	1.4	1.2000000000000002	valid	0.3999208509994787	53248.0	0	1.0	2.0	51200	0	51200	0	53248	1	0.7	51200	blue	red	0	0	ml	2.7.3	lorasick	sub-05_ses-02_task-ml_proj-lorasick_2020-12-08-14-20-22.878888
185	5	2	4	186	volatile	7	20	6	vs	blue	red	blue	red	left	right	0.7	0.30000000000000004	6	2	4.199999999999998	0.6000000000000001	0	1	0.7	0.30000000000000004	6	2	4.199999999999998	0.6000000000000001	invalid	0.4832227589977265	51200.0	0	0.0	1.0	51200	1	51200	1	51200	1	0.7	51200	blue	red	1	0	ml	2.7.3	lorasick	sub-05_ses-02_task-ml_proj-lorasick_2020-12-08-14-20-22.878888
186	5	2	4	187	volatile	7	20	7	vs	red	blue	blue	red	right	left	0.7	0.30000000000000004	6	4	4.199999999999998	1.2000000000000002	0	1	0.30000000000000004	0.7	4	6	1.2000000000000002	4.199999999999998	invalid	0.3499347439974372	53248.0	0	1.0	1.0	53248	1	53248	1	53248	1	0.7	53248	blue	red	1	0	ml	2.7.3	lorasick	sub-05_ses-02_task-ml_proj-lorasick_2020-12-08-14-20-22.878888
187	5	2	4	188	volatile	7	20	8	vs	red	blue	blue	red	right	left	0.7	0.30000000000000004	2	4	1.4	1.2000000000000002	0	1	0.30000000000000004	0.7	4	2	1.2000000000000002	1.4	invalid	0.3166006680003193	51200.0	0	0.0	2.0	53248	0	53248	0	51200	1	0.7	53248	blue	red	0	4	ml	2.7.3	lorasick	sub-05_ses-02_task-ml_proj-lorasick_2020-12-08-14-20-22.878888
188	5	2	4	189	volatile	7	20	9	vs	red	blue	blue	red	right	left	0.7	0.30000000000000004	4	6	2.8	1.8000000000000005	1	0	0.30000000000000004	0.7	6	4	1.8000000000000005	2.8	valid	0.3665801269999065	51200.0	0	0.0	2.0	53248	0	53248	0	51200	1	0.7	53248	blue	red	0	0	ml	2.7.3	lorasick	sub-05_ses-02_task-ml_proj-lorasick_2020-12-08-14-20-22.878888
189	5	2	4	190	volatile	7	20	10	vs	blue	red	blue	red	left	right	0.7	0.30000000000000004	2	4	1.4	1.2000000000000002	1	0	0.7	0.30000000000000004	2	4	1.4	1.2000000000000002	valid	0.4165836989996024	53248.0	0	1.0	2.0	51200	0	51200	0	53248	1	0.7	51200	blue	red	0	0	ml	2.7.3	lorasick	sub-05_ses-02_task-ml_proj-lorasick_2020-12-08-14-20-22.878888
190	5	2	4	191	volatile	7	20	11	vs	blue	red	blue	red	left	right	0.7	0.30000000000000004	2	2	1.4	0.6000000000000001	1	0	0.7	0.30000000000000004	2	2	1.4	0.6000000000000001	valid	0.2666186719980033	51200.0	0	0.0	1.0	51200	1	51200	1	53248	0	0.7	51200	blue	red	1	2	ml	2.7.3	lorasick	sub-05_ses-02_task-ml_proj-lorasick_2020-12-08-14-20-22.878888
191	5	2	4	192	volatile	7	20	12	vs	blue	red	blue	red	left	right	0.7	0.30000000000000004	2	6	1.4	1.8000000000000005	0	1	0.7	0.30000000000000004	2	6	1.4	1.8000000000000005	invalid	1.4829370160005055	53248.0	0	1.0	2.0	53248	1	51200	0	53248	1	0.7	51200	blue	red	0	6	ml	2.7.3	lorasick	sub-05_ses-02_task-ml_proj-lorasick_2020-12-08-14-20-22.878888
192	5	2	4	193	volatile	7	20	13	vs	blue	red	blue	red	left	right	0.7	0.30000000000000004	10	2	7.0	0.6000000000000001	1	0	0.7	0.30000000000000004	10	2	7.0	0.6000000000000001	valid	0.4832310290003079	53248.0	0	1.0	2.0	51200	0	51200	0	51200	0	0.7	51200	blue	red	1	0	ml	2.7.3	lorasick	sub-05_ses-02_task-ml_proj-lorasick_2020-12-08-14-20-22.878888
193	5	2	4	194	volatile	7	20	14	vs	blue	red	blue	red	left	right	0.7	0.30000000000000004	2	10	1.4	3.0000000000000004	0	1	0.7	0.30000000000000004	2	10	1.4	3.0000000000000004	invalid	0.9830789779989572	53248.0	0	1.0	2.0	53248	1	51200	0	53248	1	0.7	51200	blue	red	0	10	ml	2.7.3	lorasick	sub-05_ses-02_task-ml_proj-lorasick_2020-12-08-14-20-22.878888
194	5	2	4	195	volatile	7	20	15	vs	red	blue	blue	red	right	left	0.7	0.30000000000000004	2	4	1.4	1.2000000000000002	0	1	0.30000000000000004	0.7	4	2	1.2000000000000002	1.4	invalid	0.3332730430010997	53248.0	0	1.0	1.0	53248	1	53248	1	51200	0	0.7	53248	blue	red	0	0	ml	2.7.3	lorasick	sub-05_ses-02_task-ml_proj-lorasick_2020-12-08-14-20-22.878888
195	5	2	4	196	volatile	7	20	16	vs	red	blue	blue	red	right	left	0.7	0.30000000000000004	4	6	2.8	1.8000000000000005	1	0	0.30000000000000004	0.7	6	4	1.8000000000000005	2.8	valid	0.00010696200115489772	53248.0	0	1.0	1.0	53248	1	53248	1	51200	0	0.7	53248	blue	red	0	4	ml	2.7.3	lorasick	sub-05_ses-02_task-ml_proj-lorasick_2020-12-08-14-20-22.878888
196	5	2	4	197	volatile	7	20	17	vs	red	blue	blue	red	right	left	0.7	0.30000000000000004	2	10	1.4	3.0000000000000004	1	0	0.30000000000000004	0.7	10	2	3.0000000000000004	1.4	valid	0.3499381239998911	53248.0	0	1.0	1.0	51200	0	53248	1	51200	0	0.7	53248	blue	red	0	2	ml	2.7.3	lorasick	sub-05_ses-02_task-ml_proj-lorasick_2020-12-08-14-20-22.878888
197	5	2	4	198	volatile	7	20	18	vs	red	blue	blue	red	right	left	0.7	0.30000000000000004	2	2	1.4	0.6000000000000001	1	0	0.30000000000000004	0.7	2	2	0.6000000000000001	1.4	valid	0.3165939139980765	53248.0	0	1.0	1.0	53248	1	53248	1	53248	1	0.7	53248	blue	red	0	2	ml	2.7.3	lorasick	sub-05_ses-02_task-ml_proj-lorasick_2020-12-08-14-20-22.878888
198	5	2	4	199	volatile	7	20	19	vs	red	blue	blue	red	right	left	0.7	0.30000000000000004	2	6	1.4	1.8000000000000005	1	0	0.30000000000000004	0.7	6	2	1.8000000000000005	1.4	valid	0.5665395610012638	53248.0	0	1.0	1.0	51200	0	53248	1	51200	0	0.7	53248	blue	red	0	2	ml	2.7.3	lorasick	sub-05_ses-02_task-ml_proj-lorasick_2020-12-08-14-20-22.878888
199	5	2	4	200	volatile	7	20	20	vs	blue	red	blue	red	left	right	0.7	0.30000000000000004	6	6	4.199999999999998	1.8000000000000005	1	0	0.7	0.30000000000000004	6	6	4.199999999999998	1.8000000000000005	valid	1.5162606979974953	53248.0	0	1.0	2.0	51200	0	51200	0	53248	1	0.7	51200	blue	red	1	0	ml	2.7.3	lorasick	sub-05_ses-02_task-ml_proj-lorasick_2020-12-08-14-20-22.878888
200	5	2	5	201	stable	8	200	1	vs	red	blue	blue	red	right	left	0.30000000000000004	0.7	2	6	0.6000000000000001	4.199999999999998	1	0	0.7	0.30000000000000004	6	2	4.199999999999998	0.6000000000000001	invalid	2.9824980430021237	nan	1	nan	nan	51200	0	51200	0	51200	0	0.7	51200	red	blue	1	0	ml	2.7.3	lorasick	sub-05_ses-02_task-ml_proj-lorasick_2020-12-08-14-20-22.878888
201	5	2	5	202	stable	8	200	2	vs	red	blue	blue	red	right	left	0.30000000000000004	0.7	2	2	0.6000000000000001	1.4	0	1	0.7	0.30000000000000004	2	2	1.4	0.6000000000000001	valid	0.5998565400004736	51200.0	0	0.0	2.0	51200	1	51200	1	53248	0	0.7	51200	red	blue	1	2	ml	2.7.3	lorasick	sub-05_ses-02_task-ml_proj-lorasick_2020-12-08-14-20-22.878888
202	5	2	5	203	stable	8	200	3	vs	red	blue	blue	red	right	left	0.30000000000000004	0.7	4	6	1.2000000000000002	4.199999999999998	0	1	0.7	0.30000000000000004	6	4	4.199999999999998	1.2000000000000002	valid	0.6831648730003508	51200.0	0	0.0	2.0	51200	1	51200	1	51200	1	0.7	51200	red	blue	1	6	ml	2.7.3	lorasick	sub-05_ses-02_task-ml_proj-lorasick_2020-12-08-14-20-22.878888
203	5	2	5	204	stable	8	200	4	vs	red	blue	blue	red	right	left	0.30000000000000004	0.7	2	4	0.6000000000000001	2.8	0	1	0.7	0.30000000000000004	4	2	2.8	0.6000000000000001	valid	0.3166017510011443	51200.0	0	0.0	2.0	51200	1	51200	1	51200	1	0.7	51200	red	blue	1	4	ml	2.7.3	lorasick	sub-05_ses-02_task-ml_proj-lorasick_2020-12-08-14-20-22.878888
204	5	2	5	205	stable	8	200	5	vs	red	blue	blue	red	right	left	0.30000000000000004	0.7	2	10	0.6000000000000001	7.0	0	1	0.7	0.30000000000000004	10	2	7.0	0.6000000000000001	valid	0.3665919369996118	51200.0	0	0.0	2.0	51200	1	51200	1	51200	1	0.7	51200	red	blue	1	10	ml	2.7.3	lorasick	sub-05_ses-02_task-ml_proj-lorasick_2020-12-08-14-20-22.878888
205	5	2	5	206	stable	8	200	6	vs	red	blue	blue	red	right	left	0.30000000000000004	0.7	6	2	1.8000000000000005	1.4	0	1	0.7	0.30000000000000004	2	6	1.4	1.8000000000000005	valid	0.3999088010023115	51200.0	0	0.0	2.0	53248	0	51200	1	53248	0	0.7	51200	red	blue	0	2	ml	2.7.3	lorasick	sub-05_ses-02_task-ml_proj-lorasick_2020-12-08-14-20-22.878888
206	5	2	5	207	stable	8	200	7	vs	blue	red	blue	red	left	right	0.30000000000000004	0.7	4	6	1.2000000000000002	4.199999999999998	1	0	0.30000000000000004	0.7	4	6	1.2000000000000002	4.199999999999998	invalid	0.3999188580019109	53248.0	0	1.0	2.0	53248	1	53248	1	53248	1	0.7	53248	red	blue	1	0	ml	2.7.3	lorasick	sub-05_ses-02_task-ml_proj-lorasick_2020-12-08-14-20-22.878888
207	5	2	5	208	stable	8	200	8	vs	red	blue	blue	red	right	left	0.30000000000000004	0.7	6	6	1.8000000000000005	4.199999999999998	0	1	0.7	0.30000000000000004	6	6	4.199999999999998	1.8000000000000005	valid	0.3332635570004641	51200.0	0	0.0	2.0	51200	1	51200	1	53248	0	0.7	51200	red	blue	1	6	ml	2.7.3	lorasick	sub-05_ses-02_task-ml_proj-lorasick_2020-12-08-14-20-22.878888
208	5	2	5	209	stable	8	200	9	vs	red	blue	blue	red	right	left	0.30000000000000004	0.7	2	6	0.6000000000000001	4.199999999999998	0	1	0.7	0.30000000000000004	6	2	4.199999999999998	0.6000000000000001	valid	1.0830479479991482	51200.0	0	0.0	2.0	51200	1	51200	1	51200	1	0.7	51200	red	blue	1	6	ml	2.7.3	lorasick	sub-05_ses-02_task-ml_proj-lorasick_2020-12-08-14-20-22.878888
209	5	2	5	210	stable	8	200	10	vs	red	blue	blue	red	right	left	0.30000000000000004	0.7	4	2	1.2000000000000002	1.4	0	1	0.7	0.30000000000000004	2	4	1.4	1.2000000000000002	valid	0.34992515000340063	51200.0	0	0.0	2.0	51200	1	51200	1	53248	0	0.7	51200	red	blue	0	2	ml	2.7.3	lorasick	sub-05_ses-02_task-ml_proj-lorasick_2020-12-08-14-20-22.878888
210	5	2	5	211	stable	8	200	11	vs	blue	red	blue	red	left	right	0.30000000000000004	0.7	10	2	3.0000000000000004	1.4	0	1	0.30000000000000004	0.7	10	2	3.0000000000000004	1.4	valid	0.3499382180016255	53248.0	0	1.0	2.0	51200	0	53248	1	51200	0	0.7	53248	red	blue	0	2	ml	2.7.3	lorasick	sub-05_ses-02_task-ml_proj-lorasick_2020-12-08-14-20-22.878888
211	5	2	5	212	stable	8	200	12	vs	red	blue	blue	red	right	left	0.30000000000000004	0.7	6	2	1.8000000000000005	1.4	0	1	0.7	0.30000000000000004	2	6	1.4	1.8000000000000005	valid	0.3665829950004991	51200.0	0	0.0	2.0	53248	0	51200	1	53248	0	0.7	51200	red	blue	0	2	ml	2.7.3	lorasick	sub-05_ses-02_task-ml_proj-lorasick_2020-12-08-14-20-22.878888
212	5	2	5	213	stable	8	200	13	vs	red	blue	blue	red	right	left	0.30000000000000004	0.7	6	6	1.8000000000000005	4.199999999999998	0	1	0.7	0.30000000000000004	6	6	4.199999999999998	1.8000000000000005	valid	0.4665583120004158	51200.0	0	0.0	2.0	51200	1	51200	1	53248	0	0.7	51200	red	blue	1	6	ml	2.7.3	lorasick	sub-05_ses-02_task-ml_proj-lorasick_2020-12-08-14-20-22.878888
213	5	2	5	214	stable	8	200	14	vs	red	blue	blue	red	right	left	0.30000000000000004	0.7	6	2	1.8000000000000005	1.4	0	1	0.7	0.30000000000000004	2	6	1.4	1.8000000000000005	valid	0.24995115699857706	51200.0	0	0.0	2.0	53248	0	51200	1	53248	0	0.7	51200	red	blue	0	2	ml	2.7.3	lorasick	sub-05_ses-02_task-ml_proj-lorasick_2020-12-08-14-20-22.878888
214	5	2	5	215	stable	8	200	15	vs	blue	red	blue	red	left	right	0.30000000000000004	0.7	2	2	0.6000000000000001	1.4	1	0	0.30000000000000004	0.7	2	2	0.6000000000000001	1.4	invalid	0.4332326090006973	51200.0	0	0.0	1.0	53248	0	53248	0	53248	0	0.7	53248	red	blue	0	2	ml	2.7.3	lorasick	sub-05_ses-02_task-ml_proj-lorasick_2020-12-08-14-20-22.878888
215	5	2	5	216	stable	8	200	16	vs	blue	red	blue	red	left	right	0.30000000000000004	0.7	6	6	1.8000000000000005	4.199999999999998	0	1	0.30000000000000004	0.7	6	6	1.8000000000000005	4.199999999999998	valid	2.066106801998103	53248.0	0	1.0	2.0	53248	1	53248	1	53248	1	0.7	53248	red	blue	0	6	ml	2.7.3	lorasick	sub-05_ses-02_task-ml_proj-lorasick_2020-12-08-14-20-22.878888
216	5	2	5	217	stable	8	200	17	vs	red	blue	blue	red	right	left	0.30000000000000004	0.7	4	6	1.2000000000000002	4.199999999999998	0	1	0.7	0.30000000000000004	6	4	4.199999999999998	1.2000000000000002	valid	0.2999415179983771	51200.0	0	0.0	2.0	51200	1	51200	1	51200	1	0.7	51200	red	blue	1	6	ml	2.7.3	lorasick	sub-05_ses-02_task-ml_proj-lorasick_2020-12-08-14-20-22.878888
217	5	2	5	218	stable	8	200	18	vs	red	blue	blue	red	right	left	0.30000000000000004	0.7	10	2	3.0000000000000004	1.4	0	1	0.7	0.30000000000000004	2	10	1.4	3.0000000000000004	valid	0.6998265990005166	53248.0	0	1.0	1.0	53248	1	51200	0	53248	1	0.7	51200	red	blue	0	0	ml	2.7.3	lorasick	sub-05_ses-02_task-ml_proj-lorasick_2020-12-08-14-20-22.878888
218	5	2	5	219	stable	8	200	19	vs	red	blue	blue	red	right	left	0.30000000000000004	0.7	2	10	0.6000000000000001	7.0	1	0	0.7	0.30000000000000004	10	2	7.0	0.6000000000000001	invalid	1.0330729800007248	53248.0	0	1.0	1.0	51200	0	51200	0	51200	0	0.7	51200	red	blue	1	2	ml	2.7.3	lorasick	sub-05_ses-02_task-ml_proj-lorasick_2020-12-08-14-20-22.878888
219	5	2	5	220	stable	8	200	20	vs	blue	red	blue	red	left	right	0.30000000000000004	0.7	2	6	0.6000000000000001	4.199999999999998	1	0	0.30000000000000004	0.7	2	6	0.6000000000000001	4.199999999999998	invalid	0.29994012899987865	51200.0	0	0.0	1.0	53248	0	53248	0	53248	0	0.7	53248	red	blue	1	2	ml	2.7.3	lorasick	sub-05_ses-02_task-ml_proj-lorasick_2020-12-08-14-20-22.878888
220	5	2	5	221	stable	8	200	21	vs	red	blue	blue	red	right	left	0.30000000000000004	0.7	4	2	1.2000000000000002	1.4	0	1	0.7	0.30000000000000004	2	4	1.4	1.2000000000000002	valid	0.3332748870016076	53248.0	0	1.0	1.0	51200	0	51200	0	53248	1	0.7	51200	red	blue	0	0	ml	2.7.3	lorasick	sub-05_ses-02_task-ml_proj-lorasick_2020-12-08-14-20-22.878888
221	5	2	5	222	stable	8	200	22	vs	red	blue	blue	red	right	left	0.30000000000000004	0.7	2	10	0.6000000000000001	7.0	1	0	0.7	0.30000000000000004	10	2	7.0	0.6000000000000001	invalid	0.00010117599958903155	51200.0	0	0.0	2.0	51200	1	51200	1	51200	1	0.7	51200	red	blue	1	0	ml	2.7.3	lorasick	sub-05_ses-02_task-ml_proj-lorasick_2020-12-08-14-20-22.878888
222	5	2	5	223	stable	8	200	23	vs	red	blue	blue	red	right	left	0.30000000000000004	0.7	2	4	0.6000000000000001	2.8	0	1	0.7	0.30000000000000004	4	2	2.8	0.6000000000000001	valid	0.3332720540020091	53248.0	0	1.0	1.0	51200	0	51200	0	51200	0	0.7	51200	red	blue	1	0	ml	2.7.3	lorasick	sub-05_ses-02_task-ml_proj-lorasick_2020-12-08-14-20-22.878888
223	5	2	5	224	stable	8	200	24	vs	red	blue	blue	red	right	left	0.30000000000000004	0.7	6	6	1.8000000000000005	4.199999999999998	1	0	0.7	0.30000000000000004	6	6	4.199999999999998	1.8000000000000005	invalid	9.692700041341595e-05	51200.0	0	0.0	2.0	51200	1	51200	1	53248	0	0.7	51200	red	blue	1	0	ml	2.7.3	lorasick	sub-05_ses-02_task-ml_proj-lorasick_2020-12-08-14-20-22.878888
224	5	2	5	225	stable	8	200	25	vs	red	blue	blue	red	right	left	0.30000000000000004	0.7	4	2	1.2000000000000002	1.4	0	1	0.7	0.30000000000000004	2	4	1.4	1.2000000000000002	valid	0.4165822670001944	53248.0	0	1.0	1.0	51200	0	51200	0	53248	1	0.7	51200	red	blue	0	0	ml	2.7.3	lorasick	sub-05_ses-02_task-ml_proj-lorasick_2020-12-08-14-20-22.878888
225	5	2	5	226	stable	8	200	26	vs	red	blue	blue	red	right	left	0.30000000000000004	0.7	2	6	0.6000000000000001	4.199999999999998	0	1	0.7	0.30000000000000004	6	2	4.199999999999998	0.6000000000000001	valid	0.6331758659980551	51200.0	0	0.0	2.0	51200	1	51200	1	51200	1	0.7	51200	red	blue	1	6	ml	2.7.3	lorasick	sub-05_ses-02_task-ml_proj-lorasick_2020-12-08-14-20-22.878888
226	5	2	5	227	stable	8	200	27	vs	red	blue	blue	red	right	left	0.30000000000000004	0.7	4	6	1.2000000000000002	4.199999999999998	1	0	0.7	0.30000000000000004	6	4	4.199999999999998	1.2000000000000002	invalid	0.5998683920006442	53248.0	0	1.0	1.0	51200	0	51200	0	51200	0	0.7	51200	red	blue	1	4	ml	2.7.3	lorasick	sub-05_ses-02_task-ml_proj-lorasick_2020-12-08-14-20-22.878888
227	5	2	5	228	stable	8	200	28	vs	red	blue	blue	red	right	left	0.30000000000000004	0.7	6	2	1.8000000000000005	1.4	0	1	0.7	0.30000000000000004	2	6	1.4	1.8000000000000005	valid	0.6665105920001224	53248.0	0	1.0	1.0	53248	1	51200	0	53248	1	0.7	51200	red	blue	0	0	ml	2.7.3	lorasick	sub-05_ses-02_task-ml_proj-lorasick_2020-12-08-14-20-22.878888
228	5	2	5	229	stable	8	200	29	vs	blue	red	blue	red	left	right	0.30000000000000004	0.7	2	6	0.6000000000000001	4.199999999999998	0	1	0.30000000000000004	0.7	2	6	0.6000000000000001	4.199999999999998	valid	0.34993366799972137	53248.0	0	1.0	2.0	53248	1	53248	1	53248	1	0.7	53248	red	blue	1	6	ml	2.7.3	lorasick	sub-05_ses-02_task-ml_proj-lorasick_2020-12-08-14-20-22.878888
229	5	2	5	230	stable	8	200	30	vs	blue	red	blue	red	left	right	0.30000000000000004	0.7	6	6	1.8000000000000005	4.199999999999998	0	1	0.30000000000000004	0.7	6	6	1.8000000000000005	4.199999999999998	valid	0.3832589550002013	53248.0	0	1.0	2.0	53248	1	53248	1	53248	1	0.7	53248	red	blue	0	6	ml	2.7.3	lorasick	sub-05_ses-02_task-ml_proj-lorasick_2020-12-08-14-20-22.878888
230	5	2	5	231	stable	8	200	31	vs	blue	red	blue	red	left	right	0.30000000000000004	0.7	6	4	1.8000000000000005	2.8	0	1	0.30000000000000004	0.7	6	4	1.8000000000000005	2.8	valid	0.3832565109987627	53248.0	0	1.0	2.0	53248	1	53248	1	51200	0	0.7	53248	red	blue	0	4	ml	2.7.3	lorasick	sub-05_ses-02_task-ml_proj-lorasick_2020-12-08-14-20-22.878888
231	5	2	5	232	stable	8	200	32	vs	blue	red	blue	red	left	right	0.30000000000000004	0.7	4	2	1.2000000000000002	1.4	0	1	0.30000000000000004	0.7	4	2	1.2000000000000002	1.4	valid	0.38325872699715546	53248.0	0	1.0	2.0	53248	1	53248	1	51200	0	0.7	53248	red	blue	0	2	ml	2.7.3	lorasick	sub-05_ses-02_task-ml_proj-lorasick_2020-12-08-14-20-22.878888
232	5	2	5	233	stable	8	200	33	vs	blue	red	blue	red	left	right	0.30000000000000004	0.7	2	6	0.6000000000000001	4.199999999999998	0	1	0.30000000000000004	0.7	2	6	0.6000000000000001	4.199999999999998	valid	0.3332671880016278	53248.0	0	1.0	2.0	53248	1	53248	1	53248	1	0.7	53248	red	blue	1	6	ml	2.7.3	lorasick	sub-05_ses-02_task-ml_proj-lorasick_2020-12-08-14-20-22.878888
233	5	2	5	234	stable	8	200	34	vs	blue	red	blue	red	left	right	0.30000000000000004	0.7	2	2	0.6000000000000001	1.4	0	1	0.30000000000000004	0.7	2	2	0.6000000000000001	1.4	valid	0.449904785000399	53248.0	0	1.0	2.0	53248	1	53248	1	53248	1	0.7	53248	red	blue	0	2	ml	2.7.3	lorasick	sub-05_ses-02_task-ml_proj-lorasick_2020-12-08-14-20-22.878888
234	5	2	5	235	stable	8	200	35	vs	blue	red	blue	red	left	right	0.30000000000000004	0.7	10	2	3.0000000000000004	1.4	1	0	0.30000000000000004	0.7	10	2	3.0000000000000004	1.4	invalid	0.44990860799953225	53248.0	0	1.0	2.0	51200	0	53248	1	51200	0	0.7	53248	red	blue	0	0	ml	2.7.3	lorasick	sub-05_ses-02_task-ml_proj-lorasick_2020-12-08-14-20-22.878888
235	5	2	5	236	stable	8	200	36	vs	blue	red	blue	red	left	right	0.30000000000000004	0.7	2	4	0.6000000000000001	2.8	1	0	0.30000000000000004	0.7	2	4	0.6000000000000001	2.8	invalid	0.33327525699860416	53248.0	0	1.0	2.0	53248	1	53248	1	53248	1	0.7	53248	red	blue	1	0	ml	2.7.3	lorasick	sub-05_ses-02_task-ml_proj-lorasick_2020-12-08-14-20-22.878888
236	5	2	5	237	stable	8	200	37	vs	red	blue	blue	red	right	left	0.30000000000000004	0.7	4	6	1.2000000000000002	4.199999999999998	1	0	0.7	0.30000000000000004	6	4	4.199999999999998	1.2000000000000002	invalid	0.6331874700008484	53248.0	0	1.0	1.0	51200	0	51200	0	51200	0	0.7	51200	red	blue	1	4	ml	2.7.3	lorasick	sub-05_ses-02_task-ml_proj-lorasick_2020-12-08-14-20-22.878888
237	5	2	5	238	stable	8	200	38	vs	blue	red	blue	red	left	right	0.30000000000000004	0.7	6	4	1.8000000000000005	2.8	0	1	0.30000000000000004	0.7	6	4	1.8000000000000005	2.8	valid	0.33326535000014695	51200.0	0	0.0	1.0	53248	0	53248	0	51200	1	0.7	53248	red	blue	0	0	ml	2.7.3	lorasick	sub-05_ses-02_task-ml_proj-lorasick_2020-12-08-14-20-22.878888
238	5	2	5	239	stable	8	200	39	vs	red	blue	blue	red	right	left	0.30000000000000004	0.7	6	4	1.8000000000000005	2.8	0	1	0.7	0.30000000000000004	4	6	2.8	1.8000000000000005	valid	0.4499066919997857	53248.0	0	1.0	1.0	51200	0	51200	0	53248	1	0.7	51200	red	blue	0	0	ml	2.7.3	lorasick	sub-05_ses-02_task-ml_proj-lorasick_2020-12-08-14-20-22.878888
239	5	2	5	240	stable	8	200	40	vs	red	blue	blue	red	right	left	0.30000000000000004	0.7	2	10	0.6000000000000001	7.0	0	1	0.7	0.30000000000000004	10	2	7.0	0.6000000000000001	valid	0.4165820540001732	53248.0	0	1.0	1.0	51200	0	51200	0	51200	0	0.7	51200	red	blue	1	0	ml	2.7.3	lorasick	sub-05_ses-02_task-ml_proj-lorasick_2020-12-08-14-20-22.878888
240	5	2	5	241	stable	8	200	41	vs	blue	red	blue	red	left	right	0.30000000000000004	0.7	2	2	0.6000000000000001	1.4	0	1	0.30000000000000004	0.7	2	2	0.6000000000000001	1.4	valid	0.5498688160005258	51200.0	0	0.0	1.0	53248	0	53248	0	53248	0	0.7	53248	red	blue	0	0	ml	2.7.3	lorasick	sub-05_ses-02_task-ml_proj-lorasick_2020-12-08-14-20-22.878888
241	5	2	5	242	stable	8	200	42	vs	blue	red	blue	red	left	right	0.30000000000000004	0.7	2	6	0.6000000000000001	4.199999999999998	1	0	0.30000000000000004	0.7	2	6	0.6000000000000001	4.199999999999998	invalid	0.3999162799991609	51200.0	0	0.0	1.0	53248	0	53248	0	53248	0	0.7	53248	red	blue	1	2	ml	2.7.3	lorasick	sub-05_ses-02_task-ml_proj-lorasick_2020-12-08-14-20-22.878888
242	5	2	5	243	stable	8	200	43	vs	red	blue	blue	red	right	left	0.30000000000000004	0.7	6	6	1.8000000000000005	4.199999999999998	1	0	0.7	0.30000000000000004	6	6	4.199999999999998	1.8000000000000005	invalid	0.3499405729999125	53248.0	0	1.0	1.0	51200	0	51200	0	53248	1	0.7	51200	red	blue	1	6	ml	2.7.3	lorasick	sub-05_ses-02_task-ml_proj-lorasick_2020-12-08-14-20-22.878888
243	5	2	5	244	stable	8	200	44	vs	red	blue	blue	red	right	left	0.30000000000000004	0.7	6	4	1.8000000000000005	2.8	0	1	0.7	0.30000000000000004	4	6	2.8	1.8000000000000005	valid	0.3666005480008607	53248.0	0	1.0	1.0	51200	0	51200	0	53248	1	0.7	51200	red	blue	0	0	ml	2.7.3	lorasick	sub-05_ses-02_task-ml_proj-lorasick_2020-12-08-14-20-22.878888
244	5	2	5	245	stable	8	200	45	vs	red	blue	blue	red	right	left	0.30000000000000004	0.7	4	2	1.2000000000000002	1.4	1	0	0.7	0.30000000000000004	2	4	1.4	1.2000000000000002	invalid	0.33328263700241223	53248.0	0	1.0	1.0	51200	0	51200	0	53248	1	0.7	51200	red	blue	0	4	ml	2.7.3	lorasick	sub-05_ses-02_task-ml_proj-lorasick_2020-12-08-14-20-22.878888
245	5	2	5	246	stable	8	200	46	vs	red	blue	blue	red	right	left	0.30000000000000004	0.7	10	2	3.0000000000000004	1.4	0	1	0.7	0.30000000000000004	2	10	1.4	3.0000000000000004	valid	0.3832589560006454	53248.0	0	1.0	1.0	53248	1	51200	0	53248	1	0.7	51200	red	blue	0	0	ml	2.7.3	lorasick	sub-05_ses-02_task-ml_proj-lorasick_2020-12-08-14-20-22.878888
246	5	2	5	247	stable	8	200	47	vs	blue	red	blue	red	left	right	0.30000000000000004	0.7	6	2	1.8000000000000005	1.4	0	1	0.30000000000000004	0.7	6	2	1.8000000000000005	1.4	valid	0.3166131200014206	53248.0	0	1.0	2.0	51200	0	53248	1	51200	0	0.7	53248	red	blue	0	2	ml	2.7.3	lorasick	sub-05_ses-02_task-ml_proj-lorasick_2020-12-08-14-20-22.878888
247	5	2	5	248	stable	8	200	48	vs	red	blue	blue	red	right	left	0.30000000000000004	0.7	2	2	0.6000000000000001	1.4	0	1	0.7	0.30000000000000004	2	2	1.4	0.6000000000000001	valid	0.4498954830014554	51200.0	0	0.0	2.0	51200	1	51200	1	53248	0	0.7	51200	red	blue	1	2	ml	2.7.3	lorasick	sub-05_ses-02_task-ml_proj-lorasick_2020-12-08-14-20-22.878888
248	5	2	5	249	stable	8	200	49	vs	blue	red	blue	red	left	right	0.30000000000000004	0.7	4	2	1.2000000000000002	1.4	0	1	0.30000000000000004	0.7	4	2	1.2000000000000002	1.4	valid	1.016408166000474	53248.0	0	1.0	2.0	53248	1	53248	1	51200	0	0.7	53248	red	blue	0	2	ml	2.7.3	lorasick	sub-05_ses-02_task-ml_proj-lorasick_2020-12-08-14-20-22.878888
249	5	2	5	250	stable	8	200	50	vs	blue	red	blue	red	left	right	0.30000000000000004	0.7	10	2	3.0000000000000004	1.4	0	1	0.30000000000000004	0.7	10	2	3.0000000000000004	1.4	valid	0.48322754599939793	53248.0	0	1.0	2.0	51200	0	53248	1	51200	0	0.7	53248	red	blue	0	2	ml	2.7.3	lorasick	sub-05_ses-02_task-ml_proj-lorasick_2020-12-08-14-20-22.878888
250	5	2	6	251	stable	8	200	51	vs	red	blue	blue	red	right	left	0.30000000000000004	0.7	6	6	1.8000000000000005	4.199999999999998	0	1	0.7	0.30000000000000004	6	6	4.199999999999998	1.8000000000000005	valid	0.6998260390028008	51200.0	0	0.0	2.0	51200	1	51200	1	53248	0	0.7	51200	red	blue	1	6	ml	2.7.3	lorasick	sub-05_ses-02_task-ml_proj-lorasick_2020-12-08-14-20-22.878888
251	5	2	6	252	stable	8	200	52	vs	red	blue	blue	red	right	left	0.30000000000000004	0.7	6	6	1.8000000000000005	4.199999999999998	1	0	0.7	0.30000000000000004	6	6	4.199999999999998	1.8000000000000005	invalid	0.33327541000107885	53248.0	0	1.0	1.0	51200	0	51200	0	53248	1	0.7	51200	red	blue	1	6	ml	2.7.3	lorasick	sub-05_ses-02_task-ml_proj-lorasick_2020-12-08-14-20-22.878888
252	5	2	6	253	stable	8	200	53	vs	blue	red	blue	red	left	right	0.30000000000000004	0.7	6	2	1.8000000000000005	1.4	0	1	0.30000000000000004	0.7	6	2	1.8000000000000005	1.4	valid	0.6331968710001092	53248.0	0	1.0	2.0	51200	0	53248	1	51200	0	0.7	53248	red	blue	0	2	ml	2.7.3	lorasick	sub-05_ses-02_task-ml_proj-lorasick_2020-12-08-14-20-22.878888
253	5	2	6	254	stable	8	200	54	vs	red	blue	blue	red	right	left	0.30000000000000004	0.7	4	6	1.2000000000000002	4.199999999999998	0	1	0.7	0.30000000000000004	6	4	4.199999999999998	1.2000000000000002	valid	0.3665862500020012	51200.0	0	0.0	2.0	51200	1	51200	1	51200	1	0.7	51200	red	blue	1	6	ml	2.7.3	lorasick	sub-05_ses-02_task-ml_proj-lorasick_2020-12-08-14-20-22.878888
254	5	2	6	255	stable	8	200	55	vs	blue	red	blue	red	left	right	0.30000000000000004	0.7	2	6	0.6000000000000001	4.199999999999998	1	0	0.30000000000000004	0.7	2	6	0.6000000000000001	4.199999999999998	invalid	1.7495355829996695	53248.0	0	1.0	2.0	53248	1	53248	1	53248	1	0.7	53248	red	blue	1	0	ml	2.7.3	lorasick	sub-05_ses-02_task-ml_proj-lorasick_2020-12-08-14-20-22.878888
255	5	2	6	256	stable	8	200	56	vs	red	blue	blue	red	right	left	0.30000000000000004	0.7	2	2	0.6000000000000001	1.4	0	1	0.7	0.30000000000000004	2	2	1.4	0.6000000000000001	valid	0.4998849470030109	53248.0	0	1.0	1.0	51200	0	51200	0	53248	1	0.7	51200	red	blue	1	0	ml	2.7.3	lorasick	sub-05_ses-02_task-ml_proj-lorasick_2020-12-08-14-20-22.878888
256	5	2	6	257	stable	8	200	57	vs	blue	red	blue	red	left	right	0.30000000000000004	0.7	10	2	3.0000000000000004	1.4	0	1	0.30000000000000004	0.7	10	2	3.0000000000000004	1.4	valid	0.3499362300026405	53248.0	0	1.0	2.0	51200	0	53248	1	51200	0	0.7	53248	red	blue	0	2	ml	2.7.3	lorasick	sub-05_ses-02_task-ml_proj-lorasick_2020-12-08-14-20-22.878888
257	5	2	6	258	stable	8	200	58	vs	red	blue	blue	red	right	left	0.30000000000000004	0.7	2	10	0.6000000000000001	7.0	0	1	0.7	0.30000000000000004	10	2	7.0	0.6000000000000001	valid	0.2999376890002168	51200.0	0	0.0	2.0	51200	1	51200	1	51200	1	0.7	51200	red	blue	1	10	ml	2.7.3	lorasick	sub-05_ses-02_task-ml_proj-lorasick_2020-12-08-14-20-22.878888
258	5	2	6	259	stable	8	200	59	vs	blue	red	blue	red	left	right	0.30000000000000004	0.7	6	2	1.8000000000000005	1.4	0	1	0.30000000000000004	0.7	6	2	1.8000000000000005	1.4	valid	0.3166055100009544	53248.0	0	1.0	2.0	51200	0	53248	1	51200	0	0.7	53248	red	blue	0	2	ml	2.7.3	lorasick	sub-05_ses-02_task-ml_proj-lorasick_2020-12-08-14-20-22.878888
259	5	2	6	260	stable	8	200	60	vs	blue	red	blue	red	left	right	0.30000000000000004	0.7	4	6	1.2000000000000002	4.199999999999998	0	1	0.30000000000000004	0.7	4	6	1.2000000000000002	4.199999999999998	valid	0.2999512930000492	53248.0	0	1.0	2.0	53248	1	53248	1	53248	1	0.7	53248	red	blue	1	6	ml	2.7.3	lorasick	sub-05_ses-02_task-ml_proj-lorasick_2020-12-08-14-20-22.878888
260	5	2	6	261	stable	8	200	61	vs	red	blue	blue	red	right	left	0.30000000000000004	0.7	10	2	3.0000000000000004	1.4	0	1	0.7	0.30000000000000004	2	10	1.4	3.0000000000000004	valid	0.3666001559977303	51200.0	0	0.0	2.0	53248	0	51200	1	53248	0	0.7	51200	red	blue	0	2	ml	2.7.3	lorasick	sub-05_ses-02_task-ml_proj-lorasick_2020-12-08-14-20-22.878888
261	5	2	6	262	stable	8	200	62	vs	red	blue	blue	red	right	left	0.30000000000000004	0.7	10	2	3.0000000000000004	1.4	1	0	0.7	0.30000000000000004	2	10	1.4	3.0000000000000004	invalid	0.383260654998594	53248.0	0	1.0	1.0	53248	1	51200	0	53248	1	0.7	51200	red	blue	0	10	ml	2.7.3	lorasick	sub-05_ses-02_task-ml_proj-lorasick_2020-12-08-14-20-22.878888
262	5	2	6	263	stable	8	200	63	vs	blue	red	blue	red	left	right	0.30000000000000004	0.7	4	6	1.2000000000000002	4.199999999999998	0	1	0.30000000000000004	0.7	4	6	1.2000000000000002	4.199999999999998	valid	2.66570279699954	53248.0	0	1.0	2.0	53248	1	53248	1	53248	1	0.7	53248	red	blue	1	6	ml	2.7.3	lorasick	sub-05_ses-02_task-ml_proj-lorasick_2020-12-08-14-20-22.878888
263	5	2	6	264	stable	8	200	64	vs	blue	red	blue	red	left	right	0.30000000000000004	0.7	2	4	0.6000000000000001	2.8	0	1	0.30000000000000004	0.7	2	4	0.6000000000000001	2.8	valid	0.3166078920003201	53248.0	0	1.0	2.0	53248	1	53248	1	53248	1	0.7	53248	red	blue	1	4	ml	2.7.3	lorasick	sub-05_ses-02_task-ml_proj-lorasick_2020-12-08-14-20-22.878888
264	5	2	6	265	stable	8	200	65	vs	blue	red	blue	red	left	right	0.30000000000000004	0.7	2	6	0.6000000000000001	4.199999999999998	0	1	0.30000000000000004	0.7	2	6	0.6000000000000001	4.199999999999998	valid	0.3665963970015582	53248.0	0	1.0	2.0	53248	1	53248	1	53248	1	0.7	53248	red	blue	1	6	ml	2.7.3	lorasick	sub-05_ses-02_task-ml_proj-lorasick_2020-12-08-14-20-22.878888
265	5	2	6	266	stable	8	200	66	vs	blue	red	blue	red	left	right	0.30000000000000004	0.7	10	2	3.0000000000000004	1.4	0	1	0.30000000000000004	0.7	10	2	3.0000000000000004	1.4	valid	0.3332862079987535	53248.0	0	1.0	2.0	51200	0	53248	1	51200	0	0.7	53248	red	blue	0	2	ml	2.7.3	lorasick	sub-05_ses-02_task-ml_proj-lorasick_2020-12-08-14-20-22.878888
266	5	2	6	267	stable	8	200	67	vs	blue	red	blue	red	left	right	0.30000000000000004	0.7	2	4	0.6000000000000001	2.8	0	1	0.30000000000000004	0.7	2	4	0.6000000000000001	2.8	valid	1.8495015029984645	53248.0	0	1.0	2.0	53248	1	53248	1	53248	1	0.7	53248	red	blue	1	4	ml	2.7.3	lorasick	sub-05_ses-02_task-ml_proj-lorasick_2020-12-08-14-20-22.878888
267	5	2	6	268	stable	8	200	68	vs	blue	red	blue	red	left	right	0.30000000000000004	0.7	2	6	0.6000000000000001	4.199999999999998	0	1	0.30000000000000004	0.7	2	6	0.6000000000000001	4.199999999999998	valid	0.3665953260024253	53248.0	0	1.0	2.0	53248	1	53248	1	53248	1	0.7	53248	red	blue	1	6	ml	2.7.3	lorasick	sub-05_ses-02_task-ml_proj-lorasick_2020-12-08-14-20-22.878888
268	5	2	6	269	stable	8	200	69	vs	blue	red	blue	red	left	right	0.30000000000000004	0.7	6	4	1.8000000000000005	2.8	1	0	0.30000000000000004	0.7	6	4	1.8000000000000005	2.8	invalid	0.3332772659996408	53248.0	0	1.0	2.0	53248	1	53248	1	51200	0	0.7	53248	red	blue	0	0	ml	2.7.3	lorasick	sub-05_ses-02_task-ml_proj-lorasick_2020-12-08-14-20-22.878888
269	5	2	6	270	stable	8	200	70	vs	red	blue	blue	red	right	left	0.30000000000000004	0.7	10	2	3.0000000000000004	1.4	1	0	0.7	0.30000000000000004	2	10	1.4	3.0000000000000004	invalid	0.3332738999997673	51200.0	0	0.0	2.0	53248	0	51200	1	53248	0	0.7	51200	red	blue	0	0	ml	2.7.3	lorasick	sub-05_ses-02_task-ml_proj-lorasick_2020-12-08-14-20-22.878888
270	5	2	6	271	stable	8	200	71	vs	blue	red	blue	red	left	right	0.30000000000000004	0.7	4	6	1.2000000000000002	4.199999999999998	0	1	0.30000000000000004	0.7	4	6	1.2000000000000002	4.199999999999998	valid	0.6665088779991493	53248.0	0	1.0	2.0	53248	1	53248	1	53248	1	0.7	53248	red	blue	1	6	ml	2.7.3	lorasick	sub-05_ses-02_task-ml_proj-lorasick_2020-12-08-14-20-22.878888
271	5	2	6	272	stable	8	200	72	vs	blue	red	blue	red	left	right	0.30000000000000004	0.7	2	4	0.6000000000000001	2.8	0	1	0.30000000000000004	0.7	2	4	0.6000000000000001	2.8	valid	0.5832027550022758	53248.0	0	1.0	2.0	53248	1	53248	1	53248	1	0.7	53248	red	blue	1	4	ml	2.7.3	lorasick	sub-05_ses-02_task-ml_proj-lorasick_2020-12-08-14-20-22.878888
272	5	2	6	273	stable	8	200	73	vs	blue	red	blue	red	left	right	0.30000000000000004	0.7	6	4	1.8000000000000005	2.8	0	1	0.30000000000000004	0.7	6	4	1.8000000000000005	2.8	valid	0.3832609849996516	53248.0	0	1.0	2.0	53248	1	53248	1	51200	0	0.7	53248	red	blue	0	4	ml	2.7.3	lorasick	sub-05_ses-02_task-ml_proj-lorasick_2020-12-08-14-20-22.878888
273	5	2	6	274	stable	8	200	74	vs	blue	red	blue	red	left	right	0.30000000000000004	0.7	4	2	1.2000000000000002	1.4	1	0	0.30000000000000004	0.7	4	2	1.2000000000000002	1.4	invalid	0.06668463000096381	51200.0	0	0.0	1.0	53248	0	53248	0	51200	1	0.7	53248	red	blue	0	4	ml	2.7.3	lorasick	sub-05_ses-02_task-ml_proj-lorasick_2020-12-08-14-20-22.878888
274	5	2	6	275	stable	8	200	75	vs	red	blue	blue	red	right	left	0.30000000000000004	0.7	4	6	1.2000000000000002	4.199999999999998	0	1	0.7	0.30000000000000004	6	4	4.199999999999998	1.2000000000000002	valid	0.2666277610005636	53248.0	0	1.0	1.0	51200	0	51200	0	51200	0	0.7	51200	red	blue	1	0	ml	2.7.3	lorasick	sub-05_ses-02_task-ml_proj-lorasick_2020-12-08-14-20-22.878888
275	5	2	6	276	stable	8	200	76	vs	red	blue	blue	red	right	left	0.30000000000000004	0.7	6	4	1.8000000000000005	2.8	0	1	0.7	0.30000000000000004	4	6	2.8	1.8000000000000005	valid	0.31659828299962106	51200.0	0	0.0	2.0	51200	1	51200	1	53248	0	0.7	51200	red	blue	0	4	ml	2.7.3	lorasick	sub-05_ses-02_task-ml_proj-lorasick_2020-12-08-14-20-22.878888
276	5	2	6	277	stable	8	200	77	vs	blue	red	blue	red	left	right	0.30000000000000004	0.7	2	4	0.6000000000000001	2.8	0	1	0.30000000000000004	0.7	2	4	0.6000000000000001	2.8	valid	0.3332814220011642	53248.0	0	1.0	2.0	53248	1	53248	1	53248	1	0.7	53248	red	blue	1	4	ml	2.7.3	lorasick	sub-05_ses-02_task-ml_proj-lorasick_2020-12-08-14-20-22.878888
277	5	2	6	278	stable	8	200	78	vs	red	blue	blue	red	right	left	0.30000000000000004	0.7	4	2	1.2000000000000002	1.4	1	0	0.7	0.30000000000000004	2	4	1.4	1.2000000000000002	invalid	0.4499090950012032	53248.0	0	1.0	1.0	51200	0	51200	0	53248	1	0.7	51200	red	blue	0	4	ml	2.7.3	lorasick	sub-05_ses-02_task-ml_proj-lorasick_2020-12-08-14-20-22.878888
278	5	2	6	279	stable	8	200	79	vs	red	blue	blue	red	right	left	0.30000000000000004	0.7	2	4	0.6000000000000001	2.8	0	1	0.7	0.30000000000000004	4	2	2.8	0.6000000000000001	valid	0.5498636739976064	51200.0	0	0.0	2.0	51200	1	51200	1	51200	1	0.7	51200	red	blue	1	4	ml	2.7.3	lorasick	sub-05_ses-02_task-ml_proj-lorasick_2020-12-08-14-20-22.878888
279	5	2	6	280	stable	8	200	80	vs	blue	red	blue	red	left	right	0.30000000000000004	0.7	2	6	0.6000000000000001	4.199999999999998	0	1	0.30000000000000004	0.7	2	6	0.6000000000000001	4.199999999999998	valid	0.3999247279971314	53248.0	0	1.0	2.0	53248	1	53248	1	53248	1	0.7	53248	red	blue	1	6	ml	2.7.3	lorasick	sub-05_ses-02_task-ml_proj-lorasick_2020-12-08-14-20-22.878888
280	5	2	6	281	stable	8	200	81	vs	blue	red	blue	red	left	right	0.30000000000000004	0.7	6	4	1.8000000000000005	2.8	0	1	0.30000000000000004	0.7	6	4	1.8000000000000005	2.8	valid	0.299948512998526	53248.0	0	1.0	2.0	53248	1	53248	1	51200	0	0.7	53248	red	blue	0	4	ml	2.7.3	lorasick	sub-05_ses-02_task-ml_proj-lorasick_2020-12-08-14-20-22.878888
281	5	2	6	282	stable	8	200	82	vs	red	blue	blue	red	right	left	0.30000000000000004	0.7	6	2	1.8000000000000005	1.4	0	1	0.7	0.30000000000000004	2	6	1.4	1.8000000000000005	valid	0.599852497001848	51200.0	0	0.0	2.0	53248	0	51200	1	53248	0	0.7	51200	red	blue	0	2	ml	2.7.3	lorasick	sub-05_ses-02_task-ml_proj-lorasick_2020-12-08-14-20-22.878888
282	5	2	6	283	stable	8	200	83	vs	blue	red	blue	red	left	right	0.30000000000000004	0.7	6	2	1.8000000000000005	1.4	0	1	0.30000000000000004	0.7	6	2	1.8000000000000005	1.4	valid	0.3832582329996512	53248.0	0	1.0	2.0	51200	0	53248	1	51200	0	0.7	53248	red	blue	0	2	ml	2.7.3	lorasick	sub-05_ses-02_task-ml_proj-lorasick_2020-12-08-14-20-22.878888
283	5	2	6	284	stable	8	200	84	vs	blue	red	blue	red	left	right	0.30000000000000004	0.7	2	2	0.6000000000000001	1.4	0	1	0.30000000000000004	0.7	2	2	0.6000000000000001	1.4	valid	0.38324799000110943	51200.0	0	0.0	1.0	53248	0	53248	0	53248	0	0.7	53248	red	blue	0	0	ml	2.7.3	lorasick	sub-05_ses-02_task-ml_proj-lorasick_2020-12-08-14-20-22.878888
284	5	2	6	285	stable	8	200	85	vs	red	blue	blue	red	right	left	0.30000000000000004	0.7	2	10	0.6000000000000001	7.0	0	1	0.7	0.30000000000000004	10	2	7.0	0.6000000000000001	valid	0.4332351200027915	51200.0	0	0.0	2.0	51200	1	51200	1	51200	1	0.7	51200	red	blue	1	10	ml	2.7.3	lorasick	sub-05_ses-02_task-ml_proj-lorasick_2020-12-08-14-20-22.878888
