Unnamed: 0	sub_id	ses_id	block_no	trial_no	phase_type	phase_no	phase_length	trialInPhase_no	phase_type_order	color_left	color_right	color1	color2	position1	position2	prob1	prob2	mag1	mag2	ev1	ev2	outcome1	outcome2	prob_left	prob_right	mag_left	mag_right	ev_left	ev_right	reward_validity	resp_time	resp_key	timeout	choice_side	choice	ev_corr_resp	ev_correct	prob_corr_resp	prob_correct	mag_corr_resp	mag_correct	high_prob	high_prob_side	high_prob_color	low_prob_color	no_brain	reward	name	version	proj_id	logFileID
0	1	2	1	1	volatile	1	40	1	vs	purple	turquoise	purple	turquoise	left	right	0.7	0.30000000000000004	4	6	2.8	1.8000000000000005	1	0	0.7	0.30000000000000004	4	6	2.8	1.8000000000000005	valid	0.5165473570014001	53248	0	1	2	51200	0	51200	0	53248	1	0.7	51200	purple	turquoise	0	0	ml	2.7.2	bip	sub-01_ses-02_task-ml_proj-bip_2020-10-02-11-31-40.968722
1	1	2	1	2	volatile	1	40	2	vs	turquoise	purple	purple	turquoise	right	left	0.7	0.30000000000000004	4	2	2.8	0.6000000000000001	1	0	0.30000000000000004	0.7	2	4	0.6000000000000001	2.8	valid	0.6998286200014263	53248	0	1	1	53248	1	53248	1	53248	1	0.7	53248	purple	turquoise	1	4	ml	2.7.2	bip	sub-01_ses-02_task-ml_proj-bip_2020-10-02-11-31-40.968722
2	1	2	1	3	volatile	1	40	3	vs	purple	turquoise	purple	turquoise	left	right	0.7	0.30000000000000004	2	4	1.4	1.2000000000000002	1	0	0.7	0.30000000000000004	2	4	1.4	1.2000000000000002	valid	0.5165405249990727	51200	0	0	1	51200	1	51200	1	53248	0	0.7	51200	purple	turquoise	0	2	ml	2.7.2	bip	sub-01_ses-02_task-ml_proj-bip_2020-10-02-11-31-40.968722
3	1	2	1	4	volatile	1	40	4	vs	turquoise	purple	purple	turquoise	right	left	0.7	0.30000000000000004	2	10	1.4	3.0000000000000004	1	0	0.30000000000000004	0.7	10	2	3.0000000000000004	1.4	valid	0.4665698790013266	53248	0	1	1	51200	0	53248	1	51200	0	0.7	53248	purple	turquoise	0	2	ml	2.7.2	bip	sub-01_ses-02_task-ml_proj-bip_2020-10-02-11-31-40.968722
4	1	2	1	5	volatile	1	40	5	vs	purple	turquoise	purple	turquoise	left	right	0.7	0.30000000000000004	6	2	4.199999999999998	0.6000000000000001	1	0	0.7	0.30000000000000004	6	2	4.199999999999998	0.6000000000000001	valid	0.3832430749989726	51200	0	0	1	51200	1	51200	1	51200	1	0.7	51200	purple	turquoise	1	6	ml	2.7.2	bip	sub-01_ses-02_task-ml_proj-bip_2020-10-02-11-31-40.968722
5	1	2	1	6	volatile	1	40	6	vs	purple	turquoise	purple	turquoise	left	right	0.7	0.30000000000000004	4	6	2.8	1.8000000000000005	0	1	0.7	0.30000000000000004	4	6	2.8	1.8000000000000005	invalid	0.4998776430002181	51200	0	0	1	51200	1	51200	1	53248	0	0.7	51200	purple	turquoise	0	0	ml	2.7.2	bip	sub-01_ses-02_task-ml_proj-bip_2020-10-02-11-31-40.968722
6	1	2	1	7	volatile	1	40	7	vs	purple	turquoise	purple	turquoise	left	right	0.7	0.30000000000000004	2	6	1.4	1.8000000000000005	0	1	0.7	0.30000000000000004	2	6	1.4	1.8000000000000005	invalid	0.5498590529987268	51200	0	0	1	53248	0	51200	1	53248	0	0.7	51200	purple	turquoise	0	0	ml	2.7.2	bip	sub-01_ses-02_task-ml_proj-bip_2020-10-02-11-31-40.968722
7	1	2	1	8	volatile	1	40	8	vs	purple	turquoise	purple	turquoise	left	right	0.7	0.30000000000000004	6	6	4.199999999999998	1.8000000000000005	1	0	0.7	0.30000000000000004	6	6	4.199999999999998	1.8000000000000005	valid	0.8664366040011373	53248	0	1	2	51200	0	51200	0	53248	1	0.7	51200	purple	turquoise	1	0	ml	2.7.2	bip	sub-01_ses-02_task-ml_proj-bip_2020-10-02-11-31-40.968722
8	1	2	1	9	volatile	1	40	9	vs	turquoise	purple	purple	turquoise	right	left	0.7	0.30000000000000004	2	10	1.4	3.0000000000000004	0	1	0.30000000000000004	0.7	10	2	3.0000000000000004	1.4	invalid	0.666490948999126	51200	0	0	2	51200	1	53248	0	51200	1	0.7	53248	purple	turquoise	0	10	ml	2.7.2	bip	sub-01_ses-02_task-ml_proj-bip_2020-10-02-11-31-40.968722
9	1	2	1	10	volatile	1	40	10	vs	turquoise	purple	purple	turquoise	right	left	0.7	0.30000000000000004	4	2	2.8	0.6000000000000001	1	0	0.30000000000000004	0.7	2	4	0.6000000000000001	2.8	valid	0.5331999119989632	51200	0	0	2	53248	0	53248	0	53248	0	0.7	53248	purple	turquoise	1	0	ml	2.7.2	bip	sub-01_ses-02_task-ml_proj-bip_2020-10-02-11-31-40.968722
10	1	2	1	11	volatile	1	40	11	vs	turquoise	purple	purple	turquoise	right	left	0.7	0.30000000000000004	2	4	1.4	1.2000000000000002	1	0	0.30000000000000004	0.7	4	2	1.2000000000000002	1.4	valid	0.4165614099983941	51200	0	0	2	53248	0	53248	0	51200	1	0.7	53248	purple	turquoise	0	0	ml	2.7.2	bip	sub-01_ses-02_task-ml_proj-bip_2020-10-02-11-31-40.968722
11	1	2	1	12	volatile	1	40	12	vs	turquoise	purple	purple	turquoise	right	left	0.7	0.30000000000000004	6	2	4.199999999999998	0.6000000000000001	1	0	0.30000000000000004	0.7	2	6	0.6000000000000001	4.199999999999998	valid	0.8664482989988755	53248	0	1	1	53248	1	53248	1	53248	1	0.7	53248	purple	turquoise	1	6	ml	2.7.2	bip	sub-01_ses-02_task-ml_proj-bip_2020-10-02-11-31-40.968722
12	1	2	1	13	volatile	1	40	13	vs	purple	turquoise	purple	turquoise	left	right	0.7	0.30000000000000004	6	2	4.199999999999998	0.6000000000000001	1	0	0.7	0.30000000000000004	6	2	4.199999999999998	0.6000000000000001	valid	0.3832491890007077	51200	0	0	1	51200	1	51200	1	51200	1	0.7	51200	purple	turquoise	1	6	ml	2.7.2	bip	sub-01_ses-02_task-ml_proj-bip_2020-10-02-11-31-40.968722
13	1	2	1	14	volatile	1	40	14	vs	turquoise	purple	purple	turquoise	right	left	0.7	0.30000000000000004	2	4	1.4	1.2000000000000002	1	0	0.30000000000000004	0.7	4	2	1.2000000000000002	1.4	valid	0.4332432289993449	53248	0	1	1	53248	1	53248	1	51200	0	0.7	53248	purple	turquoise	0	2	ml	2.7.2	bip	sub-01_ses-02_task-ml_proj-bip_2020-10-02-11-31-40.968722
14	1	2	1	15	volatile	1	40	15	vs	purple	turquoise	purple	turquoise	left	right	0.7	0.30000000000000004	4	2	2.8	0.6000000000000001	1	0	0.7	0.30000000000000004	4	2	2.8	0.6000000000000001	valid	0.4332320299999992	51200	0	0	1	51200	1	51200	1	51200	1	0.7	51200	purple	turquoise	1	4	ml	2.7.2	bip	sub-01_ses-02_task-ml_proj-bip_2020-10-02-11-31-40.968722
15	1	2	1	16	volatile	1	40	16	vs	turquoise	purple	purple	turquoise	right	left	0.7	0.30000000000000004	10	2	7.0	0.6000000000000001	1	0	0.30000000000000004	0.7	2	10	0.6000000000000001	7.0	valid	0.4499036340002931	53248	0	1	1	53248	1	53248	1	53248	1	0.7	53248	purple	turquoise	1	10	ml	2.7.2	bip	sub-01_ses-02_task-ml_proj-bip_2020-10-02-11-31-40.968722
16	1	2	1	17	volatile	1	40	17	vs	purple	turquoise	purple	turquoise	left	right	0.7	0.30000000000000004	2	6	1.4	1.8000000000000005	0	1	0.7	0.30000000000000004	2	6	1.4	1.8000000000000005	invalid	0.3999064099989482	51200	0	0	1	53248	0	51200	1	53248	0	0.7	51200	purple	turquoise	0	0	ml	2.7.2	bip	sub-01_ses-02_task-ml_proj-bip_2020-10-02-11-31-40.968722
17	1	2	1	18	volatile	1	40	18	vs	turquoise	purple	purple	turquoise	right	left	0.7	0.30000000000000004	4	6	2.8	1.8000000000000005	1	0	0.30000000000000004	0.7	6	4	1.8000000000000005	2.8	valid	0.8497810770004435	53248	0	1	1	53248	1	53248	1	51200	0	0.7	53248	purple	turquoise	0	4	ml	2.7.2	bip	sub-01_ses-02_task-ml_proj-bip_2020-10-02-11-31-40.968722
18	1	2	1	19	volatile	1	40	19	vs	purple	turquoise	purple	turquoise	left	right	0.7	0.30000000000000004	6	4	4.199999999999998	1.2000000000000002	0	1	0.7	0.30000000000000004	6	4	4.199999999999998	1.2000000000000002	invalid	0.4998689650001325	51200	0	0	1	51200	1	51200	1	51200	1	0.7	51200	purple	turquoise	1	0	ml	2.7.2	bip	sub-01_ses-02_task-ml_proj-bip_2020-10-02-11-31-40.968722
19	1	2	1	20	volatile	1	40	20	vs	turquoise	purple	purple	turquoise	right	left	0.7	0.30000000000000004	10	2	7.0	0.6000000000000001	1	0	0.30000000000000004	0.7	2	10	0.6000000000000001	7.0	valid	0.9664190000003146	53248	0	1	1	53248	1	53248	1	53248	1	0.7	53248	purple	turquoise	1	10	ml	2.7.2	bip	sub-01_ses-02_task-ml_proj-bip_2020-10-02-11-31-40.968722
20	1	2	1	21	volatile	1	40	21	vs	purple	turquoise	purple	turquoise	left	right	0.7	0.30000000000000004	2	4	1.4	1.2000000000000002	1	0	0.7	0.30000000000000004	2	4	1.4	1.2000000000000002	valid	0.3665814439991664	51200	0	0	1	51200	1	51200	1	53248	0	0.7	51200	purple	turquoise	0	2	ml	2.7.2	bip	sub-01_ses-02_task-ml_proj-bip_2020-10-02-11-31-40.968722
21	1	2	1	22	volatile	1	40	22	vs	turquoise	purple	purple	turquoise	right	left	0.7	0.30000000000000004	2	6	1.4	1.8000000000000005	0	1	0.30000000000000004	0.7	6	2	1.8000000000000005	1.4	invalid	0.3832517849987198	53248	0	1	1	51200	0	53248	1	51200	0	0.7	53248	purple	turquoise	0	0	ml	2.7.2	bip	sub-01_ses-02_task-ml_proj-bip_2020-10-02-11-31-40.968722
22	1	2	1	23	volatile	1	40	23	vs	turquoise	purple	purple	turquoise	right	left	0.7	0.30000000000000004	2	2	1.4	0.6000000000000001	0	1	0.30000000000000004	0.7	2	2	0.6000000000000001	1.4	invalid	0.9497533490011848	53248	0	1	1	53248	1	53248	1	53248	1	0.7	53248	purple	turquoise	0	0	ml	2.7.2	bip	sub-01_ses-02_task-ml_proj-bip_2020-10-02-11-31-40.968722
23	1	2	1	24	volatile	1	40	24	vs	purple	turquoise	purple	turquoise	left	right	0.7	0.30000000000000004	10	2	7.0	0.6000000000000001	1	0	0.7	0.30000000000000004	10	2	7.0	0.6000000000000001	valid	0.5165463869998348	53248	0	1	2	51200	0	51200	0	51200	0	0.7	51200	purple	turquoise	1	0	ml	2.7.2	bip	sub-01_ses-02_task-ml_proj-bip_2020-10-02-11-31-40.968722
24	1	2	1	25	volatile	1	40	25	vs	purple	turquoise	purple	turquoise	left	right	0.7	0.30000000000000004	6	6	4.199999999999998	1.8000000000000005	1	0	0.7	0.30000000000000004	6	6	4.199999999999998	1.8000000000000005	valid	0.5332152789997053	53248	0	1	2	51200	0	51200	0	53248	1	0.7	51200	purple	turquoise	1	0	ml	2.7.2	bip	sub-01_ses-02_task-ml_proj-bip_2020-10-02-11-31-40.968722
25	1	2	1	26	volatile	1	40	26	vs	turquoise	purple	purple	turquoise	right	left	0.7	0.30000000000000004	10	2	7.0	0.6000000000000001	1	0	0.30000000000000004	0.7	2	10	0.6000000000000001	7.0	valid	0.4832272290004767	53248	0	1	1	53248	1	53248	1	53248	1	0.7	53248	purple	turquoise	1	10	ml	2.7.2	bip	sub-01_ses-02_task-ml_proj-bip_2020-10-02-11-31-40.968722
26	1	2	1	27	volatile	1	40	27	vs	turquoise	purple	purple	turquoise	right	left	0.7	0.30000000000000004	6	2	4.199999999999998	0.6000000000000001	0	1	0.30000000000000004	0.7	2	6	0.6000000000000001	4.199999999999998	invalid	0.36659401199904096	53248	0	1	1	53248	1	53248	1	53248	1	0.7	53248	purple	turquoise	1	0	ml	2.7.2	bip	sub-01_ses-02_task-ml_proj-bip_2020-10-02-11-31-40.968722
27	1	2	1	28	volatile	1	40	28	vs	purple	turquoise	purple	turquoise	left	right	0.7	0.30000000000000004	2	2	1.4	0.6000000000000001	0	1	0.7	0.30000000000000004	2	2	1.4	0.6000000000000001	invalid	0.5998573599990777	53248	0	1	2	51200	0	51200	0	53248	1	0.7	51200	purple	turquoise	1	2	ml	2.7.2	bip	sub-01_ses-02_task-ml_proj-bip_2020-10-02-11-31-40.968722
28	1	2	1	29	volatile	1	40	29	vs	turquoise	purple	purple	turquoise	right	left	0.7	0.30000000000000004	10	2	7.0	0.6000000000000001	1	0	0.30000000000000004	0.7	2	10	0.6000000000000001	7.0	valid	0.3999077270000271	51200	0	0	2	53248	0	53248	0	53248	0	0.7	53248	purple	turquoise	1	0	ml	2.7.2	bip	sub-01_ses-02_task-ml_proj-bip_2020-10-02-11-31-40.968722
29	1	2	1	30	volatile	1	40	30	vs	turquoise	purple	purple	turquoise	right	left	0.7	0.30000000000000004	2	6	1.4	1.8000000000000005	1	0	0.30000000000000004	0.7	6	2	1.8000000000000005	1.4	valid	0.4832128889993328	51200	0	0	2	51200	1	53248	0	51200	1	0.7	53248	purple	turquoise	0	0	ml	2.7.2	bip	sub-01_ses-02_task-ml_proj-bip_2020-10-02-11-31-40.968722
30	1	2	1	31	volatile	1	40	31	vs	purple	turquoise	purple	turquoise	left	right	0.7	0.30000000000000004	6	4	4.199999999999998	1.2000000000000002	1	0	0.7	0.30000000000000004	6	4	4.199999999999998	1.2000000000000002	valid	0.4998745320008311	51200	0	0	1	51200	1	51200	1	51200	1	0.7	51200	purple	turquoise	1	6	ml	2.7.2	bip	sub-01_ses-02_task-ml_proj-bip_2020-10-02-11-31-40.968722
31	1	2	1	32	volatile	1	40	32	vs	purple	turquoise	purple	turquoise	left	right	0.7	0.30000000000000004	4	6	2.8	1.8000000000000005	1	0	0.7	0.30000000000000004	4	6	2.8	1.8000000000000005	valid	0.4332280079997872	51200	0	0	1	51200	1	51200	1	53248	0	0.7	51200	purple	turquoise	0	4	ml	2.7.2	bip	sub-01_ses-02_task-ml_proj-bip_2020-10-02-11-31-40.968722
32	1	2	1	33	volatile	1	40	33	vs	purple	turquoise	purple	turquoise	left	right	0.7	0.30000000000000004	6	6	4.199999999999998	1.8000000000000005	1	0	0.7	0.30000000000000004	6	6	4.199999999999998	1.8000000000000005	valid	0.3999184780004725	51200	0	0	1	51200	1	51200	1	53248	0	0.7	51200	purple	turquoise	1	6	ml	2.7.2	bip	sub-01_ses-02_task-ml_proj-bip_2020-10-02-11-31-40.968722
33	1	2	1	34	volatile	1	40	34	vs	purple	turquoise	purple	turquoise	left	right	0.7	0.30000000000000004	2	2	1.4	0.6000000000000001	1	0	0.7	0.30000000000000004	2	2	1.4	0.6000000000000001	valid	0.4332295219992375	51200	0	0	1	51200	1	51200	1	53248	0	0.7	51200	purple	turquoise	1	2	ml	2.7.2	bip	sub-01_ses-02_task-ml_proj-bip_2020-10-02-11-31-40.968722
34	1	2	1	35	volatile	1	40	35	vs	purple	turquoise	purple	turquoise	left	right	0.7	0.30000000000000004	6	4	4.199999999999998	1.2000000000000002	1	0	0.7	0.30000000000000004	6	4	4.199999999999998	1.2000000000000002	valid	0.3832509879994177	51200	0	0	1	51200	1	51200	1	51200	1	0.7	51200	purple	turquoise	1	6	ml	2.7.2	bip	sub-01_ses-02_task-ml_proj-bip_2020-10-02-11-31-40.968722
35	1	2	1	36	volatile	1	40	36	vs	turquoise	purple	purple	turquoise	right	left	0.7	0.30000000000000004	2	4	1.4	1.2000000000000002	1	0	0.30000000000000004	0.7	4	2	1.2000000000000002	1.4	valid	0.4998862489992462	53248	0	1	1	53248	1	53248	1	51200	0	0.7	53248	purple	turquoise	0	2	ml	2.7.2	bip	sub-01_ses-02_task-ml_proj-bip_2020-10-02-11-31-40.968722
36	1	2	1	37	volatile	1	40	37	vs	turquoise	purple	purple	turquoise	right	left	0.7	0.30000000000000004	2	2	1.4	0.6000000000000001	1	0	0.30000000000000004	0.7	2	2	0.6000000000000001	1.4	valid	0.6331849430007424	53248	0	1	1	53248	1	53248	1	53248	1	0.7	53248	purple	turquoise	0	2	ml	2.7.2	bip	sub-01_ses-02_task-ml_proj-bip_2020-10-02-11-31-40.968722
37	1	2	1	38	volatile	1	40	38	vs	turquoise	purple	purple	turquoise	right	left	0.7	0.30000000000000004	2	10	1.4	3.0000000000000004	0	1	0.30000000000000004	0.7	10	2	3.0000000000000004	1.4	invalid	0.4332460820005508	53248	0	1	1	51200	0	53248	1	51200	0	0.7	53248	purple	turquoise	0	0	ml	2.7.2	bip	sub-01_ses-02_task-ml_proj-bip_2020-10-02-11-31-40.968722
38	1	2	1	39	volatile	1	40	39	vs	turquoise	purple	purple	turquoise	right	left	0.7	0.30000000000000004	6	6	4.199999999999998	1.8000000000000005	0	1	0.30000000000000004	0.7	6	6	1.8000000000000005	4.199999999999998	invalid	1.1497021010000026	51200	0	0	2	53248	0	53248	0	53248	0	0.7	53248	purple	turquoise	0	6	ml	2.7.2	bip	sub-01_ses-02_task-ml_proj-bip_2020-10-02-11-31-40.968722
39	1	2	1	40	volatile	1	40	40	vs	purple	turquoise	purple	turquoise	left	right	0.7	0.30000000000000004	4	6	2.8	1.8000000000000005	0	1	0.7	0.30000000000000004	4	6	2.8	1.8000000000000005	invalid	0.8164583890011272	53248	0	1	2	51200	0	51200	0	53248	1	0.7	51200	purple	turquoise	0	6	ml	2.7.2	bip	sub-01_ses-02_task-ml_proj-bip_2020-10-02-11-31-40.968722
40	1	2	1	41	volatile	2	20	1	vs	purple	turquoise	purple	turquoise	left	right	0.30000000000000004	0.7	10	2	3.0000000000000004	1.4	0	1	0.30000000000000004	0.7	10	2	3.0000000000000004	1.4	valid	0.41657761900023615	53248	0	1	2	51200	0	53248	1	51200	0	0.7	53248	turquoise	purple	0	2	ml	2.7.2	bip	sub-01_ses-02_task-ml_proj-bip_2020-10-02-11-31-40.968722
41	1	2	1	42	volatile	2	20	2	vs	purple	turquoise	purple	turquoise	left	right	0.30000000000000004	0.7	6	2	1.8000000000000005	1.4	0	1	0.30000000000000004	0.7	6	2	1.8000000000000005	1.4	valid	0.4332399800005078	53248	0	1	2	51200	0	53248	1	51200	0	0.7	53248	turquoise	purple	0	2	ml	2.7.2	bip	sub-01_ses-02_task-ml_proj-bip_2020-10-02-11-31-40.968722
42	1	2	1	43	volatile	2	20	3	vs	turquoise	purple	purple	turquoise	right	left	0.30000000000000004	0.7	2	4	0.6000000000000001	2.8	0	1	0.7	0.30000000000000004	4	2	2.8	0.6000000000000001	valid	0.5498600080009055	51200	0	0	2	51200	1	51200	1	51200	1	0.7	51200	turquoise	purple	1	4	ml	2.7.2	bip	sub-01_ses-02_task-ml_proj-bip_2020-10-02-11-31-40.968722
43	1	2	1	44	volatile	2	20	4	vs	turquoise	purple	purple	turquoise	right	left	0.30000000000000004	0.7	6	6	1.8000000000000005	4.199999999999998	1	0	0.7	0.30000000000000004	6	6	4.199999999999998	1.8000000000000005	invalid	0.39990619699892704	51200	0	0	2	51200	1	51200	1	53248	0	0.7	51200	turquoise	purple	1	0	ml	2.7.2	bip	sub-01_ses-02_task-ml_proj-bip_2020-10-02-11-31-40.968722
44	1	2	1	45	volatile	2	20	5	vs	purple	turquoise	purple	turquoise	left	right	0.30000000000000004	0.7	4	2	1.2000000000000002	1.4	0	1	0.30000000000000004	0.7	4	2	1.2000000000000002	1.4	valid	0.4165845689985872	53248	0	1	2	53248	1	53248	1	51200	0	0.7	53248	turquoise	purple	0	2	ml	2.7.2	bip	sub-01_ses-02_task-ml_proj-bip_2020-10-02-11-31-40.968722
45	1	2	1	46	volatile	2	20	6	vs	turquoise	purple	purple	turquoise	right	left	0.30000000000000004	0.7	4	6	1.2000000000000002	4.199999999999998	0	1	0.7	0.30000000000000004	6	4	4.199999999999998	1.2000000000000002	valid	0.3499201220001851	51200	0	0	2	51200	1	51200	1	51200	1	0.7	51200	turquoise	purple	1	6	ml	2.7.2	bip	sub-01_ses-02_task-ml_proj-bip_2020-10-02-11-31-40.968722
46	1	2	1	47	volatile	2	20	7	vs	purple	turquoise	purple	turquoise	left	right	0.30000000000000004	0.7	2	6	0.6000000000000001	4.199999999999998	1	0	0.30000000000000004	0.7	2	6	0.6000000000000001	4.199999999999998	invalid	0.4165774039993265	53248	0	1	2	53248	1	53248	1	53248	1	0.7	53248	turquoise	purple	1	0	ml	2.7.2	bip	sub-01_ses-02_task-ml_proj-bip_2020-10-02-11-31-40.968722
47	1	2	1	48	volatile	2	20	8	vs	turquoise	purple	purple	turquoise	right	left	0.30000000000000004	0.7	2	6	0.6000000000000001	4.199999999999998	0	1	0.7	0.30000000000000004	6	2	4.199999999999998	0.6000000000000001	valid	0.3332588780012884	51200	0	0	2	51200	1	51200	1	51200	1	0.7	51200	turquoise	purple	1	6	ml	2.7.2	bip	sub-01_ses-02_task-ml_proj-bip_2020-10-02-11-31-40.968722
48	1	2	1	49	volatile	2	20	9	vs	turquoise	purple	purple	turquoise	right	left	0.30000000000000004	0.7	4	2	1.2000000000000002	1.4	0	1	0.7	0.30000000000000004	2	4	1.4	1.2000000000000002	valid	0.4498909690009896	51200	0	0	2	51200	1	51200	1	53248	0	0.7	51200	turquoise	purple	0	2	ml	2.7.2	bip	sub-01_ses-02_task-ml_proj-bip_2020-10-02-11-31-40.968722
49	1	2	1	50	volatile	2	20	10	vs	purple	turquoise	purple	turquoise	left	right	0.30000000000000004	0.7	4	6	1.2000000000000002	4.199999999999998	1	0	0.30000000000000004	0.7	4	6	1.2000000000000002	4.199999999999998	invalid	0.499883767000938	53248	0	1	2	53248	1	53248	1	53248	1	0.7	53248	turquoise	purple	1	0	ml	2.7.2	bip	sub-01_ses-02_task-ml_proj-bip_2020-10-02-11-31-40.968722
50	1	2	2	51	volatile	2	20	11	vs	purple	turquoise	purple	turquoise	left	right	0.30000000000000004	0.7	2	6	0.6000000000000001	4.199999999999998	0	1	0.30000000000000004	0.7	2	6	0.6000000000000001	4.199999999999998	valid	0.5498751459999767	53248	0	1	2	53248	1	53248	1	53248	1	0.7	53248	turquoise	purple	1	6	ml	2.7.2	bip	sub-01_ses-02_task-ml_proj-bip_2020-10-02-11-31-40.968722
51	1	2	2	52	volatile	2	20	12	vs	purple	turquoise	purple	turquoise	left	right	0.30000000000000004	0.7	4	6	1.2000000000000002	4.199999999999998	0	1	0.30000000000000004	0.7	4	6	1.2000000000000002	4.199999999999998	valid	0.3999176400011493	53248	0	1	2	53248	1	53248	1	53248	1	0.7	53248	turquoise	purple	1	6	ml	2.7.2	bip	sub-01_ses-02_task-ml_proj-bip_2020-10-02-11-31-40.968722
52	1	2	2	53	volatile	2	20	13	vs	purple	turquoise	purple	turquoise	left	right	0.30000000000000004	0.7	2	10	0.6000000000000001	7.0	0	1	0.30000000000000004	0.7	2	10	0.6000000000000001	7.0	valid	0.5165456060003635	53248	0	1	2	53248	1	53248	1	53248	1	0.7	53248	turquoise	purple	1	10	ml	2.7.2	bip	sub-01_ses-02_task-ml_proj-bip_2020-10-02-11-31-40.968722
53	1	2	2	54	volatile	2	20	14	vs	turquoise	purple	purple	turquoise	right	left	0.30000000000000004	0.7	10	2	3.0000000000000004	1.4	1	0	0.7	0.30000000000000004	2	10	1.4	3.0000000000000004	invalid	0.36658361599984346	51200	0	0	2	53248	0	51200	1	53248	0	0.7	51200	turquoise	purple	0	0	ml	2.7.2	bip	sub-01_ses-02_task-ml_proj-bip_2020-10-02-11-31-40.968722
54	1	2	2	55	volatile	2	20	15	vs	turquoise	purple	purple	turquoise	right	left	0.30000000000000004	0.7	2	2	0.6000000000000001	1.4	0	1	0.7	0.30000000000000004	2	2	1.4	0.6000000000000001	valid	0.9164162649994978	51200	0	0	2	51200	1	51200	1	53248	0	0.7	51200	turquoise	purple	1	2	ml	2.7.2	bip	sub-01_ses-02_task-ml_proj-bip_2020-10-02-11-31-40.968722
55	1	2	2	56	volatile	2	20	16	vs	purple	turquoise	purple	turquoise	left	right	0.30000000000000004	0.7	10	2	3.0000000000000004	1.4	1	0	0.30000000000000004	0.7	10	2	3.0000000000000004	1.4	invalid	0.4665500529990823	51200	0	0	1	51200	1	53248	0	51200	1	0.7	53248	turquoise	purple	0	10	ml	2.7.2	bip	sub-01_ses-02_task-ml_proj-bip_2020-10-02-11-31-40.968722
56	1	2	2	57	volatile	2	20	17	vs	turquoise	purple	purple	turquoise	right	left	0.30000000000000004	0.7	6	6	1.8000000000000005	4.199999999999998	0	1	0.7	0.30000000000000004	6	6	4.199999999999998	1.8000000000000005	valid	0.3332677260004857	53248	0	1	1	51200	0	51200	0	53248	1	0.7	51200	turquoise	purple	1	0	ml	2.7.2	bip	sub-01_ses-02_task-ml_proj-bip_2020-10-02-11-31-40.968722
57	1	2	2	58	volatile	2	20	18	vs	turquoise	purple	purple	turquoise	right	left	0.30000000000000004	0.7	4	2	1.2000000000000002	1.4	0	1	0.7	0.30000000000000004	2	4	1.4	1.2000000000000002	valid	0.4665567249994638	53248	0	1	1	51200	0	51200	0	53248	1	0.7	51200	turquoise	purple	0	0	ml	2.7.2	bip	sub-01_ses-02_task-ml_proj-bip_2020-10-02-11-31-40.968722
58	1	2	2	59	volatile	2	20	19	vs	turquoise	purple	purple	turquoise	right	left	0.30000000000000004	0.7	2	2	0.6000000000000001	1.4	1	0	0.7	0.30000000000000004	2	2	1.4	0.6000000000000001	invalid	0.3832419540012779	51200	0	0	2	51200	1	51200	1	53248	0	0.7	51200	turquoise	purple	1	0	ml	2.7.2	bip	sub-01_ses-02_task-ml_proj-bip_2020-10-02-11-31-40.968722
59	1	2	2	60	volatile	2	20	20	vs	purple	turquoise	purple	turquoise	left	right	0.30000000000000004	0.7	6	4	1.8000000000000005	2.8	0	1	0.30000000000000004	0.7	6	4	1.8000000000000005	2.8	valid	0.3999055429994769	51200	0	0	1	53248	0	53248	0	51200	1	0.7	53248	turquoise	purple	0	0	ml	2.7.2	bip	sub-01_ses-02_task-ml_proj-bip_2020-10-02-11-31-40.968722
60	1	2	2	61	volatile	3	20	1	vs	turquoise	purple	purple	turquoise	right	left	0.7	0.30000000000000004	6	6	4.199999999999998	1.8000000000000005	0	1	0.30000000000000004	0.7	6	6	1.8000000000000005	4.199999999999998	invalid	0.4665519860009226	51200	0	0	2	53248	0	53248	0	53248	0	0.7	53248	purple	turquoise	0	6	ml	2.7.2	bip	sub-01_ses-02_task-ml_proj-bip_2020-10-02-11-31-40.968722
61	1	2	2	62	volatile	3	20	2	vs	purple	turquoise	purple	turquoise	left	right	0.7	0.30000000000000004	4	2	2.8	0.6000000000000001	1	0	0.7	0.30000000000000004	4	2	2.8	0.6000000000000001	valid	0.41657722299896704	53248	0	1	2	51200	0	51200	0	51200	0	0.7	51200	purple	turquoise	1	0	ml	2.7.2	bip	sub-01_ses-02_task-ml_proj-bip_2020-10-02-11-31-40.968722
62	1	2	2	63	volatile	3	20	3	vs	turquoise	purple	purple	turquoise	right	left	0.7	0.30000000000000004	4	2	2.8	0.6000000000000001	0	1	0.30000000000000004	0.7	2	4	0.6000000000000001	2.8	invalid	0.4998994649995439	53248	0	1	1	53248	1	53248	1	53248	1	0.7	53248	purple	turquoise	1	0	ml	2.7.2	bip	sub-01_ses-02_task-ml_proj-bip_2020-10-02-11-31-40.968722
63	1	2	2	64	volatile	3	20	4	vs	turquoise	purple	purple	turquoise	right	left	0.7	0.30000000000000004	6	2	4.199999999999998	0.6000000000000001	1	0	0.30000000000000004	0.7	2	6	0.6000000000000001	4.199999999999998	valid	0.39990590200068254	51200	0	0	2	53248	0	53248	0	53248	0	0.7	53248	purple	turquoise	1	0	ml	2.7.2	bip	sub-01_ses-02_task-ml_proj-bip_2020-10-02-11-31-40.968722
64	1	2	2	65	volatile	3	20	5	vs	purple	turquoise	purple	turquoise	left	right	0.7	0.30000000000000004	10	2	7.0	0.6000000000000001	0	1	0.7	0.30000000000000004	10	2	7.0	0.6000000000000001	invalid	0.4332279489990469	51200	0	0	1	51200	1	51200	1	51200	1	0.7	51200	purple	turquoise	1	0	ml	2.7.2	bip	sub-01_ses-02_task-ml_proj-bip_2020-10-02-11-31-40.968722
65	1	2	2	66	volatile	3	20	6	vs	purple	turquoise	purple	turquoise	left	right	0.7	0.30000000000000004	6	4	4.199999999999998	1.2000000000000002	0	1	0.7	0.30000000000000004	6	4	4.199999999999998	1.2000000000000002	invalid	0.7831207950002863	51200	0	0	1	51200	1	51200	1	51200	1	0.7	51200	purple	turquoise	1	0	ml	2.7.2	bip	sub-01_ses-02_task-ml_proj-bip_2020-10-02-11-31-40.968722
66	1	2	2	67	volatile	3	20	7	vs	purple	turquoise	purple	turquoise	left	right	0.7	0.30000000000000004	6	6	4.199999999999998	1.8000000000000005	0	1	0.7	0.30000000000000004	6	6	4.199999999999998	1.8000000000000005	invalid	0.5332065830007195	53248	0	1	2	51200	0	51200	0	53248	1	0.7	51200	purple	turquoise	1	6	ml	2.7.2	bip	sub-01_ses-02_task-ml_proj-bip_2020-10-02-11-31-40.968722
67	1	2	2	68	volatile	3	20	8	vs	purple	turquoise	purple	turquoise	left	right	0.7	0.30000000000000004	2	2	1.4	0.6000000000000001	1	0	0.7	0.30000000000000004	2	2	1.4	0.6000000000000001	valid	0.4165785700006381	53248	0	1	2	51200	0	51200	0	53248	1	0.7	51200	purple	turquoise	1	0	ml	2.7.2	bip	sub-01_ses-02_task-ml_proj-bip_2020-10-02-11-31-40.968722
68	1	2	2	69	volatile	3	20	9	vs	turquoise	purple	purple	turquoise	right	left	0.7	0.30000000000000004	6	2	4.199999999999998	0.6000000000000001	1	0	0.30000000000000004	0.7	2	6	0.6000000000000001	4.199999999999998	valid	0.4165760889991361	53248	0	1	1	53248	1	53248	1	53248	1	0.7	53248	purple	turquoise	1	6	ml	2.7.2	bip	sub-01_ses-02_task-ml_proj-bip_2020-10-02-11-31-40.968722
69	1	2	2	70	volatile	3	20	10	vs	turquoise	purple	purple	turquoise	right	left	0.7	0.30000000000000004	4	2	2.8	0.6000000000000001	1	0	0.30000000000000004	0.7	2	4	0.6000000000000001	2.8	valid	0.3999176010001975	53248	0	1	1	53248	1	53248	1	53248	1	0.7	53248	purple	turquoise	1	4	ml	2.7.2	bip	sub-01_ses-02_task-ml_proj-bip_2020-10-02-11-31-40.968722
70	1	2	2	71	volatile	3	20	11	vs	purple	turquoise	purple	turquoise	left	right	0.7	0.30000000000000004	6	4	4.199999999999998	1.2000000000000002	1	0	0.7	0.30000000000000004	6	4	4.199999999999998	1.2000000000000002	valid	0.3665821430004144	51200	0	0	1	51200	1	51200	1	51200	1	0.7	51200	purple	turquoise	1	6	ml	2.7.2	bip	sub-01_ses-02_task-ml_proj-bip_2020-10-02-11-31-40.968722
71	1	2	2	72	volatile	3	20	12	vs	turquoise	purple	purple	turquoise	right	left	0.7	0.30000000000000004	2	6	1.4	1.8000000000000005	0	1	0.30000000000000004	0.7	6	2	1.8000000000000005	1.4	invalid	0.3999095630006195	53248	0	1	1	51200	0	53248	1	51200	0	0.7	53248	purple	turquoise	0	0	ml	2.7.2	bip	sub-01_ses-02_task-ml_proj-bip_2020-10-02-11-31-40.968722
72	1	2	2	73	volatile	3	20	13	vs	turquoise	purple	purple	turquoise	right	left	0.7	0.30000000000000004	2	4	1.4	1.2000000000000002	1	0	0.30000000000000004	0.7	4	2	1.2000000000000002	1.4	valid	0.8664326999987679	51200	0	0	2	53248	0	53248	0	51200	1	0.7	53248	purple	turquoise	0	0	ml	2.7.2	bip	sub-01_ses-02_task-ml_proj-bip_2020-10-02-11-31-40.968722
73	1	2	2	74	volatile	3	20	14	vs	purple	turquoise	purple	turquoise	left	right	0.7	0.30000000000000004	6	2	4.199999999999998	0.6000000000000001	1	0	0.7	0.30000000000000004	6	2	4.199999999999998	0.6000000000000001	valid	0.4498908410005242	51200	0	0	1	51200	1	51200	1	51200	1	0.7	51200	purple	turquoise	1	6	ml	2.7.2	bip	sub-01_ses-02_task-ml_proj-bip_2020-10-02-11-31-40.968722
74	1	2	2	75	volatile	3	20	15	vs	turquoise	purple	purple	turquoise	right	left	0.7	0.30000000000000004	10	2	7.0	0.6000000000000001	1	0	0.30000000000000004	0.7	2	10	0.6000000000000001	7.0	valid	0.4165787609999825	53248	0	1	1	53248	1	53248	1	53248	1	0.7	53248	purple	turquoise	1	10	ml	2.7.2	bip	sub-01_ses-02_task-ml_proj-bip_2020-10-02-11-31-40.968722
75	1	2	2	76	volatile	3	20	16	vs	purple	turquoise	purple	turquoise	left	right	0.7	0.30000000000000004	2	10	1.4	3.0000000000000004	1	0	0.7	0.30000000000000004	2	10	1.4	3.0000000000000004	valid	0.3999024429995188	51200	0	0	1	53248	0	51200	1	53248	0	0.7	51200	purple	turquoise	0	2	ml	2.7.2	bip	sub-01_ses-02_task-ml_proj-bip_2020-10-02-11-31-40.968722
76	1	2	2	77	volatile	3	20	17	vs	purple	turquoise	purple	turquoise	left	right	0.7	0.30000000000000004	4	6	2.8	1.8000000000000005	1	0	0.7	0.30000000000000004	4	6	2.8	1.8000000000000005	valid	0.4665510920003726	51200	0	0	1	51200	1	51200	1	53248	0	0.7	51200	purple	turquoise	0	4	ml	2.7.2	bip	sub-01_ses-02_task-ml_proj-bip_2020-10-02-11-31-40.968722
77	1	2	2	78	volatile	3	20	18	vs	purple	turquoise	purple	turquoise	left	right	0.7	0.30000000000000004	4	6	2.8	1.8000000000000005	1	0	0.7	0.30000000000000004	4	6	2.8	1.8000000000000005	valid	0.6164995840008487	51200	0	0	1	51200	1	51200	1	53248	0	0.7	51200	purple	turquoise	0	4	ml	2.7.2	bip	sub-01_ses-02_task-ml_proj-bip_2020-10-02-11-31-40.968722
78	1	2	2	79	volatile	3	20	19	vs	turquoise	purple	purple	turquoise	right	left	0.7	0.30000000000000004	2	10	1.4	3.0000000000000004	1	0	0.30000000000000004	0.7	10	2	3.0000000000000004	1.4	valid	1.1663586179984122	53248	0	1	1	51200	0	53248	1	51200	0	0.7	53248	purple	turquoise	0	2	ml	2.7.2	bip	sub-01_ses-02_task-ml_proj-bip_2020-10-02-11-31-40.968722
79	1	2	2	80	volatile	3	20	20	vs	turquoise	purple	purple	turquoise	right	left	0.7	0.30000000000000004	2	2	1.4	0.6000000000000001	1	0	0.30000000000000004	0.7	2	2	0.6000000000000001	1.4	valid	0.6165181940014008	53248	0	1	1	53248	1	53248	1	53248	1	0.7	53248	purple	turquoise	0	2	ml	2.7.2	bip	sub-01_ses-02_task-ml_proj-bip_2020-10-02-11-31-40.968722
80	1	2	2	81	volatile	4	40	1	vs	purple	turquoise	purple	turquoise	left	right	0.30000000000000004	0.7	10	2	3.0000000000000004	1.4	1	0	0.30000000000000004	0.7	10	2	3.0000000000000004	1.4	invalid	1.1496716029996603	51200	0	0	1	51200	1	53248	0	51200	1	0.7	53248	turquoise	purple	0	10	ml	2.7.2	bip	sub-01_ses-02_task-ml_proj-bip_2020-10-02-11-31-40.968722
81	1	2	2	82	volatile	4	40	2	vs	purple	turquoise	purple	turquoise	left	right	0.30000000000000004	0.7	4	2	1.2000000000000002	1.4	0	1	0.30000000000000004	0.7	4	2	1.2000000000000002	1.4	valid	0.4832178510005178	51200	0	0	1	53248	0	53248	0	51200	1	0.7	53248	turquoise	purple	0	0	ml	2.7.2	bip	sub-01_ses-02_task-ml_proj-bip_2020-10-02-11-31-40.968722
82	1	2	2	83	volatile	4	40	3	vs	turquoise	purple	purple	turquoise	right	left	0.30000000000000004	0.7	4	2	1.2000000000000002	1.4	0	1	0.7	0.30000000000000004	2	4	1.4	1.2000000000000002	valid	0.4665678210003534	53248	0	1	1	51200	0	51200	0	53248	1	0.7	51200	turquoise	purple	0	0	ml	2.7.2	bip	sub-01_ses-02_task-ml_proj-bip_2020-10-02-11-31-40.968722
83	1	2	2	84	volatile	4	40	4	vs	purple	turquoise	purple	turquoise	left	right	0.30000000000000004	0.7	2	10	0.6000000000000001	7.0	0	1	0.30000000000000004	0.7	2	10	0.6000000000000001	7.0	valid	0.3832532540000102	53248	0	1	2	53248	1	53248	1	53248	1	0.7	53248	turquoise	purple	1	10	ml	2.7.2	bip	sub-01_ses-02_task-ml_proj-bip_2020-10-02-11-31-40.968722
84	1	2	2	85	volatile	4	40	5	vs	purple	turquoise	purple	turquoise	left	right	0.30000000000000004	0.7	4	6	1.2000000000000002	4.199999999999998	1	0	0.30000000000000004	0.7	4	6	1.2000000000000002	4.199999999999998	invalid	0.8664411790014128	53248	0	1	2	53248	1	53248	1	53248	1	0.7	53248	turquoise	purple	1	0	ml	2.7.2	bip	sub-01_ses-02_task-ml_proj-bip_2020-10-02-11-31-40.968722
85	1	2	2	86	volatile	4	40	6	vs	turquoise	purple	purple	turquoise	right	left	0.30000000000000004	0.7	6	2	1.8000000000000005	1.4	1	0	0.7	0.30000000000000004	2	6	1.4	1.8000000000000005	invalid	0.4165663029998541	51200	0	0	2	53248	0	51200	1	53248	0	0.7	51200	turquoise	purple	0	0	ml	2.7.2	bip	sub-01_ses-02_task-ml_proj-bip_2020-10-02-11-31-40.968722
86	1	2	2	87	volatile	4	40	7	vs	turquoise	purple	purple	turquoise	right	left	0.30000000000000004	0.7	4	2	1.2000000000000002	1.4	0	1	0.7	0.30000000000000004	2	4	1.4	1.2000000000000002	valid	0.516546565999306	53248	0	1	1	51200	0	51200	0	53248	1	0.7	51200	turquoise	purple	0	0	ml	2.7.2	bip	sub-01_ses-02_task-ml_proj-bip_2020-10-02-11-31-40.968722
87	1	2	2	88	volatile	4	40	8	vs	purple	turquoise	purple	turquoise	left	right	0.30000000000000004	0.7	2	6	0.6000000000000001	4.199999999999998	0	1	0.30000000000000004	0.7	2	6	0.6000000000000001	4.199999999999998	valid	0.4165835069998137	53248	0	1	2	53248	1	53248	1	53248	1	0.7	53248	turquoise	purple	1	6	ml	2.7.2	bip	sub-01_ses-02_task-ml_proj-bip_2020-10-02-11-31-40.968722
88	1	2	2	89	volatile	4	40	9	vs	purple	turquoise	purple	turquoise	left	right	0.30000000000000004	0.7	2	2	0.6000000000000001	1.4	0	1	0.30000000000000004	0.7	2	2	0.6000000000000001	1.4	valid	0.39991539899892814	53248	0	1	2	53248	1	53248	1	53248	1	0.7	53248	turquoise	purple	0	2	ml	2.7.2	bip	sub-01_ses-02_task-ml_proj-bip_2020-10-02-11-31-40.968722
89	1	2	2	90	volatile	4	40	10	vs	purple	turquoise	purple	turquoise	left	right	0.30000000000000004	0.7	6	2	1.8000000000000005	1.4	1	0	0.30000000000000004	0.7	6	2	1.8000000000000005	1.4	invalid	0.5499006570007623	53248	0	1	2	51200	0	53248	1	51200	0	0.7	53248	turquoise	purple	0	0	ml	2.7.2	bip	sub-01_ses-02_task-ml_proj-bip_2020-10-02-11-31-40.968722
90	1	2	2	91	volatile	4	40	11	vs	turquoise	purple	purple	turquoise	right	left	0.30000000000000004	0.7	6	2	1.8000000000000005	1.4	1	0	0.7	0.30000000000000004	2	6	1.4	1.8000000000000005	invalid	0.6331798520004668	53248	0	1	1	53248	1	51200	0	53248	1	0.7	51200	turquoise	purple	0	6	ml	2.7.2	bip	sub-01_ses-02_task-ml_proj-bip_2020-10-02-11-31-40.968722
91	1	2	2	92	volatile	4	40	12	vs	turquoise	purple	purple	turquoise	right	left	0.30000000000000004	0.7	4	6	1.2000000000000002	4.199999999999998	0	1	0.7	0.30000000000000004	6	4	4.199999999999998	1.2000000000000002	valid	0.36659358799988695	53248	0	1	1	51200	0	51200	0	51200	0	0.7	51200	turquoise	purple	1	0	ml	2.7.2	bip	sub-01_ses-02_task-ml_proj-bip_2020-10-02-11-31-40.968722
92	1	2	2	93	volatile	4	40	13	vs	turquoise	purple	purple	turquoise	right	left	0.30000000000000004	0.7	2	2	0.6000000000000001	1.4	0	1	0.7	0.30000000000000004	2	2	1.4	0.6000000000000001	valid	0.6831653890003508	53248	0	1	1	51200	0	51200	0	53248	1	0.7	51200	turquoise	purple	1	0	ml	2.7.2	bip	sub-01_ses-02_task-ml_proj-bip_2020-10-02-11-31-40.968722
93	1	2	2	94	volatile	4	40	14	vs	turquoise	purple	purple	turquoise	right	left	0.30000000000000004	0.7	6	6	1.8000000000000005	4.199999999999998	0	1	0.7	0.30000000000000004	6	6	4.199999999999998	1.8000000000000005	valid	0.4165742160002992	51200	0	0	2	51200	1	51200	1	53248	0	0.7	51200	turquoise	purple	1	6	ml	2.7.2	bip	sub-01_ses-02_task-ml_proj-bip_2020-10-02-11-31-40.968722
94	1	2	2	95	volatile	4	40	15	vs	turquoise	purple	purple	turquoise	right	left	0.30000000000000004	0.7	4	6	1.2000000000000002	4.199999999999998	0	1	0.7	0.30000000000000004	6	4	4.199999999999998	1.2000000000000002	valid	0.39989809799953946	51200	0	0	2	51200	1	51200	1	51200	1	0.7	51200	turquoise	purple	1	6	ml	2.7.2	bip	sub-01_ses-02_task-ml_proj-bip_2020-10-02-11-31-40.968722
95	1	2	2	96	volatile	4	40	16	vs	turquoise	purple	purple	turquoise	right	left	0.30000000000000004	0.7	2	6	0.6000000000000001	4.199999999999998	0	1	0.7	0.30000000000000004	6	2	4.199999999999998	0.6000000000000001	valid	0.4332284049996815	51200	0	0	2	51200	1	51200	1	51200	1	0.7	51200	turquoise	purple	1	6	ml	2.7.2	bip	sub-01_ses-02_task-ml_proj-bip_2020-10-02-11-31-40.968722
96	1	2	2	97	volatile	4	40	17	vs	turquoise	purple	purple	turquoise	right	left	0.30000000000000004	0.7	2	4	0.6000000000000001	2.8	0	1	0.7	0.30000000000000004	4	2	2.8	0.6000000000000001	valid	0.416565884001102	51200	0	0	2	51200	1	51200	1	51200	1	0.7	51200	turquoise	purple	1	4	ml	2.7.2	bip	sub-01_ses-02_task-ml_proj-bip_2020-10-02-11-31-40.968722
97	1	2	2	98	volatile	4	40	18	vs	purple	turquoise	purple	turquoise	left	right	0.30000000000000004	0.7	4	6	1.2000000000000002	4.199999999999998	0	1	0.30000000000000004	0.7	4	6	1.2000000000000002	4.199999999999998	valid	0.5831838240010256	51200	0	0	1	53248	0	53248	0	53248	0	0.7	53248	turquoise	purple	1	0	ml	2.7.2	bip	sub-01_ses-02_task-ml_proj-bip_2020-10-02-11-31-40.968722
98	1	2	2	99	volatile	4	40	19	vs	turquoise	purple	purple	turquoise	right	left	0.30000000000000004	0.7	6	2	1.8000000000000005	1.4	0	1	0.7	0.30000000000000004	2	6	1.4	1.8000000000000005	valid	0.6998225549996278	53248	0	1	1	53248	1	51200	0	53248	1	0.7	51200	turquoise	purple	0	0	ml	2.7.2	bip	sub-01_ses-02_task-ml_proj-bip_2020-10-02-11-31-40.968722
99	1	2	2	100	volatile	4	40	20	vs	turquoise	purple	purple	turquoise	right	left	0.30000000000000004	0.7	6	6	1.8000000000000005	4.199999999999998	0	1	0.7	0.30000000000000004	6	6	4.199999999999998	1.8000000000000005	valid	0.3832370849995641	51200	0	0	2	51200	1	51200	1	53248	0	0.7	51200	turquoise	purple	1	6	ml	2.7.2	bip	sub-01_ses-02_task-ml_proj-bip_2020-10-02-11-31-40.968722
100	1	2	3	101	volatile	4	40	21	vs	purple	turquoise	purple	turquoise	left	right	0.30000000000000004	0.7	4	6	1.2000000000000002	4.199999999999998	0	1	0.30000000000000004	0.7	4	6	1.2000000000000002	4.199999999999998	valid	0.5831924220001383	53248	0	1	2	53248	1	53248	1	53248	1	0.7	53248	turquoise	purple	1	6	ml	2.7.2	bip	sub-01_ses-02_task-ml_proj-bip_2020-10-02-11-31-40.968722
101	1	2	3	102	volatile	4	40	22	vs	turquoise	purple	purple	turquoise	right	left	0.30000000000000004	0.7	6	6	1.8000000000000005	4.199999999999998	0	1	0.7	0.30000000000000004	6	6	4.199999999999998	1.8000000000000005	valid	0.3499182230007136	51200	0	0	2	51200	1	51200	1	53248	0	0.7	51200	turquoise	purple	1	6	ml	2.7.2	bip	sub-01_ses-02_task-ml_proj-bip_2020-10-02-11-31-40.968722
102	1	2	3	103	volatile	4	40	23	vs	turquoise	purple	purple	turquoise	right	left	0.30000000000000004	0.7	6	4	1.8000000000000005	2.8	0	1	0.7	0.30000000000000004	4	6	2.8	1.8000000000000005	valid	0.4165673139996216	51200	0	0	2	51200	1	51200	1	53248	0	0.7	51200	turquoise	purple	0	4	ml	2.7.2	bip	sub-01_ses-02_task-ml_proj-bip_2020-10-02-11-31-40.968722
103	1	2	3	104	volatile	4	40	24	vs	turquoise	purple	purple	turquoise	right	left	0.30000000000000004	0.7	2	2	0.6000000000000001	1.4	0	1	0.7	0.30000000000000004	2	2	1.4	0.6000000000000001	valid	0.5665189859992097	51200	0	0	2	51200	1	51200	1	53248	0	0.7	51200	turquoise	purple	1	2	ml	2.7.2	bip	sub-01_ses-02_task-ml_proj-bip_2020-10-02-11-31-40.968722
104	1	2	3	105	volatile	4	40	25	vs	purple	turquoise	purple	turquoise	left	right	0.30000000000000004	0.7	2	10	0.6000000000000001	7.0	0	1	0.30000000000000004	0.7	2	10	0.6000000000000001	7.0	valid	0.4998855109988654	53248	0	1	2	53248	1	53248	1	53248	1	0.7	53248	turquoise	purple	1	10	ml	2.7.2	bip	sub-01_ses-02_task-ml_proj-bip_2020-10-02-11-31-40.968722
105	1	2	3	106	volatile	4	40	26	vs	turquoise	purple	purple	turquoise	right	left	0.30000000000000004	0.7	2	6	0.6000000000000001	4.199999999999998	1	0	0.7	0.30000000000000004	6	2	4.199999999999998	0.6000000000000001	invalid	0.383241764999184	51200	0	0	2	51200	1	51200	1	51200	1	0.7	51200	turquoise	purple	1	0	ml	2.7.2	bip	sub-01_ses-02_task-ml_proj-bip_2020-10-02-11-31-40.968722
106	1	2	3	107	volatile	4	40	27	vs	purple	turquoise	purple	turquoise	left	right	0.30000000000000004	0.7	2	10	0.6000000000000001	7.0	1	0	0.30000000000000004	0.7	2	10	0.6000000000000001	7.0	invalid	0.4998835509995842	53248	0	1	2	53248	1	53248	1	53248	1	0.7	53248	turquoise	purple	1	0	ml	2.7.2	bip	sub-01_ses-02_task-ml_proj-bip_2020-10-02-11-31-40.968722
107	1	2	3	108	volatile	4	40	28	vs	purple	turquoise	purple	turquoise	left	right	0.30000000000000004	0.7	6	4	1.8000000000000005	2.8	1	0	0.30000000000000004	0.7	6	4	1.8000000000000005	2.8	invalid	0.3499161029994866	51200	0	0	1	53248	0	53248	0	51200	1	0.7	53248	turquoise	purple	0	6	ml	2.7.2	bip	sub-01_ses-02_task-ml_proj-bip_2020-10-02-11-31-40.968722
108	1	2	3	109	volatile	4	40	29	vs	purple	turquoise	purple	turquoise	left	right	0.30000000000000004	0.7	2	10	0.6000000000000001	7.0	0	1	0.30000000000000004	0.7	2	10	0.6000000000000001	7.0	valid	0.3832441180002206	51200	0	0	1	53248	0	53248	0	53248	0	0.7	53248	turquoise	purple	1	0	ml	2.7.2	bip	sub-01_ses-02_task-ml_proj-bip_2020-10-02-11-31-40.968722
109	1	2	3	110	volatile	4	40	30	vs	turquoise	purple	purple	turquoise	right	left	0.30000000000000004	0.7	4	6	1.2000000000000002	4.199999999999998	1	0	0.7	0.30000000000000004	6	4	4.199999999999998	1.2000000000000002	invalid	1.1996568359991215	51200	0	0	2	51200	1	51200	1	51200	1	0.7	51200	turquoise	purple	1	0	ml	2.7.2	bip	sub-01_ses-02_task-ml_proj-bip_2020-10-02-11-31-40.968722
110	1	2	3	111	volatile	4	40	31	vs	purple	turquoise	purple	turquoise	left	right	0.30000000000000004	0.7	2	2	0.6000000000000001	1.4	1	0	0.30000000000000004	0.7	2	2	0.6000000000000001	1.4	invalid	0.3999062000002596	51200	0	0	1	53248	0	53248	0	53248	0	0.7	53248	turquoise	purple	0	2	ml	2.7.2	bip	sub-01_ses-02_task-ml_proj-bip_2020-10-02-11-31-40.968722
111	1	2	3	112	volatile	4	40	32	vs	purple	turquoise	purple	turquoise	left	right	0.30000000000000004	0.7	2	4	0.6000000000000001	2.8	0	1	0.30000000000000004	0.7	2	4	0.6000000000000001	2.8	valid	0.3665824590007105	51200	0	0	1	53248	0	53248	0	53248	0	0.7	53248	turquoise	purple	1	0	ml	2.7.2	bip	sub-01_ses-02_task-ml_proj-bip_2020-10-02-11-31-40.968722
112	1	2	3	113	volatile	4	40	33	vs	purple	turquoise	purple	turquoise	left	right	0.30000000000000004	0.7	2	4	0.6000000000000001	2.8	0	1	0.30000000000000004	0.7	2	4	0.6000000000000001	2.8	valid	0.4998846959988441	53248	0	1	2	53248	1	53248	1	53248	1	0.7	53248	turquoise	purple	1	4	ml	2.7.2	bip	sub-01_ses-02_task-ml_proj-bip_2020-10-02-11-31-40.968722
113	1	2	3	114	volatile	4	40	34	vs	purple	turquoise	purple	turquoise	left	right	0.30000000000000004	0.7	10	2	3.0000000000000004	1.4	0	1	0.30000000000000004	0.7	10	2	3.0000000000000004	1.4	valid	0.4332374059995345	53248	0	1	2	51200	0	53248	1	51200	0	0.7	53248	turquoise	purple	0	2	ml	2.7.2	bip	sub-01_ses-02_task-ml_proj-bip_2020-10-02-11-31-40.968722
114	1	2	3	115	volatile	4	40	35	vs	purple	turquoise	purple	turquoise	left	right	0.30000000000000004	0.7	10	2	3.0000000000000004	1.4	0	1	0.30000000000000004	0.7	10	2	3.0000000000000004	1.4	valid	0.5165461619999405	53248	0	1	2	51200	0	53248	1	51200	0	0.7	53248	turquoise	purple	0	2	ml	2.7.2	bip	sub-01_ses-02_task-ml_proj-bip_2020-10-02-11-31-40.968722
115	1	2	3	116	volatile	4	40	36	vs	turquoise	purple	purple	turquoise	right	left	0.30000000000000004	0.7	2	10	0.6000000000000001	7.0	0	1	0.7	0.30000000000000004	10	2	7.0	0.6000000000000001	valid	0.3665834889998223	51200	0	0	2	51200	1	51200	1	51200	1	0.7	51200	turquoise	purple	1	10	ml	2.7.2	bip	sub-01_ses-02_task-ml_proj-bip_2020-10-02-11-31-40.968722
116	1	2	3	117	volatile	4	40	37	vs	turquoise	purple	purple	turquoise	right	left	0.30000000000000004	0.7	2	4	0.6000000000000001	2.8	1	0	0.7	0.30000000000000004	4	2	2.8	0.6000000000000001	invalid	0.41656684599911387	51200	0	0	2	51200	1	51200	1	51200	1	0.7	51200	turquoise	purple	1	0	ml	2.7.2	bip	sub-01_ses-02_task-ml_proj-bip_2020-10-02-11-31-40.968722
117	1	2	3	118	volatile	4	40	38	vs	turquoise	purple	purple	turquoise	right	left	0.30000000000000004	0.7	2	4	0.6000000000000001	2.8	1	0	0.7	0.30000000000000004	4	2	2.8	0.6000000000000001	invalid	0.4665509259993996	51200	0	0	2	51200	1	51200	1	51200	1	0.7	51200	turquoise	purple	1	0	ml	2.7.2	bip	sub-01_ses-02_task-ml_proj-bip_2020-10-02-11-31-40.968722
118	1	2	3	119	volatile	4	40	39	vs	purple	turquoise	purple	turquoise	left	right	0.30000000000000004	0.7	6	6	1.8000000000000005	4.199999999999998	0	1	0.30000000000000004	0.7	6	6	1.8000000000000005	4.199999999999998	valid	0.699812632999965	51200	0	0	1	53248	0	53248	0	53248	0	0.7	53248	turquoise	purple	0	0	ml	2.7.2	bip	sub-01_ses-02_task-ml_proj-bip_2020-10-02-11-31-40.968722
119	1	2	3	120	volatile	4	40	40	vs	purple	turquoise	purple	turquoise	left	right	0.30000000000000004	0.7	6	2	1.8000000000000005	1.4	0	1	0.30000000000000004	0.7	6	2	1.8000000000000005	1.4	valid	0.4832181459987624	51200	0	0	1	51200	1	53248	0	51200	1	0.7	53248	turquoise	purple	0	0	ml	2.7.2	bip	sub-01_ses-02_task-ml_proj-bip_2020-10-02-11-31-40.968722
120	1	2	3	121	volatile	5	20	1	vs	turquoise	purple	purple	turquoise	right	left	0.7	0.30000000000000004	6	2	4.199999999999998	0.6000000000000001	1	0	0.30000000000000004	0.7	2	6	0.6000000000000001	4.199999999999998	valid	0.39990481000131695	51200	0	0	2	53248	0	53248	0	53248	0	0.7	53248	purple	turquoise	1	0	ml	2.7.2	bip	sub-01_ses-02_task-ml_proj-bip_2020-10-02-11-31-40.968722
121	1	2	3	122	volatile	5	20	2	vs	turquoise	purple	purple	turquoise	right	left	0.7	0.30000000000000004	2	2	1.4	0.6000000000000001	1	0	0.30000000000000004	0.7	2	2	0.6000000000000001	1.4	valid	0.666500453999106	53248	0	1	1	53248	1	53248	1	53248	1	0.7	53248	purple	turquoise	0	2	ml	2.7.2	bip	sub-01_ses-02_task-ml_proj-bip_2020-10-02-11-31-40.968722
122	1	2	3	123	volatile	5	20	3	vs	turquoise	purple	purple	turquoise	right	left	0.7	0.30000000000000004	4	6	2.8	1.8000000000000005	0	1	0.30000000000000004	0.7	6	4	1.8000000000000005	2.8	invalid	0.4832225289992493	53248	0	1	1	53248	1	53248	1	51200	0	0.7	53248	purple	turquoise	0	0	ml	2.7.2	bip	sub-01_ses-02_task-ml_proj-bip_2020-10-02-11-31-40.968722
123	1	2	3	124	volatile	5	20	4	vs	purple	turquoise	purple	turquoise	left	right	0.7	0.30000000000000004	4	2	2.8	0.6000000000000001	0	1	0.7	0.30000000000000004	4	2	2.8	0.6000000000000001	invalid	0.5665229610003735	51200	0	0	1	51200	1	51200	1	51200	1	0.7	51200	purple	turquoise	1	0	ml	2.7.2	bip	sub-01_ses-02_task-ml_proj-bip_2020-10-02-11-31-40.968722
124	1	2	3	125	volatile	5	20	5	vs	turquoise	purple	purple	turquoise	right	left	0.7	0.30000000000000004	2	2	1.4	0.6000000000000001	1	0	0.30000000000000004	0.7	2	2	0.6000000000000001	1.4	valid	0.3999044060001325	51200	0	0	2	53248	0	53248	0	53248	0	0.7	53248	purple	turquoise	0	0	ml	2.7.2	bip	sub-01_ses-02_task-ml_proj-bip_2020-10-02-11-31-40.968722
125	1	2	3	126	volatile	5	20	6	vs	purple	turquoise	purple	turquoise	left	right	0.7	0.30000000000000004	6	2	4.199999999999998	0.6000000000000001	1	0	0.7	0.30000000000000004	6	2	4.199999999999998	0.6000000000000001	valid	0.4498906320004608	51200	0	0	1	51200	1	51200	1	51200	1	0.7	51200	purple	turquoise	1	6	ml	2.7.2	bip	sub-01_ses-02_task-ml_proj-bip_2020-10-02-11-31-40.968722
126	1	2	3	127	volatile	5	20	7	vs	purple	turquoise	purple	turquoise	left	right	0.7	0.30000000000000004	6	2	4.199999999999998	0.6000000000000001	1	0	0.7	0.30000000000000004	6	2	4.199999999999998	0.6000000000000001	valid	0.8497685559996171	51200	0	0	1	51200	1	51200	1	51200	1	0.7	51200	purple	turquoise	1	6	ml	2.7.2	bip	sub-01_ses-02_task-ml_proj-bip_2020-10-02-11-31-40.968722
127	1	2	3	128	volatile	5	20	8	vs	purple	turquoise	purple	turquoise	left	right	0.7	0.30000000000000004	2	4	1.4	1.2000000000000002	1	0	0.7	0.30000000000000004	2	4	1.4	1.2000000000000002	valid	0.3999111960001756	51200	0	0	1	51200	1	51200	1	53248	0	0.7	51200	purple	turquoise	0	2	ml	2.7.2	bip	sub-01_ses-02_task-ml_proj-bip_2020-10-02-11-31-40.968722
128	1	2	3	129	volatile	5	20	9	vs	turquoise	purple	purple	turquoise	right	left	0.7	0.30000000000000004	6	4	4.199999999999998	1.2000000000000002	1	0	0.30000000000000004	0.7	4	6	1.2000000000000002	4.199999999999998	valid	0.3999192259998381	53248	0	1	1	53248	1	53248	1	53248	1	0.7	53248	purple	turquoise	1	6	ml	2.7.2	bip	sub-01_ses-02_task-ml_proj-bip_2020-10-02-11-31-40.968722
129	1	2	3	130	volatile	5	20	10	vs	turquoise	purple	purple	turquoise	right	left	0.7	0.30000000000000004	2	4	1.4	1.2000000000000002	1	0	0.30000000000000004	0.7	4	2	1.2000000000000002	1.4	valid	0.4832334170005197	53248	0	1	1	53248	1	53248	1	51200	0	0.7	53248	purple	turquoise	0	2	ml	2.7.2	bip	sub-01_ses-02_task-ml_proj-bip_2020-10-02-11-31-40.968722
130	1	2	3	131	volatile	5	20	11	vs	purple	turquoise	purple	turquoise	left	right	0.7	0.30000000000000004	4	6	2.8	1.8000000000000005	1	0	0.7	0.30000000000000004	4	6	2.8	1.8000000000000005	valid	0.4165661499991984	51200	0	0	1	51200	1	51200	1	53248	0	0.7	51200	purple	turquoise	0	4	ml	2.7.2	bip	sub-01_ses-02_task-ml_proj-bip_2020-10-02-11-31-40.968722
131	1	2	3	132	volatile	5	20	12	vs	purple	turquoise	purple	turquoise	left	right	0.7	0.30000000000000004	2	6	1.4	1.8000000000000005	1	0	0.7	0.30000000000000004	2	6	1.4	1.8000000000000005	valid	0.4332277299999987	51200	0	0	1	53248	0	51200	1	53248	0	0.7	51200	purple	turquoise	0	2	ml	2.7.2	bip	sub-01_ses-02_task-ml_proj-bip_2020-10-02-11-31-40.968722
132	1	2	3	133	volatile	5	20	13	vs	purple	turquoise	purple	turquoise	left	right	0.7	0.30000000000000004	10	2	7.0	0.6000000000000001	1	0	0.7	0.30000000000000004	10	2	7.0	0.6000000000000001	valid	0.3832428650002839	51200	0	0	1	51200	1	51200	1	51200	1	0.7	51200	purple	turquoise	1	10	ml	2.7.2	bip	sub-01_ses-02_task-ml_proj-bip_2020-10-02-11-31-40.968722
133	1	2	3	134	volatile	5	20	14	vs	purple	turquoise	purple	turquoise	left	right	0.7	0.30000000000000004	6	6	4.199999999999998	1.8000000000000005	0	1	0.7	0.30000000000000004	6	6	4.199999999999998	1.8000000000000005	invalid	0.4665492639996955	51200	0	0	1	51200	1	51200	1	53248	0	0.7	51200	purple	turquoise	1	0	ml	2.7.2	bip	sub-01_ses-02_task-ml_proj-bip_2020-10-02-11-31-40.968722
134	1	2	3	135	volatile	5	20	15	vs	turquoise	purple	purple	turquoise	right	left	0.7	0.30000000000000004	10	2	7.0	0.6000000000000001	0	1	0.30000000000000004	0.7	2	10	0.6000000000000001	7.0	invalid	0.5165471840009559	53248	0	1	1	53248	1	53248	1	53248	1	0.7	53248	purple	turquoise	1	0	ml	2.7.2	bip	sub-01_ses-02_task-ml_proj-bip_2020-10-02-11-31-40.968722
135	1	2	3	136	volatile	5	20	16	vs	purple	turquoise	purple	turquoise	left	right	0.7	0.30000000000000004	6	6	4.199999999999998	1.8000000000000005	0	1	0.7	0.30000000000000004	6	6	4.199999999999998	1.8000000000000005	invalid	0.3332880819998536	53248	0	1	2	51200	0	51200	0	53248	1	0.7	51200	purple	turquoise	1	6	ml	2.7.2	bip	sub-01_ses-02_task-ml_proj-bip_2020-10-02-11-31-40.968722
136	1	2	3	137	volatile	5	20	17	vs	turquoise	purple	purple	turquoise	right	left	0.7	0.30000000000000004	4	2	2.8	0.6000000000000001	1	0	0.30000000000000004	0.7	2	4	0.6000000000000001	2.8	valid	0.3665771659998427	51200	0	0	2	53248	0	53248	0	53248	0	0.7	53248	purple	turquoise	1	0	ml	2.7.2	bip	sub-01_ses-02_task-ml_proj-bip_2020-10-02-11-31-40.968722
137	1	2	3	138	volatile	5	20	18	vs	turquoise	purple	purple	turquoise	right	left	0.7	0.30000000000000004	2	10	1.4	3.0000000000000004	1	0	0.30000000000000004	0.7	10	2	3.0000000000000004	1.4	valid	0.3999064899999212	51200	0	0	2	51200	1	53248	0	51200	1	0.7	53248	purple	turquoise	0	0	ml	2.7.2	bip	sub-01_ses-02_task-ml_proj-bip_2020-10-02-11-31-40.968722
138	1	2	3	139	volatile	5	20	19	vs	purple	turquoise	purple	turquoise	left	right	0.7	0.30000000000000004	2	10	1.4	3.0000000000000004	1	0	0.7	0.30000000000000004	2	10	1.4	3.0000000000000004	valid	0.39990386399949773	51200	0	0	1	53248	0	51200	1	53248	0	0.7	51200	purple	turquoise	0	2	ml	2.7.2	bip	sub-01_ses-02_task-ml_proj-bip_2020-10-02-11-31-40.968722
139	1	2	3	140	volatile	5	20	20	vs	turquoise	purple	purple	turquoise	right	left	0.7	0.30000000000000004	4	6	2.8	1.8000000000000005	0	1	0.30000000000000004	0.7	6	4	1.8000000000000005	2.8	invalid	0.4332388989987521	53248	0	1	1	53248	1	53248	1	51200	0	0.7	53248	purple	turquoise	0	0	ml	2.7.2	bip	sub-01_ses-02_task-ml_proj-bip_2020-10-02-11-31-40.968722
140	1	2	3	141	volatile	6	20	1	vs	turquoise	purple	purple	turquoise	right	left	0.30000000000000004	0.7	10	2	3.0000000000000004	1.4	0	1	0.7	0.30000000000000004	2	10	1.4	3.0000000000000004	valid	0.44990257600147743	53248	0	1	1	53248	1	51200	0	53248	1	0.7	51200	turquoise	purple	0	0	ml	2.7.2	bip	sub-01_ses-02_task-ml_proj-bip_2020-10-02-11-31-40.968722
141	1	2	3	142	volatile	6	20	2	vs	turquoise	purple	purple	turquoise	right	left	0.30000000000000004	0.7	2	2	0.6000000000000001	1.4	0	1	0.7	0.30000000000000004	2	2	1.4	0.6000000000000001	valid	0.3499237500000163	51200	0	0	2	51200	1	51200	1	53248	0	0.7	51200	turquoise	purple	1	2	ml	2.7.2	bip	sub-01_ses-02_task-ml_proj-bip_2020-10-02-11-31-40.968722
142	1	2	3	143	volatile	6	20	3	vs	purple	turquoise	purple	turquoise	left	right	0.30000000000000004	0.7	6	4	1.8000000000000005	2.8	0	1	0.30000000000000004	0.7	6	4	1.8000000000000005	2.8	valid	0.416578346001188	53248	0	1	2	53248	1	53248	1	51200	0	0.7	53248	turquoise	purple	0	4	ml	2.7.2	bip	sub-01_ses-02_task-ml_proj-bip_2020-10-02-11-31-40.968722
143	1	2	3	144	volatile	6	20	4	vs	turquoise	purple	purple	turquoise	right	left	0.30000000000000004	0.7	6	6	1.8000000000000005	4.199999999999998	0	1	0.7	0.30000000000000004	6	6	4.199999999999998	1.8000000000000005	valid	0.5998454680011491	51200	0	0	2	51200	1	51200	1	53248	0	0.7	51200	turquoise	purple	1	6	ml	2.7.2	bip	sub-01_ses-02_task-ml_proj-bip_2020-10-02-11-31-40.968722
144	1	2	3	145	volatile	6	20	5	vs	purple	turquoise	purple	turquoise	left	right	0.30000000000000004	0.7	4	6	1.2000000000000002	4.199999999999998	1	0	0.30000000000000004	0.7	4	6	1.2000000000000002	4.199999999999998	invalid	0.766472638999403	53248	0	1	2	53248	1	53248	1	53248	1	0.7	53248	turquoise	purple	1	0	ml	2.7.2	bip	sub-01_ses-02_task-ml_proj-bip_2020-10-02-11-31-40.968722
145	1	2	3	146	volatile	6	20	6	vs	turquoise	purple	purple	turquoise	right	left	0.30000000000000004	0.7	6	2	1.8000000000000005	1.4	0	1	0.7	0.30000000000000004	2	6	1.4	1.8000000000000005	valid	0.6165089710011671	53248	0	1	1	53248	1	51200	0	53248	1	0.7	51200	turquoise	purple	0	0	ml	2.7.2	bip	sub-01_ses-02_task-ml_proj-bip_2020-10-02-11-31-40.968722
146	1	2	3	147	volatile	6	20	7	vs	turquoise	purple	purple	turquoise	right	left	0.30000000000000004	0.7	6	4	1.8000000000000005	2.8	0	1	0.7	0.30000000000000004	4	6	2.8	1.8000000000000005	valid	0.3665827700006048	51200	0	0	2	51200	1	51200	1	53248	0	0.7	51200	turquoise	purple	0	4	ml	2.7.2	bip	sub-01_ses-02_task-ml_proj-bip_2020-10-02-11-31-40.968722
147	1	2	3	148	volatile	6	20	8	vs	turquoise	purple	purple	turquoise	right	left	0.30000000000000004	0.7	4	6	1.2000000000000002	4.199999999999998	0	1	0.7	0.30000000000000004	6	4	4.199999999999998	1.2000000000000002	valid	0.3665824309991877	51200	0	0	2	51200	1	51200	1	51200	1	0.7	51200	turquoise	purple	1	6	ml	2.7.2	bip	sub-01_ses-02_task-ml_proj-bip_2020-10-02-11-31-40.968722
148	1	2	3	149	volatile	6	20	9	vs	purple	turquoise	purple	turquoise	left	right	0.30000000000000004	0.7	4	2	1.2000000000000002	1.4	0	1	0.30000000000000004	0.7	4	2	1.2000000000000002	1.4	valid	0.43324811099955696	53248	0	1	2	53248	1	53248	1	51200	0	0.7	53248	turquoise	purple	0	2	ml	2.7.2	bip	sub-01_ses-02_task-ml_proj-bip_2020-10-02-11-31-40.968722
149	1	2	3	150	volatile	6	20	10	vs	purple	turquoise	purple	turquoise	left	right	0.30000000000000004	0.7	10	2	3.0000000000000004	1.4	0	1	0.30000000000000004	0.7	10	2	3.0000000000000004	1.4	valid	0.3665914330013038	53248	0	1	2	51200	0	53248	1	51200	0	0.7	53248	turquoise	purple	0	2	ml	2.7.2	bip	sub-01_ses-02_task-ml_proj-bip_2020-10-02-11-31-40.968722
150	1	2	4	151	volatile	6	20	11	vs	purple	turquoise	purple	turquoise	left	right	0.30000000000000004	0.7	6	2	1.8000000000000005	1.4	0	1	0.30000000000000004	0.7	6	2	1.8000000000000005	1.4	valid	0.5665155409988074	51200	0	0	1	51200	1	53248	0	51200	1	0.7	53248	turquoise	purple	0	0	ml	2.7.2	bip	sub-01_ses-02_task-ml_proj-bip_2020-10-02-11-31-40.968722
151	1	2	4	152	volatile	6	20	12	vs	turquoise	purple	purple	turquoise	right	left	0.30000000000000004	0.7	6	2	1.8000000000000005	1.4	1	0	0.7	0.30000000000000004	2	6	1.4	1.8000000000000005	invalid	0.4998829160012974	53248	0	1	1	53248	1	51200	0	53248	1	0.7	51200	turquoise	purple	0	6	ml	2.7.2	bip	sub-01_ses-02_task-ml_proj-bip_2020-10-02-11-31-40.968722
152	1	2	4	153	volatile	6	20	13	vs	purple	turquoise	purple	turquoise	left	right	0.30000000000000004	0.7	6	2	1.8000000000000005	1.4	1	0	0.30000000000000004	0.7	6	2	1.8000000000000005	1.4	invalid	0.34992101100033324	51200	0	0	1	51200	1	53248	0	51200	1	0.7	53248	turquoise	purple	0	6	ml	2.7.2	bip	sub-01_ses-02_task-ml_proj-bip_2020-10-02-11-31-40.968722
153	1	2	4	154	volatile	6	20	14	vs	turquoise	purple	purple	turquoise	right	left	0.30000000000000004	0.7	4	2	1.2000000000000002	1.4	1	0	0.7	0.30000000000000004	2	4	1.4	1.2000000000000002	invalid	0.3665897810005845	53248	0	1	1	51200	0	51200	0	53248	1	0.7	51200	turquoise	purple	0	4	ml	2.7.2	bip	sub-01_ses-02_task-ml_proj-bip_2020-10-02-11-31-40.968722
154	1	2	4	155	volatile	6	20	15	vs	purple	turquoise	purple	turquoise	left	right	0.30000000000000004	0.7	4	2	1.2000000000000002	1.4	0	1	0.30000000000000004	0.7	4	2	1.2000000000000002	1.4	valid	0.3665868690004572	51200	0	0	1	53248	0	53248	0	51200	1	0.7	53248	turquoise	purple	0	0	ml	2.7.2	bip	sub-01_ses-02_task-ml_proj-bip_2020-10-02-11-31-40.968722
155	1	2	4	156	volatile	6	20	16	vs	turquoise	purple	purple	turquoise	right	left	0.30000000000000004	0.7	10	2	3.0000000000000004	1.4	1	0	0.7	0.30000000000000004	2	10	1.4	3.0000000000000004	invalid	0.4832210990007298	53248	0	1	1	53248	1	51200	0	53248	1	0.7	51200	turquoise	purple	0	10	ml	2.7.2	bip	sub-01_ses-02_task-ml_proj-bip_2020-10-02-11-31-40.968722
156	1	2	4	157	volatile	6	20	17	vs	purple	turquoise	purple	turquoise	left	right	0.30000000000000004	0.7	2	2	0.6000000000000001	1.4	1	0	0.30000000000000004	0.7	2	2	0.6000000000000001	1.4	invalid	0.3999043409985461	51200	0	0	1	53248	0	53248	0	53248	0	0.7	53248	turquoise	purple	0	2	ml	2.7.2	bip	sub-01_ses-02_task-ml_proj-bip_2020-10-02-11-31-40.968722
157	1	2	4	158	volatile	6	20	18	vs	purple	turquoise	purple	turquoise	left	right	0.30000000000000004	0.7	6	6	1.8000000000000005	4.199999999999998	0	1	0.30000000000000004	0.7	6	6	1.8000000000000005	4.199999999999998	valid	0.36658208799963177	51200	0	0	1	53248	0	53248	0	53248	0	0.7	53248	turquoise	purple	0	0	ml	2.7.2	bip	sub-01_ses-02_task-ml_proj-bip_2020-10-02-11-31-40.968722
158	1	2	4	159	volatile	6	20	19	vs	turquoise	purple	purple	turquoise	right	left	0.30000000000000004	0.7	4	2	1.2000000000000002	1.4	0	1	0.7	0.30000000000000004	2	4	1.4	1.2000000000000002	valid	0.3665879149993998	53248	0	1	1	51200	0	51200	0	53248	1	0.7	51200	turquoise	purple	0	0	ml	2.7.2	bip	sub-01_ses-02_task-ml_proj-bip_2020-10-02-11-31-40.968722
159	1	2	4	160	volatile	6	20	20	vs	purple	turquoise	purple	turquoise	left	right	0.30000000000000004	0.7	10	2	3.0000000000000004	1.4	0	1	0.30000000000000004	0.7	10	2	3.0000000000000004	1.4	valid	0.4832080109990784	51200	0	0	1	51200	1	53248	0	51200	1	0.7	53248	turquoise	purple	0	0	ml	2.7.2	bip	sub-01_ses-02_task-ml_proj-bip_2020-10-02-11-31-40.968722
160	1	2	4	161	volatile	7	40	1	vs	turquoise	purple	purple	turquoise	right	left	0.7	0.30000000000000004	4	2	2.8	0.6000000000000001	1	0	0.30000000000000004	0.7	2	4	0.6000000000000001	2.8	valid	0.6498297960006312	51200	0	0	2	53248	0	53248	0	53248	0	0.7	53248	purple	turquoise	1	0	ml	2.7.2	bip	sub-01_ses-02_task-ml_proj-bip_2020-10-02-11-31-40.968722
161	1	2	4	162	volatile	7	40	2	vs	purple	turquoise	purple	turquoise	left	right	0.7	0.30000000000000004	10	2	7.0	0.6000000000000001	0	1	0.7	0.30000000000000004	10	2	7.0	0.6000000000000001	invalid	0.3999028819998785	51200	0	0	1	51200	1	51200	1	51200	1	0.7	51200	purple	turquoise	1	0	ml	2.7.2	bip	sub-01_ses-02_task-ml_proj-bip_2020-10-02-11-31-40.968722
162	1	2	4	163	volatile	7	40	3	vs	purple	turquoise	purple	turquoise	left	right	0.7	0.30000000000000004	4	6	2.8	1.8000000000000005	1	0	0.7	0.30000000000000004	4	6	2.8	1.8000000000000005	valid	0.3665934079999715	53248	0	1	2	51200	0	51200	0	53248	1	0.7	51200	purple	turquoise	0	0	ml	2.7.2	bip	sub-01_ses-02_task-ml_proj-bip_2020-10-02-11-31-40.968722
163	1	2	4	164	volatile	7	40	4	vs	purple	turquoise	purple	turquoise	left	right	0.7	0.30000000000000004	4	6	2.8	1.8000000000000005	1	0	0.7	0.30000000000000004	4	6	2.8	1.8000000000000005	valid	0.4832207849995029	53248	0	1	2	51200	0	51200	0	53248	1	0.7	51200	purple	turquoise	0	0	ml	2.7.2	bip	sub-01_ses-02_task-ml_proj-bip_2020-10-02-11-31-40.968722
164	1	2	4	165	volatile	7	40	5	vs	turquoise	purple	purple	turquoise	right	left	0.7	0.30000000000000004	2	6	1.4	1.8000000000000005	0	1	0.30000000000000004	0.7	6	2	1.8000000000000005	1.4	invalid	0.3999142760003451	53248	0	1	1	51200	0	53248	1	51200	0	0.7	53248	purple	turquoise	0	0	ml	2.7.2	bip	sub-01_ses-02_task-ml_proj-bip_2020-10-02-11-31-40.968722
165	1	2	4	166	volatile	7	40	6	vs	turquoise	purple	purple	turquoise	right	left	0.7	0.30000000000000004	4	6	2.8	1.8000000000000005	1	0	0.30000000000000004	0.7	6	4	1.8000000000000005	2.8	valid	0.46655141500014	51200	0	0	2	53248	0	53248	0	51200	1	0.7	53248	purple	turquoise	0	0	ml	2.7.2	bip	sub-01_ses-02_task-ml_proj-bip_2020-10-02-11-31-40.968722
166	1	2	4	167	volatile	7	40	7	vs	turquoise	purple	purple	turquoise	right	left	0.7	0.30000000000000004	2	6	1.4	1.8000000000000005	1	0	0.30000000000000004	0.7	6	2	1.8000000000000005	1.4	valid	0.4498872109998047	51200	0	0	2	51200	1	53248	0	51200	1	0.7	53248	purple	turquoise	0	0	ml	2.7.2	bip	sub-01_ses-02_task-ml_proj-bip_2020-10-02-11-31-40.968722
167	1	2	4	168	volatile	7	40	8	vs	purple	turquoise	purple	turquoise	left	right	0.7	0.30000000000000004	6	6	4.199999999999998	1.8000000000000005	0	1	0.7	0.30000000000000004	6	6	4.199999999999998	1.8000000000000005	invalid	1.0330507709986705	51200	0	0	1	51200	1	51200	1	53248	0	0.7	51200	purple	turquoise	1	0	ml	2.7.2	bip	sub-01_ses-02_task-ml_proj-bip_2020-10-02-11-31-40.968722
168	1	2	4	169	volatile	7	40	9	vs	turquoise	purple	purple	turquoise	right	left	0.7	0.30000000000000004	4	6	2.8	1.8000000000000005	0	1	0.30000000000000004	0.7	6	4	1.8000000000000005	2.8	invalid	0.4665627840004163	53248	0	1	1	53248	1	53248	1	51200	0	0.7	53248	purple	turquoise	0	0	ml	2.7.2	bip	sub-01_ses-02_task-ml_proj-bip_2020-10-02-11-31-40.968722
169	1	2	4	170	volatile	7	40	10	vs	purple	turquoise	purple	turquoise	left	right	0.7	0.30000000000000004	6	6	4.199999999999998	1.8000000000000005	1	0	0.7	0.30000000000000004	6	6	4.199999999999998	1.8000000000000005	valid	0.6831636930000968	53248	0	1	2	51200	0	51200	0	53248	1	0.7	51200	purple	turquoise	1	0	ml	2.7.2	bip	sub-01_ses-02_task-ml_proj-bip_2020-10-02-11-31-40.968722
170	1	2	4	171	volatile	7	40	11	vs	purple	turquoise	purple	turquoise	left	right	0.7	0.30000000000000004	2	6	1.4	1.8000000000000005	1	0	0.7	0.30000000000000004	2	6	1.4	1.8000000000000005	valid	0.4165548189994297	53248	0	1	2	53248	1	51200	0	53248	1	0.7	51200	purple	turquoise	0	0	ml	2.7.2	bip	sub-01_ses-02_task-ml_proj-bip_2020-10-02-11-31-40.968722
171	1	2	4	172	volatile	7	40	12	vs	purple	turquoise	purple	turquoise	left	right	0.7	0.30000000000000004	2	10	1.4	3.0000000000000004	1	0	0.7	0.30000000000000004	2	10	1.4	3.0000000000000004	valid	0.34992108099868346	51200	0	0	1	53248	0	51200	1	53248	0	0.7	51200	purple	turquoise	0	2	ml	2.7.2	bip	sub-01_ses-02_task-ml_proj-bip_2020-10-02-11-31-40.968722
172	1	2	4	173	volatile	7	40	13	vs	purple	turquoise	purple	turquoise	left	right	0.7	0.30000000000000004	2	6	1.4	1.8000000000000005	0	1	0.7	0.30000000000000004	2	6	1.4	1.8000000000000005	invalid	0.3832444760009821	51200	0	0	1	53248	0	51200	1	53248	0	0.7	51200	purple	turquoise	0	0	ml	2.7.2	bip	sub-01_ses-02_task-ml_proj-bip_2020-10-02-11-31-40.968722
173	1	2	4	174	volatile	7	40	14	vs	turquoise	purple	purple	turquoise	right	left	0.7	0.30000000000000004	2	10	1.4	3.0000000000000004	0	1	0.30000000000000004	0.7	10	2	3.0000000000000004	1.4	invalid	0.3999041160004708	51200	0	0	2	51200	1	53248	0	51200	1	0.7	53248	purple	turquoise	0	10	ml	2.7.2	bip	sub-01_ses-02_task-ml_proj-bip_2020-10-02-11-31-40.968722
174	1	2	4	175	volatile	7	40	15	vs	turquoise	purple	purple	turquoise	right	left	0.7	0.30000000000000004	4	2	2.8	0.6000000000000001	1	0	0.30000000000000004	0.7	2	4	0.6000000000000001	2.8	valid	0.5165332420001505	51200	0	0	2	53248	0	53248	0	53248	0	0.7	53248	purple	turquoise	1	0	ml	2.7.2	bip	sub-01_ses-02_task-ml_proj-bip_2020-10-02-11-31-40.968722
175	1	2	4	176	volatile	7	40	16	vs	turquoise	purple	purple	turquoise	right	left	0.7	0.30000000000000004	2	6	1.4	1.8000000000000005	1	0	0.30000000000000004	0.7	6	2	1.8000000000000005	1.4	valid	0.4165761550011666	51200	0	0	2	51200	1	53248	0	51200	1	0.7	53248	purple	turquoise	0	0	ml	2.7.2	bip	sub-01_ses-02_task-ml_proj-bip_2020-10-02-11-31-40.968722
176	1	2	4	177	volatile	7	40	17	vs	purple	turquoise	purple	turquoise	left	right	0.7	0.30000000000000004	4	2	2.8	0.6000000000000001	0	1	0.7	0.30000000000000004	4	2	2.8	0.6000000000000001	invalid	0.3665802949999488	51200	0	0	1	51200	1	51200	1	51200	1	0.7	51200	purple	turquoise	1	0	ml	2.7.2	bip	sub-01_ses-02_task-ml_proj-bip_2020-10-02-11-31-40.968722
177	1	2	4	178	volatile	7	40	18	vs	purple	turquoise	purple	turquoise	left	right	0.7	0.30000000000000004	2	10	1.4	3.0000000000000004	1	0	0.7	0.30000000000000004	2	10	1.4	3.0000000000000004	valid	0.4165785559998767	53248	0	1	2	53248	1	51200	0	53248	1	0.7	51200	purple	turquoise	0	0	ml	2.7.2	bip	sub-01_ses-02_task-ml_proj-bip_2020-10-02-11-31-40.968722
178	1	2	4	179	volatile	7	40	19	vs	purple	turquoise	purple	turquoise	left	right	0.7	0.30000000000000004	2	10	1.4	3.0000000000000004	1	0	0.7	0.30000000000000004	2	10	1.4	3.0000000000000004	valid	0.46656179700039496	53248	0	1	2	53248	1	51200	0	53248	1	0.7	51200	purple	turquoise	0	0	ml	2.7.2	bip	sub-01_ses-02_task-ml_proj-bip_2020-10-02-11-31-40.968722
179	1	2	4	180	volatile	7	40	20	vs	turquoise	purple	purple	turquoise	right	left	0.7	0.30000000000000004	6	2	4.199999999999998	0.6000000000000001	1	0	0.30000000000000004	0.7	2	6	0.6000000000000001	4.199999999999998	valid	0.5332060590008041	53248	0	1	1	53248	1	53248	1	53248	1	0.7	53248	purple	turquoise	1	6	ml	2.7.2	bip	sub-01_ses-02_task-ml_proj-bip_2020-10-02-11-31-40.968722
180	1	2	4	181	volatile	7	40	21	vs	turquoise	purple	purple	turquoise	right	left	0.7	0.30000000000000004	4	6	2.8	1.8000000000000005	1	0	0.30000000000000004	0.7	6	4	1.8000000000000005	2.8	valid	0.4332396299996617	53248	0	1	1	53248	1	53248	1	51200	0	0.7	53248	purple	turquoise	0	4	ml	2.7.2	bip	sub-01_ses-02_task-ml_proj-bip_2020-10-02-11-31-40.968722
181	1	2	4	182	volatile	7	40	22	vs	turquoise	purple	purple	turquoise	right	left	0.7	0.30000000000000004	2	10	1.4	3.0000000000000004	1	0	0.30000000000000004	0.7	10	2	3.0000000000000004	1.4	valid	0.36659190700083855	53248	0	1	1	51200	0	53248	1	51200	0	0.7	53248	purple	turquoise	0	2	ml	2.7.2	bip	sub-01_ses-02_task-ml_proj-bip_2020-10-02-11-31-40.968722
182	1	2	4	183	volatile	7	40	23	vs	purple	turquoise	purple	turquoise	left	right	0.7	0.30000000000000004	4	2	2.8	0.6000000000000001	1	0	0.7	0.30000000000000004	4	2	2.8	0.6000000000000001	valid	0.3832403249998606	51200	0	0	1	51200	1	51200	1	51200	1	0.7	51200	purple	turquoise	1	4	ml	2.7.2	bip	sub-01_ses-02_task-ml_proj-bip_2020-10-02-11-31-40.968722
183	1	2	4	184	volatile	7	40	24	vs	turquoise	purple	purple	turquoise	right	left	0.7	0.30000000000000004	6	4	4.199999999999998	1.2000000000000002	0	1	0.30000000000000004	0.7	4	6	1.2000000000000002	4.199999999999998	invalid	0.4165791209998133	53248	0	1	1	53248	1	53248	1	53248	1	0.7	53248	purple	turquoise	1	0	ml	2.7.2	bip	sub-01_ses-02_task-ml_proj-bip_2020-10-02-11-31-40.968722
184	1	2	4	185	volatile	7	40	25	vs	purple	turquoise	purple	turquoise	left	right	0.7	0.30000000000000004	2	6	1.4	1.8000000000000005	1	0	0.7	0.30000000000000004	2	6	1.4	1.8000000000000005	valid	0.5165493720014638	53248	0	1	2	53248	1	51200	0	53248	1	0.7	51200	purple	turquoise	0	0	ml	2.7.2	bip	sub-01_ses-02_task-ml_proj-bip_2020-10-02-11-31-40.968722
185	1	2	4	186	volatile	7	40	26	vs	turquoise	purple	purple	turquoise	right	left	0.7	0.30000000000000004	2	2	1.4	0.6000000000000001	1	0	0.30000000000000004	0.7	2	2	0.6000000000000001	1.4	valid	0.6498292429987487	51200	0	0	2	53248	0	53248	0	53248	0	0.7	53248	purple	turquoise	0	0	ml	2.7.2	bip	sub-01_ses-02_task-ml_proj-bip_2020-10-02-11-31-40.968722
186	1	2	4	187	volatile	7	40	27	vs	purple	turquoise	purple	turquoise	left	right	0.7	0.30000000000000004	10	2	7.0	0.6000000000000001	1	0	0.7	0.30000000000000004	10	2	7.0	0.6000000000000001	valid	0.3999133990000701	51200	0	0	1	51200	1	51200	1	51200	1	0.7	51200	purple	turquoise	1	10	ml	2.7.2	bip	sub-01_ses-02_task-ml_proj-bip_2020-10-02-11-31-40.968722
187	1	2	4	188	volatile	7	40	28	vs	purple	turquoise	purple	turquoise	left	right	0.7	0.30000000000000004	6	6	4.199999999999998	1.8000000000000005	1	0	0.7	0.30000000000000004	6	6	4.199999999999998	1.8000000000000005	valid	0.3665841340007319	51200	0	0	1	51200	1	51200	1	53248	0	0.7	51200	purple	turquoise	1	6	ml	2.7.2	bip	sub-01_ses-02_task-ml_proj-bip_2020-10-02-11-31-40.968722
188	1	2	4	189	volatile	7	40	29	vs	turquoise	purple	purple	turquoise	right	left	0.7	0.30000000000000004	4	2	2.8	0.6000000000000001	0	1	0.30000000000000004	0.7	2	4	0.6000000000000001	2.8	invalid	0.4332447809993028	53248	0	1	1	53248	1	53248	1	53248	1	0.7	53248	purple	turquoise	1	0	ml	2.7.2	bip	sub-01_ses-02_task-ml_proj-bip_2020-10-02-11-31-40.968722
189	1	2	4	190	volatile	7	40	30	vs	turquoise	purple	purple	turquoise	right	left	0.7	0.30000000000000004	2	4	1.4	1.2000000000000002	1	0	0.30000000000000004	0.7	4	2	1.2000000000000002	1.4	valid	1.149678331999894	51200	0	0	2	53248	0	53248	0	51200	1	0.7	53248	purple	turquoise	0	0	ml	2.7.2	bip	sub-01_ses-02_task-ml_proj-bip_2020-10-02-11-31-40.968722
190	1	2	4	191	volatile	7	40	31	vs	turquoise	purple	purple	turquoise	right	left	0.7	0.30000000000000004	2	6	1.4	1.8000000000000005	1	0	0.30000000000000004	0.7	6	2	1.8000000000000005	1.4	valid	0.3999177650002821	53248	0	1	1	51200	0	53248	1	51200	0	0.7	53248	purple	turquoise	0	2	ml	2.7.2	bip	sub-01_ses-02_task-ml_proj-bip_2020-10-02-11-31-40.968722
191	1	2	4	192	volatile	7	40	32	vs	purple	turquoise	purple	turquoise	left	right	0.7	0.30000000000000004	2	2	1.4	0.6000000000000001	1	0	0.7	0.30000000000000004	2	2	1.4	0.6000000000000001	valid	0.4832129179994809	51200	0	0	1	51200	1	51200	1	53248	0	0.7	51200	purple	turquoise	1	2	ml	2.7.2	bip	sub-01_ses-02_task-ml_proj-bip_2020-10-02-11-31-40.968722
192	1	2	4	193	volatile	7	40	33	vs	turquoise	purple	purple	turquoise	right	left	0.7	0.30000000000000004	4	2	2.8	0.6000000000000001	1	0	0.30000000000000004	0.7	2	4	0.6000000000000001	2.8	valid	0.666538084999047	53248	0	1	1	53248	1	53248	1	53248	1	0.7	53248	purple	turquoise	1	4	ml	2.7.2	bip	sub-01_ses-02_task-ml_proj-bip_2020-10-02-11-31-40.968722
193	1	2	4	194	volatile	7	40	34	vs	turquoise	purple	purple	turquoise	right	left	0.7	0.30000000000000004	2	4	1.4	1.2000000000000002	1	0	0.30000000000000004	0.7	4	2	1.2000000000000002	1.4	valid	0.4998516619998554	53248	0	1	1	53248	1	53248	1	51200	0	0.7	53248	purple	turquoise	0	2	ml	2.7.2	bip	sub-01_ses-02_task-ml_proj-bip_2020-10-02-11-31-40.968722
194	1	2	4	195	volatile	7	40	35	vs	purple	turquoise	purple	turquoise	left	right	0.7	0.30000000000000004	2	10	1.4	3.0000000000000004	1	0	0.7	0.30000000000000004	2	10	1.4	3.0000000000000004	valid	0.3832449600013206	51200	0	0	1	53248	0	51200	1	53248	0	0.7	51200	purple	turquoise	0	2	ml	2.7.2	bip	sub-01_ses-02_task-ml_proj-bip_2020-10-02-11-31-40.968722
195	1	2	4	196	volatile	7	40	36	vs	turquoise	purple	purple	turquoise	right	left	0.7	0.30000000000000004	2	2	1.4	0.6000000000000001	0	1	0.30000000000000004	0.7	2	2	0.6000000000000001	1.4	invalid	0.6331788199986477	53248	0	1	1	53248	1	53248	1	53248	1	0.7	53248	purple	turquoise	0	0	ml	2.7.2	bip	sub-01_ses-02_task-ml_proj-bip_2020-10-02-11-31-40.968722
196	1	2	4	197	volatile	7	40	37	vs	purple	turquoise	purple	turquoise	left	right	0.7	0.30000000000000004	4	6	2.8	1.8000000000000005	0	1	0.7	0.30000000000000004	4	6	2.8	1.8000000000000005	invalid	0.6498305269997218	51200	0	0	1	51200	1	51200	1	53248	0	0.7	51200	purple	turquoise	0	0	ml	2.7.2	bip	sub-01_ses-02_task-ml_proj-bip_2020-10-02-11-31-40.968722
197	1	2	4	198	volatile	7	40	38	vs	purple	turquoise	purple	turquoise	left	right	0.7	0.30000000000000004	2	2	1.4	0.6000000000000001	0	1	0.7	0.30000000000000004	2	2	1.4	0.6000000000000001	invalid	0.3832534969988046	53248	0	1	2	51200	0	51200	0	53248	1	0.7	51200	purple	turquoise	1	2	ml	2.7.2	bip	sub-01_ses-02_task-ml_proj-bip_2020-10-02-11-31-40.968722
198	1	2	4	199	volatile	7	40	39	vs	turquoise	purple	purple	turquoise	right	left	0.7	0.30000000000000004	6	6	4.199999999999998	1.8000000000000005	1	0	0.30000000000000004	0.7	6	6	1.8000000000000005	4.199999999999998	valid	0.3332571139999345	51200	0	0	2	53248	0	53248	0	53248	0	0.7	53248	purple	turquoise	0	0	ml	2.7.2	bip	sub-01_ses-02_task-ml_proj-bip_2020-10-02-11-31-40.968722
199	1	2	4	200	volatile	7	40	40	vs	purple	turquoise	purple	turquoise	left	right	0.7	0.30000000000000004	6	4	4.199999999999998	1.2000000000000002	1	0	0.7	0.30000000000000004	6	4	4.199999999999998	1.2000000000000002	valid	0.5331969939998089	51200	0	0	1	51200	1	51200	1	51200	1	0.7	51200	purple	turquoise	1	6	ml	2.7.2	bip	sub-01_ses-02_task-ml_proj-bip_2020-10-02-11-31-40.968722
200	1	2	5	201	stable	8	200	1	vs	turquoise	purple	purple	turquoise	right	left	0.30000000000000004	0.7	2	6	0.6000000000000001	4.199999999999998	1	0	0.7	0.30000000000000004	6	2	4.199999999999998	0.6000000000000001	invalid	0.4332291669998085	51200	0	0	2	51200	1	51200	1	51200	1	0.7	51200	turquoise	purple	1	0	ml	2.7.2	bip	sub-01_ses-02_task-ml_proj-bip_2020-10-02-11-31-40.968722
201	1	2	5	202	stable	8	200	2	vs	purple	turquoise	purple	turquoise	left	right	0.30000000000000004	0.7	10	2	3.0000000000000004	1.4	0	1	0.30000000000000004	0.7	10	2	3.0000000000000004	1.4	valid	0.4332314189996396	51200	0	0	1	51200	1	53248	0	51200	1	0.7	53248	turquoise	purple	0	0	ml	2.7.2	bip	sub-01_ses-02_task-ml_proj-bip_2020-10-02-11-31-40.968722
202	1	2	5	203	stable	8	200	3	vs	turquoise	purple	purple	turquoise	right	left	0.30000000000000004	0.7	2	2	0.6000000000000001	1.4	0	1	0.7	0.30000000000000004	2	2	1.4	0.6000000000000001	valid	0.4498995900012233	53248	0	1	1	51200	0	51200	0	53248	1	0.7	51200	turquoise	purple	1	0	ml	2.7.2	bip	sub-01_ses-02_task-ml_proj-bip_2020-10-02-11-31-40.968722
203	1	2	5	204	stable	8	200	4	vs	purple	turquoise	purple	turquoise	left	right	0.30000000000000004	0.7	4	6	1.2000000000000002	4.199999999999998	0	1	0.30000000000000004	0.7	4	6	1.2000000000000002	4.199999999999998	valid	0.3499627300006978	53248	0	1	2	53248	1	53248	1	53248	1	0.7	53248	turquoise	purple	1	6	ml	2.7.2	bip	sub-01_ses-02_task-ml_proj-bip_2020-10-02-11-31-40.968722
204	1	2	5	205	stable	8	200	5	vs	turquoise	purple	purple	turquoise	right	left	0.30000000000000004	0.7	6	4	1.8000000000000005	2.8	1	0	0.7	0.30000000000000004	4	6	2.8	1.8000000000000005	invalid	0.3499190040001849	51200	0	0	2	51200	1	51200	1	53248	0	0.7	51200	turquoise	purple	0	0	ml	2.7.2	bip	sub-01_ses-02_task-ml_proj-bip_2020-10-02-11-31-40.968722
205	1	2	5	206	stable	8	200	6	vs	turquoise	purple	purple	turquoise	right	left	0.30000000000000004	0.7	6	2	1.8000000000000005	1.4	0	1	0.7	0.30000000000000004	2	6	1.4	1.8000000000000005	valid	0.466561326998999	53248	0	1	1	53248	1	51200	0	53248	1	0.7	51200	turquoise	purple	0	0	ml	2.7.2	bip	sub-01_ses-02_task-ml_proj-bip_2020-10-02-11-31-40.968722
206	1	2	5	207	stable	8	200	7	vs	turquoise	purple	purple	turquoise	right	left	0.30000000000000004	0.7	2	6	0.6000000000000001	4.199999999999998	0	1	0.7	0.30000000000000004	6	2	4.199999999999998	0.6000000000000001	valid	0.4998691980017611	51200	0	0	2	51200	1	51200	1	51200	1	0.7	51200	turquoise	purple	1	6	ml	2.7.2	bip	sub-01_ses-02_task-ml_proj-bip_2020-10-02-11-31-40.968722
207	1	2	5	208	stable	8	200	8	vs	turquoise	purple	purple	turquoise	right	left	0.30000000000000004	0.7	2	4	0.6000000000000001	2.8	0	1	0.7	0.30000000000000004	4	2	2.8	0.6000000000000001	valid	0.3832373570003256	51200	0	0	2	51200	1	51200	1	51200	1	0.7	51200	turquoise	purple	1	4	ml	2.7.2	bip	sub-01_ses-02_task-ml_proj-bip_2020-10-02-11-31-40.968722
208	1	2	5	209	stable	8	200	9	vs	turquoise	purple	purple	turquoise	right	left	0.30000000000000004	0.7	4	6	1.2000000000000002	4.199999999999998	0	1	0.7	0.30000000000000004	6	4	4.199999999999998	1.2000000000000002	valid	0.3665831990001607	51200	0	0	2	51200	1	51200	1	51200	1	0.7	51200	turquoise	purple	1	6	ml	2.7.2	bip	sub-01_ses-02_task-ml_proj-bip_2020-10-02-11-31-40.968722
209	1	2	5	210	stable	8	200	10	vs	purple	turquoise	purple	turquoise	left	right	0.30000000000000004	0.7	4	2	1.2000000000000002	1.4	1	0	0.30000000000000004	0.7	4	2	1.2000000000000002	1.4	invalid	0.4665627969989146	53248	0	1	2	53248	1	53248	1	51200	0	0.7	53248	turquoise	purple	0	0	ml	2.7.2	bip	sub-01_ses-02_task-ml_proj-bip_2020-10-02-11-31-40.968722
210	1	2	5	211	stable	8	200	11	vs	turquoise	purple	purple	turquoise	right	left	0.30000000000000004	0.7	4	2	1.2000000000000002	1.4	0	1	0.7	0.30000000000000004	2	4	1.4	1.2000000000000002	valid	0.4832242020002013	53248	0	1	1	51200	0	51200	0	53248	1	0.7	51200	turquoise	purple	0	0	ml	2.7.2	bip	sub-01_ses-02_task-ml_proj-bip_2020-10-02-11-31-40.968722
211	1	2	5	212	stable	8	200	12	vs	turquoise	purple	purple	turquoise	right	left	0.30000000000000004	0.7	6	2	1.8000000000000005	1.4	1	0	0.7	0.30000000000000004	2	6	1.4	1.8000000000000005	invalid	0.3499217089993181	51200	0	0	2	53248	0	51200	1	53248	0	0.7	51200	turquoise	purple	0	0	ml	2.7.2	bip	sub-01_ses-02_task-ml_proj-bip_2020-10-02-11-31-40.968722
212	1	2	5	213	stable	8	200	13	vs	purple	turquoise	purple	turquoise	left	right	0.30000000000000004	0.7	2	2	0.6000000000000001	1.4	0	1	0.30000000000000004	0.7	2	2	0.6000000000000001	1.4	valid	0.5498658649994468	53248	0	1	2	53248	1	53248	1	53248	1	0.7	53248	turquoise	purple	0	2	ml	2.7.2	bip	sub-01_ses-02_task-ml_proj-bip_2020-10-02-11-31-40.968722
213	1	2	5	214	stable	8	200	14	vs	purple	turquoise	purple	turquoise	left	right	0.30000000000000004	0.7	2	2	0.6000000000000001	1.4	1	0	0.30000000000000004	0.7	2	2	0.6000000000000001	1.4	invalid	0.38325683400034893	53248	0	1	2	53248	1	53248	1	53248	1	0.7	53248	turquoise	purple	0	0	ml	2.7.2	bip	sub-01_ses-02_task-ml_proj-bip_2020-10-02-11-31-40.968722
214	1	2	5	215	stable	8	200	15	vs	turquoise	purple	purple	turquoise	right	left	0.30000000000000004	0.7	6	2	1.8000000000000005	1.4	0	1	0.7	0.30000000000000004	2	6	1.4	1.8000000000000005	valid	0.4332391780008038	53248	0	1	1	53248	1	51200	0	53248	1	0.7	51200	turquoise	purple	0	0	ml	2.7.2	bip	sub-01_ses-02_task-ml_proj-bip_2020-10-02-11-31-40.968722
215	1	2	5	216	stable	8	200	16	vs	turquoise	purple	purple	turquoise	right	left	0.30000000000000004	0.7	2	10	0.6000000000000001	7.0	0	1	0.7	0.30000000000000004	10	2	7.0	0.6000000000000001	valid	0.3499205469997833	51200	0	0	2	51200	1	51200	1	51200	1	0.7	51200	turquoise	purple	1	10	ml	2.7.2	bip	sub-01_ses-02_task-ml_proj-bip_2020-10-02-11-31-40.968722
216	1	2	5	217	stable	8	200	17	vs	turquoise	purple	purple	turquoise	right	left	0.30000000000000004	0.7	2	4	0.6000000000000001	2.8	0	1	0.7	0.30000000000000004	4	2	2.8	0.6000000000000001	valid	0.3832446090000303	51200	0	0	2	51200	1	51200	1	51200	1	0.7	51200	turquoise	purple	1	4	ml	2.7.2	bip	sub-01_ses-02_task-ml_proj-bip_2020-10-02-11-31-40.968722
217	1	2	5	218	stable	8	200	18	vs	purple	turquoise	purple	turquoise	left	right	0.30000000000000004	0.7	4	2	1.2000000000000002	1.4	0	1	0.30000000000000004	0.7	4	2	1.2000000000000002	1.4	valid	0.4332454180002969	53248	0	1	2	53248	1	53248	1	51200	0	0.7	53248	turquoise	purple	0	2	ml	2.7.2	bip	sub-01_ses-02_task-ml_proj-bip_2020-10-02-11-31-40.968722
218	1	2	5	219	stable	8	200	19	vs	purple	turquoise	purple	turquoise	left	right	0.30000000000000004	0.7	4	2	1.2000000000000002	1.4	0	1	0.30000000000000004	0.7	4	2	1.2000000000000002	1.4	valid	0.4832231830005185	53248	0	1	2	53248	1	53248	1	51200	0	0.7	53248	turquoise	purple	0	2	ml	2.7.2	bip	sub-01_ses-02_task-ml_proj-bip_2020-10-02-11-31-40.968722
219	1	2	5	220	stable	8	200	20	vs	purple	turquoise	purple	turquoise	left	right	0.30000000000000004	0.7	2	4	0.6000000000000001	2.8	0	1	0.30000000000000004	0.7	2	4	0.6000000000000001	2.8	valid	0.3999155889996473	53248	0	1	2	53248	1	53248	1	53248	1	0.7	53248	turquoise	purple	1	4	ml	2.7.2	bip	sub-01_ses-02_task-ml_proj-bip_2020-10-02-11-31-40.968722
220	1	2	5	221	stable	8	200	21	vs	turquoise	purple	purple	turquoise	right	left	0.30000000000000004	0.7	2	4	0.6000000000000001	2.8	0	1	0.7	0.30000000000000004	4	2	2.8	0.6000000000000001	valid	0.3332595940009924	51200	0	0	2	51200	1	51200	1	51200	1	0.7	51200	turquoise	purple	1	4	ml	2.7.2	bip	sub-01_ses-02_task-ml_proj-bip_2020-10-02-11-31-40.968722
221	1	2	5	222	stable	8	200	22	vs	turquoise	purple	purple	turquoise	right	left	0.30000000000000004	0.7	2	2	0.6000000000000001	1.4	1	0	0.7	0.30000000000000004	2	2	1.4	0.6000000000000001	invalid	0.4665457339997374	51200	0	0	2	51200	1	51200	1	53248	0	0.7	51200	turquoise	purple	1	0	ml	2.7.2	bip	sub-01_ses-02_task-ml_proj-bip_2020-10-02-11-31-40.968722
222	1	2	5	223	stable	8	200	23	vs	purple	turquoise	purple	turquoise	left	right	0.30000000000000004	0.7	2	2	0.6000000000000001	1.4	1	0	0.30000000000000004	0.7	2	2	0.6000000000000001	1.4	invalid	0.6165268759996252	53248	0	1	2	53248	1	53248	1	53248	1	0.7	53248	turquoise	purple	0	0	ml	2.7.2	bip	sub-01_ses-02_task-ml_proj-bip_2020-10-02-11-31-40.968722
223	1	2	5	224	stable	8	200	24	vs	purple	turquoise	purple	turquoise	left	right	0.30000000000000004	0.7	6	4	1.8000000000000005	2.8	1	0	0.30000000000000004	0.7	6	4	1.8000000000000005	2.8	invalid	0.3832523300006869	51200	0	0	1	53248	0	53248	0	51200	1	0.7	53248	turquoise	purple	0	6	ml	2.7.2	bip	sub-01_ses-02_task-ml_proj-bip_2020-10-02-11-31-40.968722
224	1	2	5	225	stable	8	200	25	vs	turquoise	purple	purple	turquoise	right	left	0.30000000000000004	0.7	2	6	0.6000000000000001	4.199999999999998	0	1	0.7	0.30000000000000004	6	2	4.199999999999998	0.6000000000000001	valid	0.4499011759999121	53248	0	1	1	51200	0	51200	0	51200	0	0.7	51200	turquoise	purple	1	0	ml	2.7.2	bip	sub-01_ses-02_task-ml_proj-bip_2020-10-02-11-31-40.968722
225	1	2	5	226	stable	8	200	26	vs	turquoise	purple	purple	turquoise	right	left	0.30000000000000004	0.7	4	2	1.2000000000000002	1.4	0	1	0.7	0.30000000000000004	2	4	1.4	1.2000000000000002	valid	0.483227127999271	53248	0	1	1	51200	0	51200	0	53248	1	0.7	51200	turquoise	purple	0	0	ml	2.7.2	bip	sub-01_ses-02_task-ml_proj-bip_2020-10-02-11-31-40.968722
226	1	2	5	227	stable	8	200	27	vs	purple	turquoise	purple	turquoise	left	right	0.30000000000000004	0.7	2	10	0.6000000000000001	7.0	0	1	0.30000000000000004	0.7	2	10	0.6000000000000001	7.0	valid	0.3499185069995292	51200	0	0	1	53248	0	53248	0	53248	0	0.7	53248	turquoise	purple	1	0	ml	2.7.2	bip	sub-01_ses-02_task-ml_proj-bip_2020-10-02-11-31-40.968722
227	1	2	5	228	stable	8	200	28	vs	purple	turquoise	purple	turquoise	left	right	0.30000000000000004	0.7	6	2	1.8000000000000005	1.4	1	0	0.30000000000000004	0.7	6	2	1.8000000000000005	1.4	invalid	0.3832567560002644	53248	0	1	2	51200	0	53248	1	51200	0	0.7	53248	turquoise	purple	0	0	ml	2.7.2	bip	sub-01_ses-02_task-ml_proj-bip_2020-10-02-11-31-40.968722
228	1	2	5	229	stable	8	200	29	vs	purple	turquoise	purple	turquoise	left	right	0.30000000000000004	0.7	2	6	0.6000000000000001	4.199999999999998	0	1	0.30000000000000004	0.7	2	6	0.6000000000000001	4.199999999999998	valid	0.433240554000804	53248	0	1	2	53248	1	53248	1	53248	1	0.7	53248	turquoise	purple	1	6	ml	2.7.2	bip	sub-01_ses-02_task-ml_proj-bip_2020-10-02-11-31-40.968722
229	1	2	5	230	stable	8	200	30	vs	turquoise	purple	purple	turquoise	right	left	0.30000000000000004	0.7	10	2	3.0000000000000004	1.4	0	1	0.7	0.30000000000000004	2	10	1.4	3.0000000000000004	valid	0.4332309590008663	51200	0	0	2	53248	0	51200	1	53248	0	0.7	51200	turquoise	purple	0	2	ml	2.7.2	bip	sub-01_ses-02_task-ml_proj-bip_2020-10-02-11-31-40.968722
230	1	2	5	231	stable	8	200	31	vs	purple	turquoise	purple	turquoise	left	right	0.30000000000000004	0.7	2	6	0.6000000000000001	4.199999999999998	0	1	0.30000000000000004	0.7	2	6	0.6000000000000001	4.199999999999998	valid	0.4832254869997996	53248	0	1	2	53248	1	53248	1	53248	1	0.7	53248	turquoise	purple	1	6	ml	2.7.2	bip	sub-01_ses-02_task-ml_proj-bip_2020-10-02-11-31-40.968722
231	1	2	5	232	stable	8	200	32	vs	turquoise	purple	purple	turquoise	right	left	0.30000000000000004	0.7	6	6	1.8000000000000005	4.199999999999998	1	0	0.7	0.30000000000000004	6	6	4.199999999999998	1.8000000000000005	invalid	0.4332304010004009	51200	0	0	2	51200	1	51200	1	53248	0	0.7	51200	turquoise	purple	1	0	ml	2.7.2	bip	sub-01_ses-02_task-ml_proj-bip_2020-10-02-11-31-40.968722
232	1	2	5	233	stable	8	200	33	vs	purple	turquoise	purple	turquoise	left	right	0.30000000000000004	0.7	10	2	3.0000000000000004	1.4	0	1	0.30000000000000004	0.7	10	2	3.0000000000000004	1.4	valid	0.4498903849998897	51200	0	0	1	51200	1	53248	0	51200	1	0.7	53248	turquoise	purple	0	0	ml	2.7.2	bip	sub-01_ses-02_task-ml_proj-bip_2020-10-02-11-31-40.968722
233	1	2	5	234	stable	8	200	34	vs	purple	turquoise	purple	turquoise	left	right	0.30000000000000004	0.7	10	2	3.0000000000000004	1.4	1	0	0.30000000000000004	0.7	10	2	3.0000000000000004	1.4	invalid	0.3665940860009869	53248	0	1	2	51200	0	53248	1	51200	0	0.7	53248	turquoise	purple	0	0	ml	2.7.2	bip	sub-01_ses-02_task-ml_proj-bip_2020-10-02-11-31-40.968722
234	1	2	5	235	stable	8	200	35	vs	purple	turquoise	purple	turquoise	left	right	0.30000000000000004	0.7	2	6	0.6000000000000001	4.199999999999998	0	1	0.30000000000000004	0.7	2	6	0.6000000000000001	4.199999999999998	valid	0.5498655060000601	53248	0	1	2	53248	1	53248	1	53248	1	0.7	53248	turquoise	purple	1	6	ml	2.7.2	bip	sub-01_ses-02_task-ml_proj-bip_2020-10-02-11-31-40.968722
235	1	2	5	236	stable	8	200	36	vs	turquoise	purple	purple	turquoise	right	left	0.30000000000000004	0.7	2	10	0.6000000000000001	7.0	0	1	0.7	0.30000000000000004	10	2	7.0	0.6000000000000001	valid	0.4665468629991665	51200	0	0	2	51200	1	51200	1	51200	1	0.7	51200	turquoise	purple	1	10	ml	2.7.2	bip	sub-01_ses-02_task-ml_proj-bip_2020-10-02-11-31-40.968722
236	1	2	5	237	stable	8	200	37	vs	purple	turquoise	purple	turquoise	left	right	0.30000000000000004	0.7	4	6	1.2000000000000002	4.199999999999998	0	1	0.30000000000000004	0.7	4	6	1.2000000000000002	4.199999999999998	valid	0.41657545800080703	53248	0	1	2	53248	1	53248	1	53248	1	0.7	53248	turquoise	purple	1	6	ml	2.7.2	bip	sub-01_ses-02_task-ml_proj-bip_2020-10-02-11-31-40.968722
237	1	2	5	238	stable	8	200	38	vs	purple	turquoise	purple	turquoise	left	right	0.30000000000000004	0.7	6	6	1.8000000000000005	4.199999999999998	0	1	0.30000000000000004	0.7	6	6	1.8000000000000005	4.199999999999998	valid	0.5498712610005896	53248	0	1	2	53248	1	53248	1	53248	1	0.7	53248	turquoise	purple	0	6	ml	2.7.2	bip	sub-01_ses-02_task-ml_proj-bip_2020-10-02-11-31-40.968722
238	1	2	5	239	stable	8	200	39	vs	purple	turquoise	purple	turquoise	left	right	0.30000000000000004	0.7	6	4	1.8000000000000005	2.8	1	0	0.30000000000000004	0.7	6	4	1.8000000000000005	2.8	invalid	0.7664733989986416	53248	0	1	2	53248	1	53248	1	51200	0	0.7	53248	turquoise	purple	0	0	ml	2.7.2	bip	sub-01_ses-02_task-ml_proj-bip_2020-10-02-11-31-40.968722
239	1	2	5	240	stable	8	200	40	vs	purple	turquoise	purple	turquoise	left	right	0.30000000000000004	0.7	2	4	0.6000000000000001	2.8	0	1	0.30000000000000004	0.7	2	4	0.6000000000000001	2.8	valid	1.5329028150008526	51200	0	0	1	53248	0	53248	0	53248	0	0.7	53248	turquoise	purple	1	0	ml	2.7.2	bip	sub-01_ses-02_task-ml_proj-bip_2020-10-02-11-31-40.968722
240	1	2	5	241	stable	8	200	41	vs	turquoise	purple	purple	turquoise	right	left	0.30000000000000004	0.7	4	2	1.2000000000000002	1.4	1	0	0.7	0.30000000000000004	2	4	1.4	1.2000000000000002	invalid	0.4165771609987132	53248	0	1	1	51200	0	51200	0	53248	1	0.7	51200	turquoise	purple	0	4	ml	2.7.2	bip	sub-01_ses-02_task-ml_proj-bip_2020-10-02-11-31-40.968722
241	1	2	5	242	stable	8	200	42	vs	turquoise	purple	purple	turquoise	right	left	0.30000000000000004	0.7	6	4	1.8000000000000005	2.8	0	1	0.7	0.30000000000000004	4	6	2.8	1.8000000000000005	valid	0.4499031149989605	53248	0	1	1	51200	0	51200	0	53248	1	0.7	51200	turquoise	purple	0	0	ml	2.7.2	bip	sub-01_ses-02_task-ml_proj-bip_2020-10-02-11-31-40.968722
242	1	2	5	243	stable	8	200	43	vs	purple	turquoise	purple	turquoise	left	right	0.30000000000000004	0.7	6	2	1.8000000000000005	1.4	1	0	0.30000000000000004	0.7	6	2	1.8000000000000005	1.4	invalid	0.4165732490000664	53248	0	1	2	51200	0	53248	1	51200	0	0.7	53248	turquoise	purple	0	0	ml	2.7.2	bip	sub-01_ses-02_task-ml_proj-bip_2020-10-02-11-31-40.968722
243	1	2	5	244	stable	8	200	44	vs	turquoise	purple	purple	turquoise	right	left	0.30000000000000004	0.7	4	6	1.2000000000000002	4.199999999999998	0	1	0.7	0.30000000000000004	6	4	4.199999999999998	1.2000000000000002	valid	0.5165344559991354	51200	0	0	2	51200	1	51200	1	51200	1	0.7	51200	turquoise	purple	1	6	ml	2.7.2	bip	sub-01_ses-02_task-ml_proj-bip_2020-10-02-11-31-40.968722
244	1	2	5	245	stable	8	200	45	vs	turquoise	purple	purple	turquoise	right	left	0.30000000000000004	0.7	6	2	1.8000000000000005	1.4	1	0	0.7	0.30000000000000004	2	6	1.4	1.8000000000000005	invalid	0.3832423720014049	51200	0	0	2	53248	0	51200	1	53248	0	0.7	51200	turquoise	purple	0	0	ml	2.7.2	bip	sub-01_ses-02_task-ml_proj-bip_2020-10-02-11-31-40.968722
245	1	2	5	246	stable	8	200	46	vs	turquoise	purple	purple	turquoise	right	left	0.30000000000000004	0.7	6	2	1.8000000000000005	1.4	0	1	0.7	0.30000000000000004	2	6	1.4	1.8000000000000005	valid	0.4499013879994891	53248	0	1	1	53248	1	51200	0	53248	1	0.7	51200	turquoise	purple	0	0	ml	2.7.2	bip	sub-01_ses-02_task-ml_proj-bip_2020-10-02-11-31-40.968722
246	1	2	5	247	stable	8	200	47	vs	turquoise	purple	purple	turquoise	right	left	0.30000000000000004	0.7	10	2	3.0000000000000004	1.4	0	1	0.7	0.30000000000000004	2	10	1.4	3.0000000000000004	valid	1.4995852640004161	53248	0	1	1	53248	1	51200	0	53248	1	0.7	51200	turquoise	purple	0	0	ml	2.7.2	bip	sub-01_ses-02_task-ml_proj-bip_2020-10-02-11-31-40.968722
247	1	2	5	248	stable	8	200	48	vs	purple	turquoise	purple	turquoise	left	right	0.30000000000000004	0.7	2	10	0.6000000000000001	7.0	0	1	0.30000000000000004	0.7	2	10	0.6000000000000001	7.0	valid	0.5998550260010234	53248	0	1	2	53248	1	53248	1	53248	1	0.7	53248	turquoise	purple	1	10	ml	2.7.2	bip	sub-01_ses-02_task-ml_proj-bip_2020-10-02-11-31-40.968722
248	1	2	5	249	stable	8	200	49	vs	turquoise	purple	purple	turquoise	right	left	0.30000000000000004	0.7	2	4	0.6000000000000001	2.8	0	1	0.7	0.30000000000000004	4	2	2.8	0.6000000000000001	valid	0.3832241420004721	51200	0	0	2	51200	1	51200	1	51200	1	0.7	51200	turquoise	purple	1	4	ml	2.7.2	bip	sub-01_ses-02_task-ml_proj-bip_2020-10-02-11-31-40.968722
249	1	2	5	250	stable	8	200	50	vs	turquoise	purple	purple	turquoise	right	left	0.30000000000000004	0.7	6	6	1.8000000000000005	4.199999999999998	1	0	0.7	0.30000000000000004	6	6	4.199999999999998	1.8000000000000005	invalid	0.3665815830008796	51200	0	0	2	51200	1	51200	1	53248	0	0.7	51200	turquoise	purple	1	0	ml	2.7.2	bip	sub-01_ses-02_task-ml_proj-bip_2020-10-02-11-31-40.968722
250	1	2	6	251	stable	8	200	51	vs	turquoise	purple	purple	turquoise	right	left	0.30000000000000004	0.7	6	4	1.8000000000000005	2.8	0	1	0.7	0.30000000000000004	4	6	2.8	1.8000000000000005	valid	0.4998873459990136	53248	0	1	1	51200	0	51200	0	53248	1	0.7	51200	turquoise	purple	0	0	ml	2.7.2	bip	sub-01_ses-02_task-ml_proj-bip_2020-10-02-11-31-40.968722
251	1	2	6	252	stable	8	200	52	vs	purple	turquoise	purple	turquoise	left	right	0.30000000000000004	0.7	2	10	0.6000000000000001	7.0	0	1	0.30000000000000004	0.7	2	10	0.6000000000000001	7.0	valid	0.5165310110005521	53248	0	1	2	53248	1	53248	1	53248	1	0.7	53248	turquoise	purple	1	10	ml	2.7.2	bip	sub-01_ses-02_task-ml_proj-bip_2020-10-02-11-31-40.968722
252	1	2	6	253	stable	8	200	53	vs	turquoise	purple	purple	turquoise	right	left	0.30000000000000004	0.7	6	6	1.8000000000000005	4.199999999999998	1	0	0.7	0.30000000000000004	6	6	4.199999999999998	1.8000000000000005	invalid	0.34992326499923365	51200	0	0	2	51200	1	51200	1	53248	0	0.7	51200	turquoise	purple	1	0	ml	2.7.2	bip	sub-01_ses-02_task-ml_proj-bip_2020-10-02-11-31-40.968722
253	1	2	6	254	stable	8	200	54	vs	turquoise	purple	purple	turquoise	right	left	0.30000000000000004	0.7	4	6	1.2000000000000002	4.199999999999998	1	0	0.7	0.30000000000000004	6	4	4.199999999999998	1.2000000000000002	invalid	0.5331981769995764	51200	0	0	2	51200	1	51200	1	51200	1	0.7	51200	turquoise	purple	1	0	ml	2.7.2	bip	sub-01_ses-02_task-ml_proj-bip_2020-10-02-11-31-40.968722
254	1	2	6	255	stable	8	200	55	vs	purple	turquoise	purple	turquoise	left	right	0.30000000000000004	0.7	6	4	1.8000000000000005	2.8	0	1	0.30000000000000004	0.7	6	4	1.8000000000000005	2.8	valid	0.3332642589994066	51200	0	0	1	53248	0	53248	0	51200	1	0.7	53248	turquoise	purple	0	0	ml	2.7.2	bip	sub-01_ses-02_task-ml_proj-bip_2020-10-02-11-31-40.968722
255	1	2	6	256	stable	8	200	56	vs	turquoise	purple	purple	turquoise	right	left	0.30000000000000004	0.7	2	2	0.6000000000000001	1.4	0	1	0.7	0.30000000000000004	2	2	1.4	0.6000000000000001	valid	1.216326456999013	51200	0	0	2	51200	1	51200	1	53248	0	0.7	51200	turquoise	purple	1	2	ml	2.7.2	bip	sub-01_ses-02_task-ml_proj-bip_2020-10-02-11-31-40.968722
256	1	2	6	257	stable	8	200	57	vs	purple	turquoise	purple	turquoise	left	right	0.30000000000000004	0.7	6	4	1.8000000000000005	2.8	0	1	0.30000000000000004	0.7	6	4	1.8000000000000005	2.8	valid	0.41657838900027855	53248	0	1	2	53248	1	53248	1	51200	0	0.7	53248	turquoise	purple	0	4	ml	2.7.2	bip	sub-01_ses-02_task-ml_proj-bip_2020-10-02-11-31-40.968722
257	1	2	6	258	stable	8	200	58	vs	turquoise	purple	purple	turquoise	right	left	0.30000000000000004	0.7	2	6	0.6000000000000001	4.199999999999998	0	1	0.7	0.30000000000000004	6	2	4.199999999999998	0.6000000000000001	valid	0.3332596589989407	51200	0	0	2	51200	1	51200	1	51200	1	0.7	51200	turquoise	purple	1	6	ml	2.7.2	bip	sub-01_ses-02_task-ml_proj-bip_2020-10-02-11-31-40.968722
258	1	2	6	259	stable	8	200	59	vs	turquoise	purple	purple	turquoise	right	left	0.30000000000000004	0.7	2	10	0.6000000000000001	7.0	0	1	0.7	0.30000000000000004	10	2	7.0	0.6000000000000001	valid	0.39990495199890574	51200	0	0	2	51200	1	51200	1	51200	1	0.7	51200	turquoise	purple	1	10	ml	2.7.2	bip	sub-01_ses-02_task-ml_proj-bip_2020-10-02-11-31-40.968722
259	1	2	6	260	stable	8	200	60	vs	turquoise	purple	purple	turquoise	right	left	0.30000000000000004	0.7	2	6	0.6000000000000001	4.199999999999998	0	1	0.7	0.30000000000000004	6	2	4.199999999999998	0.6000000000000001	valid	0.3832354139995005	51200	0	0	2	51200	1	51200	1	51200	1	0.7	51200	turquoise	purple	1	6	ml	2.7.2	bip	sub-01_ses-02_task-ml_proj-bip_2020-10-02-11-31-40.968722
260	1	2	6	261	stable	8	200	61	vs	purple	turquoise	purple	turquoise	left	right	0.30000000000000004	0.7	2	2	0.6000000000000001	1.4	0	1	0.30000000000000004	0.7	2	2	0.6000000000000001	1.4	valid	0.4332265250013734	51200	0	0	1	53248	0	53248	0	53248	0	0.7	53248	turquoise	purple	0	0	ml	2.7.2	bip	sub-01_ses-02_task-ml_proj-bip_2020-10-02-11-31-40.968722
261	1	2	6	262	stable	8	200	62	vs	turquoise	purple	purple	turquoise	right	left	0.30000000000000004	0.7	2	4	0.6000000000000001	2.8	0	1	0.7	0.30000000000000004	4	2	2.8	0.6000000000000001	valid	0.6165137479983969	51200	0	0	2	51200	1	51200	1	51200	1	0.7	51200	turquoise	purple	1	4	ml	2.7.2	bip	sub-01_ses-02_task-ml_proj-bip_2020-10-02-11-31-40.968722
262	1	2	6	263	stable	8	200	63	vs	turquoise	purple	purple	turquoise	right	left	0.30000000000000004	0.7	4	6	1.2000000000000002	4.199999999999998	1	0	0.7	0.30000000000000004	6	4	4.199999999999998	1.2000000000000002	invalid	0.4332285130003584	51200	0	0	2	51200	1	51200	1	51200	1	0.7	51200	turquoise	purple	1	0	ml	2.7.2	bip	sub-01_ses-02_task-ml_proj-bip_2020-10-02-11-31-40.968722
263	1	2	6	264	stable	8	200	64	vs	turquoise	purple	purple	turquoise	right	left	0.30000000000000004	0.7	2	4	0.6000000000000001	2.8	0	1	0.7	0.30000000000000004	4	2	2.8	0.6000000000000001	valid	0.6998211490008543	51200	0	0	2	51200	1	51200	1	51200	1	0.7	51200	turquoise	purple	1	4	ml	2.7.2	bip	sub-01_ses-02_task-ml_proj-bip_2020-10-02-11-31-40.968722
264	1	2	6	265	stable	8	200	65	vs	turquoise	purple	purple	turquoise	right	left	0.30000000000000004	0.7	2	2	0.6000000000000001	1.4	1	0	0.7	0.30000000000000004	2	2	1.4	0.6000000000000001	invalid	0.3499190570000792	51200	0	0	2	51200	1	51200	1	53248	0	0.7	51200	turquoise	purple	1	0	ml	2.7.2	bip	sub-01_ses-02_task-ml_proj-bip_2020-10-02-11-31-40.968722
265	1	2	6	266	stable	8	200	66	vs	purple	turquoise	purple	turquoise	left	right	0.30000000000000004	0.7	2	4	0.6000000000000001	2.8	0	1	0.30000000000000004	0.7	2	4	0.6000000000000001	2.8	valid	0.5998563539997122	53248	0	1	2	53248	1	53248	1	53248	1	0.7	53248	turquoise	purple	1	4	ml	2.7.2	bip	sub-01_ses-02_task-ml_proj-bip_2020-10-02-11-31-40.968722
266	1	2	6	267	stable	8	200	67	vs	turquoise	purple	purple	turquoise	right	left	0.30000000000000004	0.7	4	2	1.2000000000000002	1.4	0	1	0.7	0.30000000000000004	2	4	1.4	1.2000000000000002	valid	0.3832406460005586	51200	0	0	2	51200	1	51200	1	53248	0	0.7	51200	turquoise	purple	0	2	ml	2.7.2	bip	sub-01_ses-02_task-ml_proj-bip_2020-10-02-11-31-40.968722
267	1	2	6	268	stable	8	200	68	vs	purple	turquoise	purple	turquoise	left	right	0.30000000000000004	0.7	6	6	1.8000000000000005	4.199999999999998	1	0	0.30000000000000004	0.7	6	6	1.8000000000000005	4.199999999999998	invalid	0.3665917959988292	53248	0	1	2	53248	1	53248	1	53248	1	0.7	53248	turquoise	purple	0	0	ml	2.7.2	bip	sub-01_ses-02_task-ml_proj-bip_2020-10-02-11-31-40.968722
268	1	2	6	269	stable	8	200	69	vs	purple	turquoise	purple	turquoise	left	right	0.30000000000000004	0.7	6	2	1.8000000000000005	1.4	0	1	0.30000000000000004	0.7	6	2	1.8000000000000005	1.4	valid	0.5498921030011843	51200	0	0	1	51200	1	53248	0	51200	1	0.7	53248	turquoise	purple	0	0	ml	2.7.2	bip	sub-01_ses-02_task-ml_proj-bip_2020-10-02-11-31-40.968722
269	1	2	6	270	stable	8	200	70	vs	turquoise	purple	purple	turquoise	right	left	0.30000000000000004	0.7	10	2	3.0000000000000004	1.4	1	0	0.7	0.30000000000000004	2	10	1.4	3.0000000000000004	invalid	0.3999045359996671	51200	0	0	2	53248	0	51200	1	53248	0	0.7	51200	turquoise	purple	0	0	ml	2.7.2	bip	sub-01_ses-02_task-ml_proj-bip_2020-10-02-11-31-40.968722
270	1	2	6	271	stable	8	200	71	vs	purple	turquoise	purple	turquoise	left	right	0.30000000000000004	0.7	6	2	1.8000000000000005	1.4	1	0	0.30000000000000004	0.7	6	2	1.8000000000000005	1.4	invalid	0.4665761919986835	53248	0	1	2	51200	0	53248	1	51200	0	0.7	53248	turquoise	purple	0	0	ml	2.7.2	bip	sub-01_ses-02_task-ml_proj-bip_2020-10-02-11-31-40.968722
271	1	2	6	272	stable	8	200	72	vs	turquoise	purple	purple	turquoise	right	left	0.30000000000000004	0.7	2	10	0.6000000000000001	7.0	0	1	0.7	0.30000000000000004	10	2	7.0	0.6000000000000001	valid	0.4332293150000624	51200	0	0	2	51200	1	51200	1	51200	1	0.7	51200	turquoise	purple	1	10	ml	2.7.2	bip	sub-01_ses-02_task-ml_proj-bip_2020-10-02-11-31-40.968722
272	1	2	6	273	stable	8	200	73	vs	purple	turquoise	purple	turquoise	left	right	0.30000000000000004	0.7	6	6	1.8000000000000005	4.199999999999998	0	1	0.30000000000000004	0.7	6	6	1.8000000000000005	4.199999999999998	valid	0.3832630630004133	53248	0	1	2	53248	1	53248	1	53248	1	0.7	53248	turquoise	purple	0	6	ml	2.7.2	bip	sub-01_ses-02_task-ml_proj-bip_2020-10-02-11-31-40.968722
273	1	2	6	274	stable	8	200	74	vs	turquoise	purple	purple	turquoise	right	left	0.30000000000000004	0.7	10	2	3.0000000000000004	1.4	0	1	0.7	0.30000000000000004	2	10	1.4	3.0000000000000004	valid	0.3832495040005597	51200	0	0	2	53248	0	51200	1	53248	0	0.7	51200	turquoise	purple	0	2	ml	2.7.2	bip	sub-01_ses-02_task-ml_proj-bip_2020-10-02-11-31-40.968722
274	1	2	6	275	stable	8	200	75	vs	purple	turquoise	purple	turquoise	left	right	0.30000000000000004	0.7	4	2	1.2000000000000002	1.4	0	1	0.30000000000000004	0.7	4	2	1.2000000000000002	1.4	valid	1.2163252919999652	53248	0	1	2	53248	1	53248	1	51200	0	0.7	53248	turquoise	purple	0	2	ml	2.7.2	bip	sub-01_ses-02_task-ml_proj-bip_2020-10-02-11-31-40.968722
275	1	2	6	276	stable	8	200	76	vs	purple	turquoise	purple	turquoise	left	right	0.30000000000000004	0.7	6	6	1.8000000000000005	4.199999999999998	0	1	0.30000000000000004	0.7	6	6	1.8000000000000005	4.199999999999998	valid	0.34993985400069505	53248	0	1	2	53248	1	53248	1	53248	1	0.7	53248	turquoise	purple	0	6	ml	2.7.2	bip	sub-01_ses-02_task-ml_proj-bip_2020-10-02-11-31-40.968722
276	1	2	6	277	stable	8	200	77	vs	turquoise	purple	purple	turquoise	right	left	0.30000000000000004	0.7	4	2	1.2000000000000002	1.4	0	1	0.7	0.30000000000000004	2	4	1.4	1.2000000000000002	valid	0.38324371700036863	51200	0	0	2	51200	1	51200	1	53248	0	0.7	51200	turquoise	purple	0	2	ml	2.7.2	bip	sub-01_ses-02_task-ml_proj-bip_2020-10-02-11-31-40.968722
277	1	2	6	278	stable	8	200	78	vs	turquoise	purple	purple	turquoise	right	left	0.30000000000000004	0.7	10	2	3.0000000000000004	1.4	0	1	0.7	0.30000000000000004	2	10	1.4	3.0000000000000004	valid	0.3832468999989942	51200	0	0	2	53248	0	51200	1	53248	0	0.7	51200	turquoise	purple	0	2	ml	2.7.2	bip	sub-01_ses-02_task-ml_proj-bip_2020-10-02-11-31-40.968722
278	1	2	6	279	stable	8	200	79	vs	purple	turquoise	purple	turquoise	left	right	0.30000000000000004	0.7	2	6	0.6000000000000001	4.199999999999998	0	1	0.30000000000000004	0.7	2	6	0.6000000000000001	4.199999999999998	valid	0.9330893419992208	53248	0	1	2	53248	1	53248	1	53248	1	0.7	53248	turquoise	purple	1	6	ml	2.7.2	bip	sub-01_ses-02_task-ml_proj-bip_2020-10-02-11-31-40.968722
