Unnamed: 0	sub_id	ses_id	block_no	trial_no	phase_type	phase_no	phase_length	trialInPhase_no	phase_type_order	color_left	color_right	color1	color2	position1	position2	prob1	prob2	mag1	mag2	ev1	ev2	outcome1	outcome2	prob_left	prob_right	mag_left	mag_right	ev_left	ev_right	reward_validity	resp_time	resp_key	timeout	choice_side	choice	ev_corr_resp	ev_correct	prob_corr_resp	prob_correct	mag_corr_resp	mag_correct	high_prob	high_prob_side	high_prob_color	low_prob_color	no_brain	reward	name	version	proj_id	logFileID
0	6	2	1	1	stable	1	200	1	sv	red	blue	blue	red	right	left	0.7	0.30000000000000004	6	6	4.199999999999998	1.8000000000000005	1	0	0.30000000000000004	0.7	6	6	1.8000000000000005	4.199999999999998	valid	0.5332050070001061	51200	0	0	2	53248	0	53248	0	53248	0	0.7	53248	blue	red	0	0	ml	2.7.3	bip	sub-06_ses-02_task-ml_proj-bip_2020-11-20-10-18-43.960205
1	6	2	1	2	stable	1	200	2	sv	blue	red	blue	red	left	right	0.7	0.30000000000000004	4	6	2.8	1.8000000000000005	0	1	0.7	0.30000000000000004	4	6	2.8	1.8000000000000005	invalid	0.4665637399994012	53248	0	1	2	51200	0	51200	0	53248	1	0.7	51200	blue	red	0	6	ml	2.7.3	bip	sub-06_ses-02_task-ml_proj-bip_2020-11-20-10-18-43.960205
2	6	2	1	3	stable	1	200	3	sv	red	blue	blue	red	right	left	0.7	0.30000000000000004	2	10	1.4	3.0000000000000004	0	1	0.30000000000000004	0.7	10	2	3.0000000000000004	1.4	invalid	0.3999108220004928	51200	0	0	2	51200	1	53248	0	51200	1	0.7	53248	blue	red	0	10	ml	2.7.3	bip	sub-06_ses-02_task-ml_proj-bip_2020-11-20-10-18-43.960205
3	6	2	1	4	stable	1	200	4	sv	blue	red	blue	red	left	right	0.7	0.30000000000000004	6	6	4.199999999999998	1.8000000000000005	1	0	0.7	0.30000000000000004	6	6	4.199999999999998	1.8000000000000005	valid	0.41658360800011	53248	0	1	2	51200	0	51200	0	53248	1	0.7	51200	blue	red	1	0	ml	2.7.3	bip	sub-06_ses-02_task-ml_proj-bip_2020-11-20-10-18-43.960205
4	6	2	1	5	stable	1	200	5	sv	blue	red	blue	red	left	right	0.7	0.30000000000000004	2	10	1.4	3.0000000000000004	1	0	0.7	0.30000000000000004	2	10	1.4	3.0000000000000004	valid	0.4499080240002513	53248	0	1	2	53248	1	51200	0	53248	1	0.7	51200	blue	red	0	0	ml	2.7.3	bip	sub-06_ses-02_task-ml_proj-bip_2020-11-20-10-18-43.960205
5	6	2	1	6	stable	1	200	6	sv	blue	red	blue	red	left	right	0.7	0.30000000000000004	2	10	1.4	3.0000000000000004	1	0	0.7	0.30000000000000004	2	10	1.4	3.0000000000000004	valid	0.39992514400000806	53248	0	1	2	53248	1	51200	0	53248	1	0.7	51200	blue	red	0	0	ml	2.7.3	bip	sub-06_ses-02_task-ml_proj-bip_2020-11-20-10-18-43.960205
6	6	2	1	7	stable	1	200	7	sv	red	blue	blue	red	right	left	0.7	0.30000000000000004	4	6	2.8	1.8000000000000005	1	0	0.30000000000000004	0.7	6	4	1.8000000000000005	2.8	valid	0.3832597189993976	53248	0	1	1	53248	1	53248	1	51200	0	0.7	53248	blue	red	0	4	ml	2.7.3	bip	sub-06_ses-02_task-ml_proj-bip_2020-11-20-10-18-43.960205
7	6	2	1	8	stable	1	200	8	sv	blue	red	blue	red	left	right	0.7	0.30000000000000004	4	6	2.8	1.8000000000000005	1	0	0.7	0.30000000000000004	4	6	2.8	1.8000000000000005	valid	0.3999118379997526	51200	0	0	1	51200	1	51200	1	53248	0	0.7	51200	blue	red	0	4	ml	2.7.3	bip	sub-06_ses-02_task-ml_proj-bip_2020-11-20-10-18-43.960205
8	6	2	1	9	stable	1	200	9	sv	red	blue	blue	red	right	left	0.7	0.30000000000000004	10	2	7.0	0.6000000000000001	1	0	0.30000000000000004	0.7	2	10	0.6000000000000001	7.0	valid	0.4332472349997261	53248	0	1	1	53248	1	53248	1	53248	1	0.7	53248	blue	red	1	10	ml	2.7.3	bip	sub-06_ses-02_task-ml_proj-bip_2020-11-20-10-18-43.960205
9	6	2	1	10	stable	1	200	10	sv	red	blue	blue	red	right	left	0.7	0.30000000000000004	2	2	1.4	0.6000000000000001	1	0	0.30000000000000004	0.7	2	2	0.6000000000000001	1.4	valid	0.3666000149996762	53248	0	1	1	53248	1	53248	1	53248	1	0.7	53248	blue	red	0	2	ml	2.7.3	bip	sub-06_ses-02_task-ml_proj-bip_2020-11-20-10-18-43.960205
10	6	2	1	11	stable	1	200	11	sv	red	blue	blue	red	right	left	0.7	0.30000000000000004	6	2	4.199999999999998	0.6000000000000001	1	0	0.30000000000000004	0.7	2	6	0.6000000000000001	4.199999999999998	valid	0.4832286139999269	53248	0	1	1	53248	1	53248	1	53248	1	0.7	53248	blue	red	1	6	ml	2.7.3	bip	sub-06_ses-02_task-ml_proj-bip_2020-11-20-10-18-43.960205
11	6	2	1	12	stable	1	200	12	sv	blue	red	blue	red	left	right	0.7	0.30000000000000004	2	2	1.4	0.6000000000000001	1	0	0.7	0.30000000000000004	2	2	1.4	0.6000000000000001	valid	0.4332347170002322	51200	0	0	1	51200	1	51200	1	53248	0	0.7	51200	blue	red	1	2	ml	2.7.3	bip	sub-06_ses-02_task-ml_proj-bip_2020-11-20-10-18-43.960205
12	6	2	1	13	stable	1	200	13	sv	red	blue	blue	red	right	left	0.7	0.30000000000000004	6	6	4.199999999999998	1.8000000000000005	1	0	0.30000000000000004	0.7	6	6	1.8000000000000005	4.199999999999998	valid	0.5165563830005341	53248	0	1	1	53248	1	53248	1	53248	1	0.7	53248	blue	red	0	6	ml	2.7.3	bip	sub-06_ses-02_task-ml_proj-bip_2020-11-20-10-18-43.960205
13	6	2	1	14	stable	1	200	14	sv	red	blue	blue	red	right	left	0.7	0.30000000000000004	2	2	1.4	0.6000000000000001	1	0	0.30000000000000004	0.7	2	2	0.6000000000000001	1.4	valid	0.433244341000318	53248	0	1	1	53248	1	53248	1	53248	1	0.7	53248	blue	red	0	2	ml	2.7.3	bip	sub-06_ses-02_task-ml_proj-bip_2020-11-20-10-18-43.960205
14	6	2	1	15	stable	1	200	15	sv	blue	red	blue	red	left	right	0.7	0.30000000000000004	10	2	7.0	0.6000000000000001	1	0	0.7	0.30000000000000004	10	2	7.0	0.6000000000000001	valid	0.3999122719997104	51200	0	0	1	51200	1	51200	1	51200	1	0.7	51200	blue	red	1	10	ml	2.7.3	bip	sub-06_ses-02_task-ml_proj-bip_2020-11-20-10-18-43.960205
15	6	2	1	16	stable	1	200	16	sv	red	blue	blue	red	right	left	0.7	0.30000000000000004	4	6	2.8	1.8000000000000005	1	0	0.30000000000000004	0.7	6	4	1.8000000000000005	2.8	valid	0.5498783979992368	53248	0	1	1	53248	1	53248	1	51200	0	0.7	53248	blue	red	0	4	ml	2.7.3	bip	sub-06_ses-02_task-ml_proj-bip_2020-11-20-10-18-43.960205
16	6	2	1	17	stable	1	200	17	sv	red	blue	blue	red	right	left	0.7	0.30000000000000004	4	2	2.8	0.6000000000000001	0	1	0.30000000000000004	0.7	2	4	0.6000000000000001	2.8	invalid	0.5165553280003223	53248	0	1	1	53248	1	53248	1	53248	1	0.7	53248	blue	red	1	0	ml	2.7.3	bip	sub-06_ses-02_task-ml_proj-bip_2020-11-20-10-18-43.960205
17	6	2	1	18	stable	1	200	18	sv	blue	red	blue	red	left	right	0.7	0.30000000000000004	4	6	2.8	1.8000000000000005	1	0	0.7	0.30000000000000004	4	6	2.8	1.8000000000000005	valid	0.4332286870003372	51200	0	0	1	51200	1	51200	1	53248	0	0.7	51200	blue	red	0	4	ml	2.7.3	bip	sub-06_ses-02_task-ml_proj-bip_2020-11-20-10-18-43.960205
18	6	2	1	19	stable	1	200	19	sv	red	blue	blue	red	right	left	0.7	0.30000000000000004	4	2	2.8	0.6000000000000001	1	0	0.30000000000000004	0.7	2	4	0.6000000000000001	2.8	valid	0.4332484830001704	53248	0	1	1	53248	1	53248	1	53248	1	0.7	53248	blue	red	1	4	ml	2.7.3	bip	sub-06_ses-02_task-ml_proj-bip_2020-11-20-10-18-43.960205
19	6	2	1	20	stable	1	200	20	sv	red	blue	blue	red	right	left	0.7	0.30000000000000004	2	2	1.4	0.6000000000000001	1	0	0.30000000000000004	0.7	2	2	0.6000000000000001	1.4	valid	0.4499074189998282	53248	0	1	1	53248	1	53248	1	53248	1	0.7	53248	blue	red	0	2	ml	2.7.3	bip	sub-06_ses-02_task-ml_proj-bip_2020-11-20-10-18-43.960205
20	6	2	1	21	stable	1	200	21	sv	blue	red	blue	red	left	right	0.7	0.30000000000000004	2	2	1.4	0.6000000000000001	1	0	0.7	0.30000000000000004	2	2	1.4	0.6000000000000001	valid	0.4998897229997965	51200	0	0	1	51200	1	51200	1	53248	0	0.7	51200	blue	red	1	2	ml	2.7.3	bip	sub-06_ses-02_task-ml_proj-bip_2020-11-20-10-18-43.960205
21	6	2	1	22	stable	1	200	22	sv	blue	red	blue	red	left	right	0.7	0.30000000000000004	6	4	4.199999999999998	1.2000000000000002	0	1	0.7	0.30000000000000004	6	4	4.199999999999998	1.2000000000000002	invalid	0.5998540649998176	51200	0	0	1	51200	1	51200	1	51200	1	0.7	51200	blue	red	1	0	ml	2.7.3	bip	sub-06_ses-02_task-ml_proj-bip_2020-11-20-10-18-43.960205
22	6	2	1	23	stable	1	200	23	sv	red	blue	blue	red	right	left	0.7	0.30000000000000004	2	2	1.4	0.6000000000000001	1	0	0.30000000000000004	0.7	2	2	0.6000000000000001	1.4	valid	0.4165906640000685	53248	0	1	1	53248	1	53248	1	53248	1	0.7	53248	blue	red	0	2	ml	2.7.3	bip	sub-06_ses-02_task-ml_proj-bip_2020-11-20-10-18-43.960205
23	6	2	1	24	stable	1	200	24	sv	red	blue	blue	red	right	left	0.7	0.30000000000000004	6	6	4.199999999999998	1.8000000000000005	0	1	0.30000000000000004	0.7	6	6	1.8000000000000005	4.199999999999998	invalid	0.5665360429993598	53248	0	1	1	53248	1	53248	1	53248	1	0.7	53248	blue	red	0	0	ml	2.7.3	bip	sub-06_ses-02_task-ml_proj-bip_2020-11-20-10-18-43.960205
24	6	2	1	25	stable	1	200	25	sv	red	blue	blue	red	right	left	0.7	0.30000000000000004	6	2	4.199999999999998	0.6000000000000001	0	1	0.30000000000000004	0.7	2	6	0.6000000000000001	4.199999999999998	invalid	0.4165847419999409	53248	0	1	1	53248	1	53248	1	53248	1	0.7	53248	blue	red	1	0	ml	2.7.3	bip	sub-06_ses-02_task-ml_proj-bip_2020-11-20-10-18-43.960205
25	6	2	1	26	stable	1	200	26	sv	blue	red	blue	red	left	right	0.7	0.30000000000000004	4	6	2.8	1.8000000000000005	1	0	0.7	0.30000000000000004	4	6	2.8	1.8000000000000005	valid	0.4165728300004048	51200	0	0	1	51200	1	51200	1	53248	0	0.7	51200	blue	red	0	4	ml	2.7.3	bip	sub-06_ses-02_task-ml_proj-bip_2020-11-20-10-18-43.960205
26	6	2	1	27	stable	1	200	27	sv	red	blue	blue	red	right	left	0.7	0.30000000000000004	2	4	1.4	1.2000000000000002	0	1	0.30000000000000004	0.7	4	2	1.2000000000000002	1.4	invalid	0.4665682489994651	53248	0	1	1	53248	1	53248	1	51200	0	0.7	53248	blue	red	0	0	ml	2.7.3	bip	sub-06_ses-02_task-ml_proj-bip_2020-11-20-10-18-43.960205
27	6	2	1	28	stable	1	200	28	sv	blue	red	blue	red	left	right	0.7	0.30000000000000004	2	2	1.4	0.6000000000000001	1	0	0.7	0.30000000000000004	2	2	1.4	0.6000000000000001	valid	0.3832626700004767	53248	0	1	2	51200	0	51200	0	53248	1	0.7	51200	blue	red	1	0	ml	2.7.3	bip	sub-06_ses-02_task-ml_proj-bip_2020-11-20-10-18-43.960205
28	6	2	1	29	stable	1	200	29	sv	blue	red	blue	red	left	right	0.7	0.30000000000000004	4	6	2.8	1.8000000000000005	1	0	0.7	0.30000000000000004	4	6	2.8	1.8000000000000005	valid	0.3832598429999052	53248	0	1	2	51200	0	51200	0	53248	1	0.7	51200	blue	red	0	0	ml	2.7.3	bip	sub-06_ses-02_task-ml_proj-bip_2020-11-20-10-18-43.960205
29	6	2	1	30	stable	1	200	30	sv	blue	red	blue	red	left	right	0.7	0.30000000000000004	2	10	1.4	3.0000000000000004	1	0	0.7	0.30000000000000004	2	10	1.4	3.0000000000000004	valid	0.41658301600000414	53248	0	1	2	53248	1	51200	0	53248	1	0.7	51200	blue	red	0	0	ml	2.7.3	bip	sub-06_ses-02_task-ml_proj-bip_2020-11-20-10-18-43.960205
30	6	2	1	31	stable	1	200	31	sv	blue	red	blue	red	left	right	0.7	0.30000000000000004	4	2	2.8	0.6000000000000001	1	0	0.7	0.30000000000000004	4	2	2.8	0.6000000000000001	valid	0.4832187250012794	51200	0	0	1	51200	1	51200	1	51200	1	0.7	51200	blue	red	1	4	ml	2.7.3	bip	sub-06_ses-02_task-ml_proj-bip_2020-11-20-10-18-43.960205
31	6	2	1	32	stable	1	200	32	sv	red	blue	blue	red	right	left	0.7	0.30000000000000004	10	2	7.0	0.6000000000000001	1	0	0.30000000000000004	0.7	2	10	0.6000000000000001	7.0	valid	0.3999228209995636	53248	0	1	1	53248	1	53248	1	53248	1	0.7	53248	blue	red	1	10	ml	2.7.3	bip	sub-06_ses-02_task-ml_proj-bip_2020-11-20-10-18-43.960205
32	6	2	1	33	stable	1	200	33	sv	blue	red	blue	red	left	right	0.7	0.30000000000000004	6	4	4.199999999999998	1.2000000000000002	1	0	0.7	0.30000000000000004	6	4	4.199999999999998	1.2000000000000002	valid	0.39991193099922384	51200	0	0	1	51200	1	51200	1	51200	1	0.7	51200	blue	red	1	6	ml	2.7.3	bip	sub-06_ses-02_task-ml_proj-bip_2020-11-20-10-18-43.960205
33	6	2	1	34	stable	1	200	34	sv	red	blue	blue	red	right	left	0.7	0.30000000000000004	2	4	1.4	1.2000000000000002	1	0	0.30000000000000004	0.7	4	2	1.2000000000000002	1.4	valid	0.4998940059995221	53248	0	1	1	53248	1	53248	1	51200	0	0.7	53248	blue	red	0	2	ml	2.7.3	bip	sub-06_ses-02_task-ml_proj-bip_2020-11-20-10-18-43.960205
34	6	2	1	35	stable	1	200	35	sv	red	blue	blue	red	right	left	0.7	0.30000000000000004	2	6	1.4	1.8000000000000005	1	0	0.30000000000000004	0.7	6	2	1.8000000000000005	1.4	valid	0.4165848319989891	53248	0	1	1	51200	0	53248	1	51200	0	0.7	53248	blue	red	0	2	ml	2.7.3	bip	sub-06_ses-02_task-ml_proj-bip_2020-11-20-10-18-43.960205
35	6	2	1	36	stable	1	200	36	sv	blue	red	blue	red	left	right	0.7	0.30000000000000004	4	6	2.8	1.8000000000000005	1	0	0.7	0.30000000000000004	4	6	2.8	1.8000000000000005	valid	0.4165738069987128	51200	0	0	1	51200	1	51200	1	53248	0	0.7	51200	blue	red	0	4	ml	2.7.3	bip	sub-06_ses-02_task-ml_proj-bip_2020-11-20-10-18-43.960205
36	6	2	1	37	stable	1	200	37	sv	red	blue	blue	red	right	left	0.7	0.30000000000000004	4	2	2.8	0.6000000000000001	0	1	0.30000000000000004	0.7	2	4	0.6000000000000001	2.8	invalid	0.44990932600012457	53248	0	1	1	53248	1	53248	1	53248	1	0.7	53248	blue	red	1	0	ml	2.7.3	bip	sub-06_ses-02_task-ml_proj-bip_2020-11-20-10-18-43.960205
37	6	2	1	38	stable	1	200	38	sv	blue	red	blue	red	left	right	0.7	0.30000000000000004	2	6	1.4	1.8000000000000005	1	0	0.7	0.30000000000000004	2	6	1.4	1.8000000000000005	valid	0.44989776900001743	51200	0	0	1	53248	0	51200	1	53248	0	0.7	51200	blue	red	0	2	ml	2.7.3	bip	sub-06_ses-02_task-ml_proj-bip_2020-11-20-10-18-43.960205
38	6	2	1	39	stable	1	200	39	sv	red	blue	blue	red	right	left	0.7	0.30000000000000004	4	6	2.8	1.8000000000000005	1	0	0.30000000000000004	0.7	6	4	1.8000000000000005	2.8	valid	0.41658618899964495	53248	0	1	1	53248	1	53248	1	51200	0	0.7	53248	blue	red	0	4	ml	2.7.3	bip	sub-06_ses-02_task-ml_proj-bip_2020-11-20-10-18-43.960205
39	6	2	1	40	stable	1	200	40	sv	red	blue	blue	red	right	left	0.7	0.30000000000000004	4	2	2.8	0.6000000000000001	1	0	0.30000000000000004	0.7	2	4	0.6000000000000001	2.8	valid	0.5165538929995819	53248	0	1	1	53248	1	53248	1	53248	1	0.7	53248	blue	red	1	4	ml	2.7.3	bip	sub-06_ses-02_task-ml_proj-bip_2020-11-20-10-18-43.960205
40	6	2	1	41	stable	1	200	41	sv	red	blue	blue	red	right	left	0.7	0.30000000000000004	4	2	2.8	0.6000000000000001	1	0	0.30000000000000004	0.7	2	4	0.6000000000000001	2.8	valid	0.5165537299999414	53248	0	1	1	53248	1	53248	1	53248	1	0.7	53248	blue	red	1	4	ml	2.7.3	bip	sub-06_ses-02_task-ml_proj-bip_2020-11-20-10-18-43.960205
41	6	2	1	42	stable	1	200	42	sv	blue	red	blue	red	left	right	0.7	0.30000000000000004	6	6	4.199999999999998	1.8000000000000005	0	1	0.7	0.30000000000000004	6	6	4.199999999999998	1.8000000000000005	invalid	0.43323196199889935	51200	0	0	1	51200	1	51200	1	53248	0	0.7	51200	blue	red	1	0	ml	2.7.3	bip	sub-06_ses-02_task-ml_proj-bip_2020-11-20-10-18-43.960205
42	6	2	1	43	stable	1	200	43	sv	red	blue	blue	red	right	left	0.7	0.30000000000000004	6	4	4.199999999999998	1.2000000000000002	1	0	0.30000000000000004	0.7	4	6	1.2000000000000002	4.199999999999998	valid	0.4165808539983118	53248	0	1	1	53248	1	53248	1	53248	1	0.7	53248	blue	red	1	6	ml	2.7.3	bip	sub-06_ses-02_task-ml_proj-bip_2020-11-20-10-18-43.960205
43	6	2	1	44	stable	1	200	44	sv	red	blue	blue	red	right	left	0.7	0.30000000000000004	4	6	2.8	1.8000000000000005	1	0	0.30000000000000004	0.7	6	4	1.8000000000000005	2.8	valid	0.5332148750003398	53248	0	1	1	53248	1	53248	1	51200	0	0.7	53248	blue	red	0	4	ml	2.7.3	bip	sub-06_ses-02_task-ml_proj-bip_2020-11-20-10-18-43.960205
44	6	2	1	45	stable	1	200	45	sv	red	blue	blue	red	right	left	0.7	0.30000000000000004	10	2	7.0	0.6000000000000001	1	0	0.30000000000000004	0.7	2	10	0.6000000000000001	7.0	valid	0.4165847180011042	53248	0	1	1	53248	1	53248	1	53248	1	0.7	53248	blue	red	1	10	ml	2.7.3	bip	sub-06_ses-02_task-ml_proj-bip_2020-11-20-10-18-43.960205
45	6	2	1	46	stable	1	200	46	sv	red	blue	blue	red	right	left	0.7	0.30000000000000004	10	2	7.0	0.6000000000000001	0	1	0.30000000000000004	0.7	2	10	0.6000000000000001	7.0	invalid	0.4499059190002299	53248	0	1	1	53248	1	53248	1	53248	1	0.7	53248	blue	red	1	0	ml	2.7.3	bip	sub-06_ses-02_task-ml_proj-bip_2020-11-20-10-18-43.960205
46	6	2	1	47	stable	1	200	47	sv	blue	red	blue	red	left	right	0.7	0.30000000000000004	4	6	2.8	1.8000000000000005	1	0	0.7	0.30000000000000004	4	6	2.8	1.8000000000000005	valid	0.633175195000149	51200	0	0	1	51200	1	51200	1	53248	0	0.7	51200	blue	red	0	4	ml	2.7.3	bip	sub-06_ses-02_task-ml_proj-bip_2020-11-20-10-18-43.960205
47	6	2	1	48	stable	1	200	48	sv	blue	red	blue	red	left	right	0.7	0.30000000000000004	10	2	7.0	0.6000000000000001	0	1	0.7	0.30000000000000004	10	2	7.0	0.6000000000000001	invalid	0.5165452979999827	51200	0	0	1	51200	1	51200	1	51200	1	0.7	51200	blue	red	1	0	ml	2.7.3	bip	sub-06_ses-02_task-ml_proj-bip_2020-11-20-10-18-43.960205
48	6	2	1	49	stable	1	200	49	sv	red	blue	blue	red	right	left	0.7	0.30000000000000004	2	6	1.4	1.8000000000000005	0	1	0.30000000000000004	0.7	6	2	1.8000000000000005	1.4	invalid	0.4499079609995533	53248	0	1	1	51200	0	53248	1	51200	0	0.7	53248	blue	red	0	0	ml	2.7.3	bip	sub-06_ses-02_task-ml_proj-bip_2020-11-20-10-18-43.960205
49	6	2	1	50	stable	1	200	50	sv	blue	red	blue	red	left	right	0.7	0.30000000000000004	6	6	4.199999999999998	1.8000000000000005	1	0	0.7	0.30000000000000004	6	6	4.199999999999998	1.8000000000000005	valid	0.5332054430000426	51200	0	0	1	51200	1	51200	1	53248	0	0.7	51200	blue	red	1	6	ml	2.7.3	bip	sub-06_ses-02_task-ml_proj-bip_2020-11-20-10-18-43.960205
50	6	2	2	51	stable	1	200	51	sv	red	blue	blue	red	right	left	0.7	0.30000000000000004	6	2	4.199999999999998	0.6000000000000001	1	0	0.30000000000000004	0.7	2	6	0.6000000000000001	4.199999999999998	valid	0.5165548610002588	53248	0	1	1	53248	1	53248	1	53248	1	0.7	53248	blue	red	1	6	ml	2.7.3	bip	sub-06_ses-02_task-ml_proj-bip_2020-11-20-10-18-43.960205
51	6	2	2	52	stable	1	200	52	sv	blue	red	blue	red	left	right	0.7	0.30000000000000004	6	6	4.199999999999998	1.8000000000000005	1	0	0.7	0.30000000000000004	6	6	4.199999999999998	1.8000000000000005	valid	0.4498972179990233	51200	0	0	1	51200	1	51200	1	53248	0	0.7	51200	blue	red	1	6	ml	2.7.3	bip	sub-06_ses-02_task-ml_proj-bip_2020-11-20-10-18-43.960205
52	6	2	2	53	stable	1	200	53	sv	red	blue	blue	red	right	left	0.7	0.30000000000000004	2	6	1.4	1.8000000000000005	0	1	0.30000000000000004	0.7	6	2	1.8000000000000005	1.4	invalid	0.4998878850001347	53248	0	1	1	51200	0	53248	1	51200	0	0.7	53248	blue	red	0	0	ml	2.7.3	bip	sub-06_ses-02_task-ml_proj-bip_2020-11-20-10-18-43.960205
53	6	2	2	54	stable	1	200	54	sv	blue	red	blue	red	left	right	0.7	0.30000000000000004	4	6	2.8	1.8000000000000005	1	0	0.7	0.30000000000000004	4	6	2.8	1.8000000000000005	valid	0.5332077590010158	51200	0	0	1	51200	1	51200	1	53248	0	0.7	51200	blue	red	0	4	ml	2.7.3	bip	sub-06_ses-02_task-ml_proj-bip_2020-11-20-10-18-43.960205
54	6	2	2	55	stable	1	200	55	sv	blue	red	blue	red	left	right	0.7	0.30000000000000004	6	2	4.199999999999998	0.6000000000000001	1	0	0.7	0.30000000000000004	6	2	4.199999999999998	0.6000000000000001	valid	0.4165721469998971	51200	0	0	1	51200	1	51200	1	51200	1	0.7	51200	blue	red	1	6	ml	2.7.3	bip	sub-06_ses-02_task-ml_proj-bip_2020-11-20-10-18-43.960205
55	6	2	2	56	stable	1	200	56	sv	red	blue	blue	red	right	left	0.7	0.30000000000000004	10	2	7.0	0.6000000000000001	0	1	0.30000000000000004	0.7	2	10	0.6000000000000001	7.0	invalid	0.4332509520008898	53248	0	1	1	53248	1	53248	1	53248	1	0.7	53248	blue	red	1	0	ml	2.7.3	bip	sub-06_ses-02_task-ml_proj-bip_2020-11-20-10-18-43.960205
56	6	2	2	57	stable	1	200	57	sv	blue	red	blue	red	left	right	0.7	0.30000000000000004	2	6	1.4	1.8000000000000005	1	0	0.7	0.30000000000000004	2	6	1.4	1.8000000000000005	valid	0.4832182919999468	51200	0	0	1	53248	0	51200	1	53248	0	0.7	51200	blue	red	0	2	ml	2.7.3	bip	sub-06_ses-02_task-ml_proj-bip_2020-11-20-10-18-43.960205
57	6	2	2	58	stable	1	200	58	sv	red	blue	blue	red	right	left	0.7	0.30000000000000004	2	2	1.4	0.6000000000000001	1	0	0.30000000000000004	0.7	2	2	0.6000000000000001	1.4	valid	0.4665677400007553	53248	0	1	1	53248	1	53248	1	53248	1	0.7	53248	blue	red	0	2	ml	2.7.3	bip	sub-06_ses-02_task-ml_proj-bip_2020-11-20-10-18-43.960205
58	6	2	2	59	stable	1	200	59	sv	blue	red	blue	red	left	right	0.7	0.30000000000000004	4	2	2.8	0.6000000000000001	1	0	0.7	0.30000000000000004	4	2	2.8	0.6000000000000001	valid	0.5332055400012905	51200	0	0	1	51200	1	51200	1	51200	1	0.7	51200	blue	red	1	4	ml	2.7.3	bip	sub-06_ses-02_task-ml_proj-bip_2020-11-20-10-18-43.960205
59	6	2	2	60	stable	1	200	60	sv	red	blue	blue	red	right	left	0.7	0.30000000000000004	2	10	1.4	3.0000000000000004	0	1	0.30000000000000004	0.7	10	2	3.0000000000000004	1.4	invalid	0.4332512159999169	53248	0	1	1	51200	0	53248	1	51200	0	0.7	53248	blue	red	0	0	ml	2.7.3	bip	sub-06_ses-02_task-ml_proj-bip_2020-11-20-10-18-43.960205
60	6	2	2	61	stable	1	200	61	sv	blue	red	blue	red	left	right	0.7	0.30000000000000004	6	4	4.199999999999998	1.2000000000000002	1	0	0.7	0.30000000000000004	6	4	4.199999999999998	1.2000000000000002	valid	0.5498649860001024	51200	0	0	1	51200	1	51200	1	51200	1	0.7	51200	blue	red	1	6	ml	2.7.3	bip	sub-06_ses-02_task-ml_proj-bip_2020-11-20-10-18-43.960205
61	6	2	2	62	stable	1	200	62	sv	red	blue	blue	red	right	left	0.7	0.30000000000000004	6	6	4.199999999999998	1.8000000000000005	1	0	0.30000000000000004	0.7	6	6	1.8000000000000005	4.199999999999998	valid	0.3999195590004092	53248	0	1	1	53248	1	53248	1	53248	1	0.7	53248	blue	red	0	6	ml	2.7.3	bip	sub-06_ses-02_task-ml_proj-bip_2020-11-20-10-18-43.960205
62	6	2	2	63	stable	1	200	63	sv	red	blue	blue	red	right	left	0.7	0.30000000000000004	2	4	1.4	1.2000000000000002	0	1	0.30000000000000004	0.7	4	2	1.2000000000000002	1.4	invalid	0.4499044779986434	53248	0	1	1	53248	1	53248	1	51200	0	0.7	53248	blue	red	0	0	ml	2.7.3	bip	sub-06_ses-02_task-ml_proj-bip_2020-11-20-10-18-43.960205
63	6	2	2	64	stable	1	200	64	sv	blue	red	blue	red	left	right	0.7	0.30000000000000004	2	10	1.4	3.0000000000000004	1	0	0.7	0.30000000000000004	2	10	1.4	3.0000000000000004	valid	0.4832206770006451	51200	0	0	1	53248	0	51200	1	53248	0	0.7	51200	blue	red	0	2	ml	2.7.3	bip	sub-06_ses-02_task-ml_proj-bip_2020-11-20-10-18-43.960205
64	6	2	2	65	stable	1	200	65	sv	red	blue	blue	red	right	left	0.7	0.30000000000000004	2	10	1.4	3.0000000000000004	1	0	0.30000000000000004	0.7	10	2	3.0000000000000004	1.4	valid	0.7664713479989587	51200	0	0	2	51200	1	53248	0	51200	1	0.7	53248	blue	red	0	0	ml	2.7.3	bip	sub-06_ses-02_task-ml_proj-bip_2020-11-20-10-18-43.960205
65	6	2	2	66	stable	1	200	66	sv	red	blue	blue	red	right	left	0.7	0.30000000000000004	2	2	1.4	0.6000000000000001	1	0	0.30000000000000004	0.7	2	2	0.6000000000000001	1.4	valid	0.9497625619987956	53248	0	1	1	53248	1	53248	1	53248	1	0.7	53248	blue	red	0	2	ml	2.7.3	bip	sub-06_ses-02_task-ml_proj-bip_2020-11-20-10-18-43.960205
66	6	2	2	67	stable	1	200	67	sv	blue	red	blue	red	left	right	0.7	0.30000000000000004	6	2	4.199999999999998	0.6000000000000001	0	1	0.7	0.30000000000000004	6	2	4.199999999999998	0.6000000000000001	invalid	0.4665560289995483	51200	0	0	1	51200	1	51200	1	51200	1	0.7	51200	blue	red	1	0	ml	2.7.3	bip	sub-06_ses-02_task-ml_proj-bip_2020-11-20-10-18-43.960205
67	6	2	2	68	stable	1	200	68	sv	red	blue	blue	red	right	left	0.7	0.30000000000000004	2	4	1.4	1.2000000000000002	1	0	0.30000000000000004	0.7	4	2	1.2000000000000002	1.4	valid	0.4165786529993056	53248	0	1	1	53248	1	53248	1	51200	0	0.7	53248	blue	red	0	2	ml	2.7.3	bip	sub-06_ses-02_task-ml_proj-bip_2020-11-20-10-18-43.960205
68	6	2	2	69	stable	1	200	69	sv	blue	red	blue	red	left	right	0.7	0.30000000000000004	2	4	1.4	1.2000000000000002	1	0	0.7	0.30000000000000004	2	4	1.4	1.2000000000000002	valid	0.4498956569987058	51200	0	0	1	51200	1	51200	1	53248	0	0.7	51200	blue	red	0	2	ml	2.7.3	bip	sub-06_ses-02_task-ml_proj-bip_2020-11-20-10-18-43.960205
69	6	2	2	70	stable	1	200	70	sv	red	blue	blue	red	right	left	0.7	0.30000000000000004	2	4	1.4	1.2000000000000002	1	0	0.30000000000000004	0.7	4	2	1.2000000000000002	1.4	valid	0.5332188510001288	53248	0	1	1	53248	1	53248	1	51200	0	0.7	53248	blue	red	0	2	ml	2.7.3	bip	sub-06_ses-02_task-ml_proj-bip_2020-11-20-10-18-43.960205
70	6	2	2	71	stable	1	200	71	sv	red	blue	blue	red	right	left	0.7	0.30000000000000004	4	6	2.8	1.8000000000000005	0	1	0.30000000000000004	0.7	6	4	1.8000000000000005	2.8	invalid	0.5165537699995184	53248	0	1	1	53248	1	53248	1	51200	0	0.7	53248	blue	red	0	0	ml	2.7.3	bip	sub-06_ses-02_task-ml_proj-bip_2020-11-20-10-18-43.960205
71	6	2	2	72	stable	1	200	72	sv	red	blue	blue	red	right	left	0.7	0.30000000000000004	6	2	4.199999999999998	0.6000000000000001	1	0	0.30000000000000004	0.7	2	6	0.6000000000000001	4.199999999999998	valid	0.449914381999406	53248	0	1	1	53248	1	53248	1	53248	1	0.7	53248	blue	red	1	6	ml	2.7.3	bip	sub-06_ses-02_task-ml_proj-bip_2020-11-20-10-18-43.960205
72	6	2	2	73	stable	1	200	73	sv	blue	red	blue	red	left	right	0.7	0.30000000000000004	2	4	1.4	1.2000000000000002	1	0	0.7	0.30000000000000004	2	4	1.4	1.2000000000000002	valid	0.44989624099980574	51200	0	0	1	51200	1	51200	1	53248	0	0.7	51200	blue	red	0	2	ml	2.7.3	bip	sub-06_ses-02_task-ml_proj-bip_2020-11-20-10-18-43.960205
73	6	2	2	74	stable	1	200	74	sv	blue	red	blue	red	left	right	0.7	0.30000000000000004	2	6	1.4	1.8000000000000005	1	0	0.7	0.30000000000000004	2	6	1.4	1.8000000000000005	valid	0.5665243200000987	51200	0	0	1	53248	0	51200	1	53248	0	0.7	51200	blue	red	0	2	ml	2.7.3	bip	sub-06_ses-02_task-ml_proj-bip_2020-11-20-10-18-43.960205
74	6	2	2	75	stable	1	200	75	sv	blue	red	blue	red	left	right	0.7	0.30000000000000004	10	2	7.0	0.6000000000000001	1	0	0.7	0.30000000000000004	10	2	7.0	0.6000000000000001	valid	0.4832232039989322	51200	0	0	1	51200	1	51200	1	51200	1	0.7	51200	blue	red	1	10	ml	2.7.3	bip	sub-06_ses-02_task-ml_proj-bip_2020-11-20-10-18-43.960205
75	6	2	2	76	stable	1	200	76	sv	red	blue	blue	red	right	left	0.7	0.30000000000000004	4	6	2.8	1.8000000000000005	1	0	0.30000000000000004	0.7	6	4	1.8000000000000005	2.8	valid	0.33327372600069793	53248	0	1	1	53248	1	53248	1	51200	0	0.7	53248	blue	red	0	4	ml	2.7.3	bip	sub-06_ses-02_task-ml_proj-bip_2020-11-20-10-18-43.960205
76	6	2	2	77	stable	1	200	77	sv	blue	red	blue	red	left	right	0.7	0.30000000000000004	6	4	4.199999999999998	1.2000000000000002	0	1	0.7	0.30000000000000004	6	4	4.199999999999998	1.2000000000000002	invalid	0.5665289270000358	51200	0	0	1	51200	1	51200	1	51200	1	0.7	51200	blue	red	1	0	ml	2.7.3	bip	sub-06_ses-02_task-ml_proj-bip_2020-11-20-10-18-43.960205
77	6	2	2	78	stable	1	200	78	sv	red	blue	blue	red	right	left	0.7	0.30000000000000004	2	4	1.4	1.2000000000000002	1	0	0.30000000000000004	0.7	4	2	1.2000000000000002	1.4	valid	0.4832400270006474	53248	0	1	1	53248	1	53248	1	51200	0	0.7	53248	blue	red	0	2	ml	2.7.3	bip	sub-06_ses-02_task-ml_proj-bip_2020-11-20-10-18-43.960205
78	6	2	2	79	stable	1	200	79	sv	red	blue	blue	red	right	left	0.7	0.30000000000000004	6	6	4.199999999999998	1.8000000000000005	1	0	0.30000000000000004	0.7	6	6	1.8000000000000005	4.199999999999998	valid	0.4998902370007272	53248	0	1	1	53248	1	53248	1	53248	1	0.7	53248	blue	red	0	6	ml	2.7.3	bip	sub-06_ses-02_task-ml_proj-bip_2020-11-20-10-18-43.960205
79	6	2	2	80	stable	1	200	80	sv	blue	red	blue	red	left	right	0.7	0.30000000000000004	4	2	2.8	0.6000000000000001	1	0	0.7	0.30000000000000004	4	2	2.8	0.6000000000000001	valid	0.6331775380003819	51200	0	0	1	51200	1	51200	1	51200	1	0.7	51200	blue	red	1	4	ml	2.7.3	bip	sub-06_ses-02_task-ml_proj-bip_2020-11-20-10-18-43.960205
80	6	2	2	81	stable	1	200	81	sv	red	blue	blue	red	right	left	0.7	0.30000000000000004	2	2	1.4	0.6000000000000001	1	0	0.30000000000000004	0.7	2	2	0.6000000000000001	1.4	valid	0.9164328059996478	53248	0	1	1	53248	1	53248	1	53248	1	0.7	53248	blue	red	0	2	ml	2.7.3	bip	sub-06_ses-02_task-ml_proj-bip_2020-11-20-10-18-43.960205
81	6	2	2	82	stable	1	200	82	sv	red	blue	blue	red	right	left	0.7	0.30000000000000004	10	2	7.0	0.6000000000000001	1	0	0.30000000000000004	0.7	2	10	0.6000000000000001	7.0	valid	0.3332735539988789	53248	0	1	1	53248	1	53248	1	53248	1	0.7	53248	blue	red	1	10	ml	2.7.3	bip	sub-06_ses-02_task-ml_proj-bip_2020-11-20-10-18-43.960205
82	6	2	2	83	stable	1	200	83	sv	blue	red	blue	red	left	right	0.7	0.30000000000000004	10	2	7.0	0.6000000000000001	1	0	0.7	0.30000000000000004	10	2	7.0	0.6000000000000001	valid	0.3999094620012329	51200	0	0	1	51200	1	51200	1	51200	1	0.7	51200	blue	red	1	10	ml	2.7.3	bip	sub-06_ses-02_task-ml_proj-bip_2020-11-20-10-18-43.960205
83	6	2	2	84	stable	1	200	84	sv	blue	red	blue	red	left	right	0.7	0.30000000000000004	4	2	2.8	0.6000000000000001	1	0	0.7	0.30000000000000004	4	2	2.8	0.6000000000000001	valid	0.4165735480000876	51200	0	0	1	51200	1	51200	1	51200	1	0.7	51200	blue	red	1	4	ml	2.7.3	bip	sub-06_ses-02_task-ml_proj-bip_2020-11-20-10-18-43.960205
84	6	2	2	85	stable	1	200	85	sv	red	blue	blue	red	right	left	0.7	0.30000000000000004	2	6	1.4	1.8000000000000005	0	1	0.30000000000000004	0.7	6	2	1.8000000000000005	1.4	invalid	0.4165833160004695	53248	0	1	1	51200	0	53248	1	51200	0	0.7	53248	blue	red	0	0	ml	2.7.3	bip	sub-06_ses-02_task-ml_proj-bip_2020-11-20-10-18-43.960205
85	6	2	2	86	stable	1	200	86	sv	red	blue	blue	red	right	left	0.7	0.30000000000000004	4	6	2.8	1.8000000000000005	1	0	0.30000000000000004	0.7	6	4	1.8000000000000005	2.8	valid	0.3832602780003072	53248	0	1	1	53248	1	53248	1	51200	0	0.7	53248	blue	red	0	4	ml	2.7.3	bip	sub-06_ses-02_task-ml_proj-bip_2020-11-20-10-18-43.960205
86	6	2	2	87	stable	1	200	87	sv	blue	red	blue	red	left	right	0.7	0.30000000000000004	2	6	1.4	1.8000000000000005	0	1	0.7	0.30000000000000004	2	6	1.4	1.8000000000000005	invalid	0.5332084929996199	51200	0	0	1	53248	0	51200	1	53248	0	0.7	51200	blue	red	0	0	ml	2.7.3	bip	sub-06_ses-02_task-ml_proj-bip_2020-11-20-10-18-43.960205
87	6	2	2	88	stable	1	200	88	sv	blue	red	blue	red	left	right	0.7	0.30000000000000004	2	6	1.4	1.8000000000000005	1	0	0.7	0.30000000000000004	2	6	1.4	1.8000000000000005	valid	0.3999061899994558	51200	0	0	1	53248	0	51200	1	53248	0	0.7	51200	blue	red	0	2	ml	2.7.3	bip	sub-06_ses-02_task-ml_proj-bip_2020-11-20-10-18-43.960205
88	6	2	2	89	stable	1	200	89	sv	blue	red	blue	red	left	right	0.7	0.30000000000000004	6	6	4.199999999999998	1.8000000000000005	0	1	0.7	0.30000000000000004	6	6	4.199999999999998	1.8000000000000005	invalid	0.4998805040013394	51200	0	0	1	51200	1	51200	1	53248	0	0.7	51200	blue	red	1	0	ml	2.7.3	bip	sub-06_ses-02_task-ml_proj-bip_2020-11-20-10-18-43.960205
89	6	2	2	90	stable	1	200	90	sv	blue	red	blue	red	left	right	0.7	0.30000000000000004	6	2	4.199999999999998	0.6000000000000001	0	1	0.7	0.30000000000000004	6	2	4.199999999999998	0.6000000000000001	invalid	0.4499084119997861	53248	0	1	2	51200	0	51200	0	51200	0	0.7	51200	blue	red	1	2	ml	2.7.3	bip	sub-06_ses-02_task-ml_proj-bip_2020-11-20-10-18-43.960205
90	6	2	2	91	stable	1	200	91	sv	blue	red	blue	red	left	right	0.7	0.30000000000000004	6	4	4.199999999999998	1.2000000000000002	1	0	0.7	0.30000000000000004	6	4	4.199999999999998	1.2000000000000002	valid	0.3332703729993227	53248	0	1	2	51200	0	51200	0	51200	0	0.7	51200	blue	red	1	0	ml	2.7.3	bip	sub-06_ses-02_task-ml_proj-bip_2020-11-20-10-18-43.960205
91	6	2	2	92	stable	1	200	92	sv	red	blue	blue	red	right	left	0.7	0.30000000000000004	2	10	1.4	3.0000000000000004	1	0	0.30000000000000004	0.7	10	2	3.0000000000000004	1.4	valid	0.5498638099998061	51200	0	0	2	51200	1	53248	0	51200	1	0.7	53248	blue	red	0	0	ml	2.7.3	bip	sub-06_ses-02_task-ml_proj-bip_2020-11-20-10-18-43.960205
92	6	2	2	93	stable	1	200	93	sv	red	blue	blue	red	right	left	0.7	0.30000000000000004	4	2	2.8	0.6000000000000001	0	1	0.30000000000000004	0.7	2	4	0.6000000000000001	2.8	invalid	0.4832330270000966	53248	0	1	1	53248	1	53248	1	53248	1	0.7	53248	blue	red	1	0	ml	2.7.3	bip	sub-06_ses-02_task-ml_proj-bip_2020-11-20-10-18-43.960205
93	6	2	2	94	stable	1	200	94	sv	red	blue	blue	red	right	left	0.7	0.30000000000000004	4	2	2.8	0.6000000000000001	1	0	0.30000000000000004	0.7	2	4	0.6000000000000001	2.8	valid	0.5165383530002146	51200	0	0	2	53248	0	53248	0	53248	0	0.7	53248	blue	red	1	0	ml	2.7.3	bip	sub-06_ses-02_task-ml_proj-bip_2020-11-20-10-18-43.960205
94	6	2	2	95	stable	1	200	95	sv	red	blue	blue	red	right	left	0.7	0.30000000000000004	6	2	4.199999999999998	0.6000000000000001	1	0	0.30000000000000004	0.7	2	6	0.6000000000000001	4.199999999999998	valid	0.44990449999932025	53248	0	1	1	53248	1	53248	1	53248	1	0.7	53248	blue	red	1	6	ml	2.7.3	bip	sub-06_ses-02_task-ml_proj-bip_2020-11-20-10-18-43.960205
95	6	2	2	96	stable	1	200	96	sv	blue	red	blue	red	left	right	0.7	0.30000000000000004	2	10	1.4	3.0000000000000004	1	0	0.7	0.30000000000000004	2	10	1.4	3.0000000000000004	valid	0.3832623720008996	53248	0	1	2	53248	1	51200	0	53248	1	0.7	51200	blue	red	0	0	ml	2.7.3	bip	sub-06_ses-02_task-ml_proj-bip_2020-11-20-10-18-43.960205
96	6	2	2	97	stable	1	200	97	sv	blue	red	blue	red	left	right	0.7	0.30000000000000004	6	4	4.199999999999998	1.2000000000000002	1	0	0.7	0.30000000000000004	6	4	4.199999999999998	1.2000000000000002	valid	0.3832482759989944	51200	0	0	1	51200	1	51200	1	51200	1	0.7	51200	blue	red	1	6	ml	2.7.3	bip	sub-06_ses-02_task-ml_proj-bip_2020-11-20-10-18-43.960205
97	6	2	2	98	stable	1	200	98	sv	blue	red	blue	red	left	right	0.7	0.30000000000000004	2	4	1.4	1.2000000000000002	0	1	0.7	0.30000000000000004	2	4	1.4	1.2000000000000002	invalid	0.4499035009994259	53248	0	1	2	51200	0	51200	0	53248	1	0.7	51200	blue	red	0	4	ml	2.7.3	bip	sub-06_ses-02_task-ml_proj-bip_2020-11-20-10-18-43.960205
98	6	2	2	99	stable	1	200	99	sv	red	blue	blue	red	right	left	0.7	0.30000000000000004	6	6	4.199999999999998	1.8000000000000005	0	1	0.30000000000000004	0.7	6	6	1.8000000000000005	4.199999999999998	invalid	0.5332030339995981	51200	0	0	2	53248	0	53248	0	53248	0	0.7	53248	blue	red	0	6	ml	2.7.3	bip	sub-06_ses-02_task-ml_proj-bip_2020-11-20-10-18-43.960205
99	6	2	2	100	stable	1	200	100	sv	red	blue	blue	red	right	left	0.7	0.30000000000000004	2	6	1.4	1.8000000000000005	1	0	0.30000000000000004	0.7	6	2	1.8000000000000005	1.4	valid	0.3999052210001537	51200	0	0	2	51200	1	53248	0	51200	1	0.7	53248	blue	red	0	0	ml	2.7.3	bip	sub-06_ses-02_task-ml_proj-bip_2020-11-20-10-18-43.960205
100	6	2	3	101	stable	1	200	101	sv	blue	red	blue	red	left	right	0.7	0.30000000000000004	6	6	4.199999999999998	1.8000000000000005	0	1	0.7	0.30000000000000004	6	6	4.199999999999998	1.8000000000000005	invalid	0.583202017000076	53248	0	1	2	51200	0	51200	0	53248	1	0.7	51200	blue	red	1	6	ml	2.7.3	bip	sub-06_ses-02_task-ml_proj-bip_2020-11-20-10-18-43.960205
101	6	2	3	102	stable	1	200	102	sv	red	blue	blue	red	right	left	0.7	0.30000000000000004	6	2	4.199999999999998	0.6000000000000001	0	1	0.30000000000000004	0.7	2	6	0.6000000000000001	4.199999999999998	invalid	0.4332344939994073	51200	0	0	2	53248	0	53248	0	53248	0	0.7	53248	blue	red	1	2	ml	2.7.3	bip	sub-06_ses-02_task-ml_proj-bip_2020-11-20-10-18-43.960205
102	6	2	3	103	stable	1	200	103	sv	red	blue	blue	red	right	left	0.7	0.30000000000000004	2	2	1.4	0.6000000000000001	1	0	0.30000000000000004	0.7	2	2	0.6000000000000001	1.4	valid	0.4165626850008266	51200	0	0	2	53248	0	53248	0	53248	0	0.7	53248	blue	red	0	0	ml	2.7.3	bip	sub-06_ses-02_task-ml_proj-bip_2020-11-20-10-18-43.960205
103	6	2	3	104	stable	1	200	104	sv	red	blue	blue	red	right	left	0.7	0.30000000000000004	2	10	1.4	3.0000000000000004	1	0	0.30000000000000004	0.7	10	2	3.0000000000000004	1.4	valid	0.3332687790007185	51200	0	0	2	51200	1	53248	0	51200	1	0.7	53248	blue	red	0	0	ml	2.7.3	bip	sub-06_ses-02_task-ml_proj-bip_2020-11-20-10-18-43.960205
104	6	2	3	105	stable	1	200	105	sv	red	blue	blue	red	right	left	0.7	0.30000000000000004	4	2	2.8	0.6000000000000001	1	0	0.30000000000000004	0.7	2	4	0.6000000000000001	2.8	valid	0.2666276170002675	53248	0	1	1	53248	1	53248	1	53248	1	0.7	53248	blue	red	1	4	ml	2.7.3	bip	sub-06_ses-02_task-ml_proj-bip_2020-11-20-10-18-43.960205
105	6	2	3	106	stable	1	200	106	sv	blue	red	blue	red	left	right	0.7	0.30000000000000004	4	2	2.8	0.6000000000000001	0	1	0.7	0.30000000000000004	4	2	2.8	0.6000000000000001	invalid	0.3499272219996783	51200	0	0	1	51200	1	51200	1	51200	1	0.7	51200	blue	red	1	0	ml	2.7.3	bip	sub-06_ses-02_task-ml_proj-bip_2020-11-20-10-18-43.960205
106	6	2	3	107	stable	1	200	107	sv	red	blue	blue	red	right	left	0.7	0.30000000000000004	10	2	7.0	0.6000000000000001	1	0	0.30000000000000004	0.7	2	10	0.6000000000000001	7.0	valid	0.2999483780004084	53248	0	1	1	53248	1	53248	1	53248	1	0.7	53248	blue	red	1	10	ml	2.7.3	bip	sub-06_ses-02_task-ml_proj-bip_2020-11-20-10-18-43.960205
107	6	2	3	108	stable	1	200	108	sv	blue	red	blue	red	left	right	0.7	0.30000000000000004	2	4	1.4	1.2000000000000002	1	0	0.7	0.30000000000000004	2	4	1.4	1.2000000000000002	valid	0.2832746320000297	51200	0	0	1	51200	1	51200	1	53248	0	0.7	51200	blue	red	0	2	ml	2.7.3	bip	sub-06_ses-02_task-ml_proj-bip_2020-11-20-10-18-43.960205
108	6	2	3	109	stable	1	200	109	sv	blue	red	blue	red	left	right	0.7	0.30000000000000004	4	2	2.8	0.6000000000000001	1	0	0.7	0.30000000000000004	4	2	2.8	0.6000000000000001	valid	0.433234498001184	51200	0	0	1	51200	1	51200	1	51200	1	0.7	51200	blue	red	1	4	ml	2.7.3	bip	sub-06_ses-02_task-ml_proj-bip_2020-11-20-10-18-43.960205
109	6	2	3	110	stable	1	200	110	sv	red	blue	blue	red	right	left	0.7	0.30000000000000004	6	4	4.199999999999998	1.2000000000000002	1	0	0.30000000000000004	0.7	4	6	1.2000000000000002	4.199999999999998	valid	0.3499419109994051	53248	0	1	1	53248	1	53248	1	53248	1	0.7	53248	blue	red	1	6	ml	2.7.3	bip	sub-06_ses-02_task-ml_proj-bip_2020-11-20-10-18-43.960205
110	6	2	3	111	stable	1	200	111	sv	red	blue	blue	red	right	left	0.7	0.30000000000000004	10	2	7.0	0.6000000000000001	1	0	0.30000000000000004	0.7	2	10	0.6000000000000001	7.0	valid	9.498299914412199e-05	51200	0	0	2	53248	0	53248	0	53248	0	0.7	53248	blue	red	1	0	ml	2.7.3	bip	sub-06_ses-02_task-ml_proj-bip_2020-11-20-10-18-43.960205
111	6	2	3	112	stable	1	200	112	sv	red	blue	blue	red	right	left	0.7	0.30000000000000004	2	10	1.4	3.0000000000000004	0	1	0.30000000000000004	0.7	10	2	3.0000000000000004	1.4	invalid	0.4665600680000352	51200	0	0	2	51200	1	53248	0	51200	1	0.7	53248	blue	red	0	10	ml	2.7.3	bip	sub-06_ses-02_task-ml_proj-bip_2020-11-20-10-18-43.960205
112	6	2	3	113	stable	1	200	113	sv	blue	red	blue	red	left	right	0.7	0.30000000000000004	4	6	2.8	1.8000000000000005	1	0	0.7	0.30000000000000004	4	6	2.8	1.8000000000000005	valid	0.5998558480005158	53248	0	1	2	51200	0	51200	0	53248	1	0.7	51200	blue	red	0	0	ml	2.7.3	bip	sub-06_ses-02_task-ml_proj-bip_2020-11-20-10-18-43.960205
113	6	2	3	114	stable	1	200	114	sv	red	blue	blue	red	right	left	0.7	0.30000000000000004	2	6	1.4	1.8000000000000005	1	0	0.30000000000000004	0.7	6	2	1.8000000000000005	1.4	valid	0.4665561500005424	51200	0	0	2	51200	1	53248	0	51200	1	0.7	53248	blue	red	0	0	ml	2.7.3	bip	sub-06_ses-02_task-ml_proj-bip_2020-11-20-10-18-43.960205
114	6	2	3	115	stable	1	200	115	sv	red	blue	blue	red	right	left	0.7	0.30000000000000004	6	6	4.199999999999998	1.8000000000000005	1	0	0.30000000000000004	0.7	6	6	1.8000000000000005	4.199999999999998	valid	0.4332455809999374	53248	0	1	1	53248	1	53248	1	53248	1	0.7	53248	blue	red	0	6	ml	2.7.3	bip	sub-06_ses-02_task-ml_proj-bip_2020-11-20-10-18-43.960205
115	6	2	3	116	stable	1	200	116	sv	red	blue	blue	red	right	left	0.7	0.30000000000000004	2	2	1.4	0.6000000000000001	0	1	0.30000000000000004	0.7	2	2	0.6000000000000001	1.4	invalid	0.5665470769999956	53248	0	1	1	53248	1	53248	1	53248	1	0.7	53248	blue	red	0	0	ml	2.7.3	bip	sub-06_ses-02_task-ml_proj-bip_2020-11-20-10-18-43.960205
116	6	2	3	117	stable	1	200	117	sv	blue	red	blue	red	left	right	0.7	0.30000000000000004	6	2	4.199999999999998	0.6000000000000001	1	0	0.7	0.30000000000000004	6	2	4.199999999999998	0.6000000000000001	valid	0.3999095320014021	51200	0	0	1	51200	1	51200	1	51200	1	0.7	51200	blue	red	1	6	ml	2.7.3	bip	sub-06_ses-02_task-ml_proj-bip_2020-11-20-10-18-43.960205
117	6	2	3	118	stable	1	200	118	sv	blue	red	blue	red	left	right	0.7	0.30000000000000004	10	2	7.0	0.6000000000000001	1	0	0.7	0.30000000000000004	10	2	7.0	0.6000000000000001	valid	0.4998797589996684	51200	0	0	1	51200	1	51200	1	51200	1	0.7	51200	blue	red	1	10	ml	2.7.3	bip	sub-06_ses-02_task-ml_proj-bip_2020-11-20-10-18-43.960205
118	6	2	3	119	stable	1	200	119	sv	blue	red	blue	red	left	right	0.7	0.30000000000000004	2	6	1.4	1.8000000000000005	0	1	0.7	0.30000000000000004	2	6	1.4	1.8000000000000005	invalid	0.6331871769998543	53248	0	1	2	53248	1	51200	0	53248	1	0.7	51200	blue	red	0	6	ml	2.7.3	bip	sub-06_ses-02_task-ml_proj-bip_2020-11-20-10-18-43.960205
119	6	2	3	120	stable	1	200	120	sv	blue	red	blue	red	left	right	0.7	0.30000000000000004	2	2	1.4	0.6000000000000001	1	0	0.7	0.30000000000000004	2	2	1.4	0.6000000000000001	valid	0.4665579239990621	51200	0	0	1	51200	1	51200	1	53248	0	0.7	51200	blue	red	1	2	ml	2.7.3	bip	sub-06_ses-02_task-ml_proj-bip_2020-11-20-10-18-43.960205
120	6	2	3	121	stable	1	200	121	sv	red	blue	blue	red	right	left	0.7	0.30000000000000004	2	4	1.4	1.2000000000000002	1	0	0.30000000000000004	0.7	4	2	1.2000000000000002	1.4	valid	0.6498500609995972	53248	0	1	1	53248	1	53248	1	51200	0	0.7	53248	blue	red	0	2	ml	2.7.3	bip	sub-06_ses-02_task-ml_proj-bip_2020-11-20-10-18-43.960205
121	6	2	3	122	stable	1	200	122	sv	red	blue	blue	red	right	left	0.7	0.30000000000000004	6	4	4.199999999999998	1.2000000000000002	0	1	0.30000000000000004	0.7	4	6	1.2000000000000002	4.199999999999998	invalid	0.4665660409991688	53248	0	1	1	53248	1	53248	1	53248	1	0.7	53248	blue	red	1	0	ml	2.7.3	bip	sub-06_ses-02_task-ml_proj-bip_2020-11-20-10-18-43.960205
122	6	2	3	123	stable	1	200	123	sv	red	blue	blue	red	right	left	0.7	0.30000000000000004	4	6	2.8	1.8000000000000005	1	0	0.30000000000000004	0.7	6	4	1.8000000000000005	2.8	valid	0.5165551110003435	53248	0	1	1	53248	1	53248	1	51200	0	0.7	53248	blue	red	0	4	ml	2.7.3	bip	sub-06_ses-02_task-ml_proj-bip_2020-11-20-10-18-43.960205
123	6	2	3	124	stable	1	200	124	sv	blue	red	blue	red	left	right	0.7	0.30000000000000004	2	2	1.4	0.6000000000000001	1	0	0.7	0.30000000000000004	2	2	1.4	0.6000000000000001	valid	0.8164547859996674	51200	0	0	1	51200	1	51200	1	53248	0	0.7	51200	blue	red	1	2	ml	2.7.3	bip	sub-06_ses-02_task-ml_proj-bip_2020-11-20-10-18-43.960205
124	6	2	3	125	stable	1	200	125	sv	blue	red	blue	red	left	right	0.7	0.30000000000000004	6	4	4.199999999999998	1.2000000000000002	0	1	0.7	0.30000000000000004	6	4	4.199999999999998	1.2000000000000002	invalid	0.7831330099998013	51200	0	0	1	51200	1	51200	1	51200	1	0.7	51200	blue	red	1	0	ml	2.7.3	bip	sub-06_ses-02_task-ml_proj-bip_2020-11-20-10-18-43.960205
125	6	2	3	126	stable	1	200	126	sv	red	blue	blue	red	right	left	0.7	0.30000000000000004	4	2	2.8	0.6000000000000001	1	0	0.30000000000000004	0.7	2	4	0.6000000000000001	2.8	valid	0.8664518460009276	53248	0	1	1	53248	1	53248	1	53248	1	0.7	53248	blue	red	1	4	ml	2.7.3	bip	sub-06_ses-02_task-ml_proj-bip_2020-11-20-10-18-43.960205
126	6	2	3	127	stable	1	200	127	sv	red	blue	blue	red	right	left	0.7	0.30000000000000004	2	6	1.4	1.8000000000000005	1	0	0.30000000000000004	0.7	6	2	1.8000000000000005	1.4	valid	0.3832497760013212	51200	0	0	2	51200	1	53248	0	51200	1	0.7	53248	blue	red	0	0	ml	2.7.3	bip	sub-06_ses-02_task-ml_proj-bip_2020-11-20-10-18-43.960205
127	6	2	3	128	stable	1	200	128	sv	blue	red	blue	red	left	right	0.7	0.30000000000000004	4	6	2.8	1.8000000000000005	0	1	0.7	0.30000000000000004	4	6	2.8	1.8000000000000005	invalid	0.4165862280005968	53248	0	1	2	51200	0	51200	0	53248	1	0.7	51200	blue	red	0	6	ml	2.7.3	bip	sub-06_ses-02_task-ml_proj-bip_2020-11-20-10-18-43.960205
128	6	2	3	129	stable	1	200	129	sv	red	blue	blue	red	right	left	0.7	0.30000000000000004	4	2	2.8	0.6000000000000001	1	0	0.30000000000000004	0.7	2	4	0.6000000000000001	2.8	valid	0.4998857680002402	53248	0	1	1	53248	1	53248	1	53248	1	0.7	53248	blue	red	1	4	ml	2.7.3	bip	sub-06_ses-02_task-ml_proj-bip_2020-11-20-10-18-43.960205
129	6	2	3	130	stable	1	200	130	sv	blue	red	blue	red	left	right	0.7	0.30000000000000004	2	10	1.4	3.0000000000000004	0	1	0.7	0.30000000000000004	2	10	1.4	3.0000000000000004	invalid	0.5165568680004071	53248	0	1	2	53248	1	51200	0	53248	1	0.7	51200	blue	red	0	10	ml	2.7.3	bip	sub-06_ses-02_task-ml_proj-bip_2020-11-20-10-18-43.960205
130	6	2	3	131	stable	1	200	131	sv	blue	red	blue	red	left	right	0.7	0.30000000000000004	6	6	4.199999999999998	1.8000000000000005	1	0	0.7	0.30000000000000004	6	6	4.199999999999998	1.8000000000000005	valid	0.4165690310001082	51200	0	0	1	51200	1	51200	1	53248	0	0.7	51200	blue	red	1	6	ml	2.7.3	bip	sub-06_ses-02_task-ml_proj-bip_2020-11-20-10-18-43.960205
131	6	2	3	132	stable	1	200	132	sv	blue	red	blue	red	left	right	0.7	0.30000000000000004	6	2	4.199999999999998	0.6000000000000001	1	0	0.7	0.30000000000000004	6	2	4.199999999999998	0.6000000000000001	valid	0.5332153719991766	51200	0	0	1	51200	1	51200	1	51200	1	0.7	51200	blue	red	1	6	ml	2.7.3	bip	sub-06_ses-02_task-ml_proj-bip_2020-11-20-10-18-43.960205
132	6	2	3	133	stable	1	200	133	sv	red	blue	blue	red	right	left	0.7	0.30000000000000004	6	4	4.199999999999998	1.2000000000000002	0	1	0.30000000000000004	0.7	4	6	1.2000000000000002	4.199999999999998	invalid	0.6331854809996003	53248	0	1	1	53248	1	53248	1	53248	1	0.7	53248	blue	red	1	0	ml	2.7.3	bip	sub-06_ses-02_task-ml_proj-bip_2020-11-20-10-18-43.960205
133	6	2	3	134	stable	1	200	134	sv	blue	red	blue	red	left	right	0.7	0.30000000000000004	4	6	2.8	1.8000000000000005	0	1	0.7	0.30000000000000004	4	6	2.8	1.8000000000000005	invalid	0.5498669650005468	51200	0	0	1	51200	1	51200	1	53248	0	0.7	51200	blue	red	0	0	ml	2.7.3	bip	sub-06_ses-02_task-ml_proj-bip_2020-11-20-10-18-43.960205
134	6	2	3	135	stable	1	200	135	sv	red	blue	blue	red	right	left	0.7	0.30000000000000004	4	2	2.8	0.6000000000000001	0	1	0.30000000000000004	0.7	2	4	0.6000000000000001	2.8	invalid	0.8331286419997923	53248	0	1	1	53248	1	53248	1	53248	1	0.7	53248	blue	red	1	0	ml	2.7.3	bip	sub-06_ses-02_task-ml_proj-bip_2020-11-20-10-18-43.960205
135	6	2	3	136	stable	1	200	136	sv	blue	red	blue	red	left	right	0.7	0.30000000000000004	2	4	1.4	1.2000000000000002	1	0	0.7	0.30000000000000004	2	4	1.4	1.2000000000000002	valid	0.39990824199958297	51200	0	0	1	51200	1	51200	1	53248	0	0.7	51200	blue	red	0	2	ml	2.7.3	bip	sub-06_ses-02_task-ml_proj-bip_2020-11-20-10-18-43.960205
136	6	2	3	137	stable	1	200	137	sv	blue	red	blue	red	left	right	0.7	0.30000000000000004	2	10	1.4	3.0000000000000004	0	1	0.7	0.30000000000000004	2	10	1.4	3.0000000000000004	invalid	0.6165225200002169	53248	0	1	2	53248	1	51200	0	53248	1	0.7	51200	blue	red	0	10	ml	2.7.3	bip	sub-06_ses-02_task-ml_proj-bip_2020-11-20-10-18-43.960205
137	6	2	3	138	stable	1	200	138	sv	blue	red	blue	red	left	right	0.7	0.30000000000000004	6	2	4.199999999999998	0.6000000000000001	0	1	0.7	0.30000000000000004	6	2	4.199999999999998	0.6000000000000001	invalid	0.683160835000308	51200	0	0	1	51200	1	51200	1	51200	1	0.7	51200	blue	red	1	0	ml	2.7.3	bip	sub-06_ses-02_task-ml_proj-bip_2020-11-20-10-18-43.960205
138	6	2	3	139	stable	1	200	139	sv	red	blue	blue	red	right	left	0.7	0.30000000000000004	2	10	1.4	3.0000000000000004	1	0	0.30000000000000004	0.7	10	2	3.0000000000000004	1.4	valid	0.8331086369998957	51200	0	0	2	51200	1	53248	0	51200	1	0.7	53248	blue	red	0	0	ml	2.7.3	bip	sub-06_ses-02_task-ml_proj-bip_2020-11-20-10-18-43.960205
139	6	2	3	140	stable	1	200	140	sv	blue	red	blue	red	left	right	0.7	0.30000000000000004	6	2	4.199999999999998	0.6000000000000001	1	0	0.7	0.30000000000000004	6	2	4.199999999999998	0.6000000000000001	valid	0.699820447998718	51200	0	0	1	51200	1	51200	1	51200	1	0.7	51200	blue	red	1	6	ml	2.7.3	bip	sub-06_ses-02_task-ml_proj-bip_2020-11-20-10-18-43.960205
140	6	2	3	141	stable	1	200	141	sv	red	blue	blue	red	right	left	0.7	0.30000000000000004	4	2	2.8	0.6000000000000001	1	0	0.30000000000000004	0.7	2	4	0.6000000000000001	2.8	valid	1.4829161289999317	51200	0	0	2	53248	0	53248	0	53248	0	0.7	53248	blue	red	1	0	ml	2.7.3	bip	sub-06_ses-02_task-ml_proj-bip_2020-11-20-10-18-43.960205
141	6	2	3	142	stable	1	200	142	sv	blue	red	blue	red	left	right	0.7	0.30000000000000004	2	2	1.4	0.6000000000000001	0	1	0.7	0.30000000000000004	2	2	1.4	0.6000000000000001	invalid	0.4499047370009066	53248	0	1	2	51200	0	51200	0	53248	1	0.7	51200	blue	red	1	2	ml	2.7.3	bip	sub-06_ses-02_task-ml_proj-bip_2020-11-20-10-18-43.960205
142	6	2	3	143	stable	1	200	143	sv	red	blue	blue	red	right	left	0.7	0.30000000000000004	2	4	1.4	1.2000000000000002	1	0	0.30000000000000004	0.7	4	2	1.2000000000000002	1.4	valid	0.36658557299961103	51200	0	0	2	53248	0	53248	0	51200	1	0.7	53248	blue	red	0	0	ml	2.7.3	bip	sub-06_ses-02_task-ml_proj-bip_2020-11-20-10-18-43.960205
143	6	2	3	144	stable	1	200	144	sv	blue	red	blue	red	left	right	0.7	0.30000000000000004	4	2	2.8	0.6000000000000001	0	1	0.7	0.30000000000000004	4	2	2.8	0.6000000000000001	invalid	0.4332352439996612	51200	0	0	1	51200	1	51200	1	51200	1	0.7	51200	blue	red	1	0	ml	2.7.3	bip	sub-06_ses-02_task-ml_proj-bip_2020-11-20-10-18-43.960205
144	6	2	3	145	stable	1	200	145	sv	blue	red	blue	red	left	right	0.7	0.30000000000000004	6	2	4.199999999999998	0.6000000000000001	1	0	0.7	0.30000000000000004	6	2	4.199999999999998	0.6000000000000001	valid	0.399950428000011	51200	0	0	1	51200	1	51200	1	51200	1	0.7	51200	blue	red	1	6	ml	2.7.3	bip	sub-06_ses-02_task-ml_proj-bip_2020-11-20-10-18-43.960205
145	6	2	3	146	stable	1	200	146	sv	blue	red	blue	red	left	right	0.7	0.30000000000000004	4	6	2.8	1.8000000000000005	1	0	0.7	0.30000000000000004	4	6	2.8	1.8000000000000005	valid	0.3999195610012976	53248	0	1	2	51200	0	51200	0	53248	1	0.7	51200	blue	red	0	0	ml	2.7.3	bip	sub-06_ses-02_task-ml_proj-bip_2020-11-20-10-18-43.960205
146	6	2	3	147	stable	1	200	147	sv	red	blue	blue	red	right	left	0.7	0.30000000000000004	6	6	4.199999999999998	1.8000000000000005	1	0	0.30000000000000004	0.7	6	6	1.8000000000000005	4.199999999999998	valid	0.5332065029997466	51200	0	0	2	53248	0	53248	0	53248	0	0.7	53248	blue	red	0	0	ml	2.7.3	bip	sub-06_ses-02_task-ml_proj-bip_2020-11-20-10-18-43.960205
147	6	2	3	148	stable	1	200	148	sv	blue	red	blue	red	left	right	0.7	0.30000000000000004	10	2	7.0	0.6000000000000001	0	1	0.7	0.30000000000000004	10	2	7.0	0.6000000000000001	invalid	0.3499196140001004	51200	0	0	1	51200	1	51200	1	51200	1	0.7	51200	blue	red	1	0	ml	2.7.3	bip	sub-06_ses-02_task-ml_proj-bip_2020-11-20-10-18-43.960205
148	6	2	3	149	stable	1	200	149	sv	red	blue	blue	red	right	left	0.7	0.30000000000000004	6	6	4.199999999999998	1.8000000000000005	1	0	0.30000000000000004	0.7	6	6	1.8000000000000005	4.199999999999998	valid	0.449904785000399	53248	0	1	1	53248	1	53248	1	53248	1	0.7	53248	blue	red	0	6	ml	2.7.3	bip	sub-06_ses-02_task-ml_proj-bip_2020-11-20-10-18-43.960205
149	6	2	3	150	stable	1	200	150	sv	blue	red	blue	red	left	right	0.7	0.30000000000000004	6	6	4.199999999999998	1.8000000000000005	1	0	0.7	0.30000000000000004	6	6	4.199999999999998	1.8000000000000005	valid	0.41657232399848	51200	0	0	1	51200	1	51200	1	53248	0	0.7	51200	blue	red	1	6	ml	2.7.3	bip	sub-06_ses-02_task-ml_proj-bip_2020-11-20-10-18-43.960205
150	6	2	4	151	stable	1	200	151	sv	blue	red	blue	red	left	right	0.7	0.30000000000000004	2	10	1.4	3.0000000000000004	1	0	0.7	0.30000000000000004	2	10	1.4	3.0000000000000004	valid	0.3999126920007257	53248	0	1	2	53248	1	51200	0	53248	1	0.7	51200	blue	red	0	0	ml	2.7.3	bip	sub-06_ses-02_task-ml_proj-bip_2020-11-20-10-18-43.960205
151	6	2	4	152	stable	1	200	152	sv	red	blue	blue	red	right	left	0.7	0.30000000000000004	2	6	1.4	1.8000000000000005	0	1	0.30000000000000004	0.7	6	2	1.8000000000000005	1.4	invalid	0.3665855760009436	51200	0	0	2	51200	1	53248	0	51200	1	0.7	53248	blue	red	0	6	ml	2.7.3	bip	sub-06_ses-02_task-ml_proj-bip_2020-11-20-10-18-43.960205
152	6	2	4	153	stable	1	200	153	sv	red	blue	blue	red	right	left	0.7	0.30000000000000004	4	6	2.8	1.8000000000000005	1	0	0.30000000000000004	0.7	6	4	1.8000000000000005	2.8	valid	0.4998819789998379	51200	0	0	2	53248	0	53248	0	51200	1	0.7	53248	blue	red	0	0	ml	2.7.3	bip	sub-06_ses-02_task-ml_proj-bip_2020-11-20-10-18-43.960205
153	6	2	4	154	stable	1	200	154	sv	blue	red	blue	red	left	right	0.7	0.30000000000000004	2	6	1.4	1.8000000000000005	1	0	0.7	0.30000000000000004	2	6	1.4	1.8000000000000005	valid	0.31661080100093386	53248	0	1	2	53248	1	51200	0	53248	1	0.7	51200	blue	red	0	0	ml	2.7.3	bip	sub-06_ses-02_task-ml_proj-bip_2020-11-20-10-18-43.960205
154	6	2	4	155	stable	1	200	155	sv	red	blue	blue	red	right	left	0.7	0.30000000000000004	6	6	4.199999999999998	1.8000000000000005	1	0	0.30000000000000004	0.7	6	6	1.8000000000000005	4.199999999999998	valid	0.4165723189998971	51200	0	0	2	53248	0	53248	0	53248	0	0.7	53248	blue	red	0	0	ml	2.7.3	bip	sub-06_ses-02_task-ml_proj-bip_2020-11-20-10-18-43.960205
155	6	2	4	156	stable	1	200	156	sv	red	blue	blue	red	right	left	0.7	0.30000000000000004	2	10	1.4	3.0000000000000004	0	1	0.30000000000000004	0.7	10	2	3.0000000000000004	1.4	invalid	0.3332813559991337	53248	0	1	1	51200	0	53248	1	51200	0	0.7	53248	blue	red	0	0	ml	2.7.3	bip	sub-06_ses-02_task-ml_proj-bip_2020-11-20-10-18-43.960205
156	6	2	4	157	stable	1	200	157	sv	blue	red	blue	red	left	right	0.7	0.30000000000000004	4	2	2.8	0.6000000000000001	1	0	0.7	0.30000000000000004	4	2	2.8	0.6000000000000001	valid	0.3665861600002245	51200	0	0	1	51200	1	51200	1	51200	1	0.7	51200	blue	red	1	4	ml	2.7.3	bip	sub-06_ses-02_task-ml_proj-bip_2020-11-20-10-18-43.960205
157	6	2	4	158	stable	1	200	158	sv	red	blue	blue	red	right	left	0.7	0.30000000000000004	4	2	2.8	0.6000000000000001	1	0	0.30000000000000004	0.7	2	4	0.6000000000000001	2.8	valid	0.34993471399866394	53248	0	1	1	53248	1	53248	1	53248	1	0.7	53248	blue	red	1	4	ml	2.7.3	bip	sub-06_ses-02_task-ml_proj-bip_2020-11-20-10-18-43.960205
158	6	2	4	159	stable	1	200	159	sv	blue	red	blue	red	left	right	0.7	0.30000000000000004	4	6	2.8	1.8000000000000005	1	0	0.7	0.30000000000000004	4	6	2.8	1.8000000000000005	valid	0.34992525300003763	51200	0	0	1	51200	1	51200	1	53248	0	0.7	51200	blue	red	0	4	ml	2.7.3	bip	sub-06_ses-02_task-ml_proj-bip_2020-11-20-10-18-43.960205
159	6	2	4	160	stable	1	200	160	sv	blue	red	blue	red	left	right	0.7	0.30000000000000004	2	6	1.4	1.8000000000000005	1	0	0.7	0.30000000000000004	2	6	1.4	1.8000000000000005	valid	0.3665843730013876	51200	0	0	1	53248	0	51200	1	53248	0	0.7	51200	blue	red	0	2	ml	2.7.3	bip	sub-06_ses-02_task-ml_proj-bip_2020-11-20-10-18-43.960205
160	6	2	4	161	stable	1	200	161	sv	red	blue	blue	red	right	left	0.7	0.30000000000000004	2	4	1.4	1.2000000000000002	1	0	0.30000000000000004	0.7	4	2	1.2000000000000002	1.4	valid	0.4332435349988373	53248	0	1	1	53248	1	53248	1	51200	0	0.7	53248	blue	red	0	2	ml	2.7.3	bip	sub-06_ses-02_task-ml_proj-bip_2020-11-20-10-18-43.960205
161	6	2	4	162	stable	1	200	162	sv	red	blue	blue	red	right	left	0.7	0.30000000000000004	2	2	1.4	0.6000000000000001	1	0	0.30000000000000004	0.7	2	2	0.6000000000000001	1.4	valid	0.4499060390007799	53248	0	1	1	53248	1	53248	1	53248	1	0.7	53248	blue	red	0	2	ml	2.7.3	bip	sub-06_ses-02_task-ml_proj-bip_2020-11-20-10-18-43.960205
162	6	2	4	163	stable	1	200	163	sv	blue	red	blue	red	left	right	0.7	0.30000000000000004	2	6	1.4	1.8000000000000005	1	0	0.7	0.30000000000000004	2	6	1.4	1.8000000000000005	valid	0.4332364879992383	51200	0	0	1	53248	0	51200	1	53248	0	0.7	51200	blue	red	0	2	ml	2.7.3	bip	sub-06_ses-02_task-ml_proj-bip_2020-11-20-10-18-43.960205
163	6	2	4	164	stable	1	200	164	sv	blue	red	blue	red	left	right	0.7	0.30000000000000004	6	6	4.199999999999998	1.8000000000000005	1	0	0.7	0.30000000000000004	6	6	4.199999999999998	1.8000000000000005	valid	0.4165731360008067	51200	0	0	1	51200	1	51200	1	53248	0	0.7	51200	blue	red	1	6	ml	2.7.3	bip	sub-06_ses-02_task-ml_proj-bip_2020-11-20-10-18-43.960205
164	6	2	4	165	stable	1	200	165	sv	red	blue	blue	red	right	left	0.7	0.30000000000000004	4	2	2.8	0.6000000000000001	1	0	0.30000000000000004	0.7	2	4	0.6000000000000001	2.8	valid	0.6831737060001615	53248	0	1	1	53248	1	53248	1	53248	1	0.7	53248	blue	red	1	4	ml	2.7.3	bip	sub-06_ses-02_task-ml_proj-bip_2020-11-20-10-18-43.960205
165	6	2	4	166	stable	1	200	166	sv	red	blue	blue	red	right	left	0.7	0.30000000000000004	4	6	2.8	1.8000000000000005	0	1	0.30000000000000004	0.7	6	4	1.8000000000000005	2.8	invalid	0.3999227859985695	53248	0	1	1	53248	1	53248	1	51200	0	0.7	53248	blue	red	0	0	ml	2.7.3	bip	sub-06_ses-02_task-ml_proj-bip_2020-11-20-10-18-43.960205
166	6	2	4	167	stable	1	200	167	sv	blue	red	blue	red	left	right	0.7	0.30000000000000004	4	2	2.8	0.6000000000000001	0	1	0.7	0.30000000000000004	4	2	2.8	0.6000000000000001	invalid	0.3999107700001332	51200	0	0	1	51200	1	51200	1	51200	1	0.7	51200	blue	red	1	0	ml	2.7.3	bip	sub-06_ses-02_task-ml_proj-bip_2020-11-20-10-18-43.960205
167	6	2	4	168	stable	1	200	168	sv	red	blue	blue	red	right	left	0.7	0.30000000000000004	4	6	2.8	1.8000000000000005	1	0	0.30000000000000004	0.7	6	4	1.8000000000000005	2.8	valid	0.4665714189995924	53248	0	1	1	53248	1	53248	1	51200	0	0.7	53248	blue	red	0	4	ml	2.7.3	bip	sub-06_ses-02_task-ml_proj-bip_2020-11-20-10-18-43.960205
168	6	2	4	169	stable	1	200	169	sv	blue	red	blue	red	left	right	0.7	0.30000000000000004	4	2	2.8	0.6000000000000001	0	1	0.7	0.30000000000000004	4	2	2.8	0.6000000000000001	invalid	0.4832193599995662	51200	0	0	1	51200	1	51200	1	51200	1	0.7	51200	blue	red	1	0	ml	2.7.3	bip	sub-06_ses-02_task-ml_proj-bip_2020-11-20-10-18-43.960205
169	6	2	4	170	stable	1	200	170	sv	red	blue	blue	red	right	left	0.7	0.30000000000000004	10	2	7.0	0.6000000000000001	1	0	0.30000000000000004	0.7	2	10	0.6000000000000001	7.0	valid	0.4665684950014111	53248	0	1	1	53248	1	53248	1	53248	1	0.7	53248	blue	red	1	10	ml	2.7.3	bip	sub-06_ses-02_task-ml_proj-bip_2020-11-20-10-18-43.960205
170	6	2	4	171	stable	1	200	171	sv	blue	red	blue	red	left	right	0.7	0.30000000000000004	2	6	1.4	1.8000000000000005	1	0	0.7	0.30000000000000004	2	6	1.4	1.8000000000000005	valid	0.4498924489998899	51200	0	0	1	53248	0	51200	1	53248	0	0.7	51200	blue	red	0	2	ml	2.7.3	bip	sub-06_ses-02_task-ml_proj-bip_2020-11-20-10-18-43.960205
171	6	2	4	172	stable	1	200	172	sv	red	blue	blue	red	right	left	0.7	0.30000000000000004	6	6	4.199999999999998	1.8000000000000005	1	0	0.30000000000000004	0.7	6	6	1.8000000000000005	4.199999999999998	valid	0.5665383430005022	53248	0	1	1	53248	1	53248	1	53248	1	0.7	53248	blue	red	0	6	ml	2.7.3	bip	sub-06_ses-02_task-ml_proj-bip_2020-11-20-10-18-43.960205
172	6	2	4	173	stable	1	200	173	sv	red	blue	blue	red	right	left	0.7	0.30000000000000004	6	2	4.199999999999998	0.6000000000000001	0	1	0.30000000000000004	0.7	2	6	0.6000000000000001	4.199999999999998	invalid	0.7498215089999576	53248	0	1	1	53248	1	53248	1	53248	1	0.7	53248	blue	red	1	0	ml	2.7.3	bip	sub-06_ses-02_task-ml_proj-bip_2020-11-20-10-18-43.960205
173	6	2	4	174	stable	1	200	174	sv	blue	red	blue	red	left	right	0.7	0.30000000000000004	4	6	2.8	1.8000000000000005	0	1	0.7	0.30000000000000004	4	6	2.8	1.8000000000000005	invalid	0.44990488099938375	51200	0	0	1	51200	1	51200	1	53248	0	0.7	51200	blue	red	0	0	ml	2.7.3	bip	sub-06_ses-02_task-ml_proj-bip_2020-11-20-10-18-43.960205
174	6	2	4	175	stable	1	200	175	sv	blue	red	blue	red	left	right	0.7	0.30000000000000004	6	2	4.199999999999998	0.6000000000000001	1	0	0.7	0.30000000000000004	6	2	4.199999999999998	0.6000000000000001	valid	0.4665569129992946	51200	0	0	1	51200	1	51200	1	51200	1	0.7	51200	blue	red	1	6	ml	2.7.3	bip	sub-06_ses-02_task-ml_proj-bip_2020-11-20-10-18-43.960205
175	6	2	4	176	stable	1	200	176	sv	blue	red	blue	red	left	right	0.7	0.30000000000000004	2	6	1.4	1.8000000000000005	1	0	0.7	0.30000000000000004	2	6	1.4	1.8000000000000005	valid	0.4499117569994269	53248	0	1	2	53248	1	51200	0	53248	1	0.7	51200	blue	red	0	0	ml	2.7.3	bip	sub-06_ses-02_task-ml_proj-bip_2020-11-20-10-18-43.960205
176	6	2	4	177	stable	1	200	177	sv	red	blue	blue	red	right	left	0.7	0.30000000000000004	2	10	1.4	3.0000000000000004	0	1	0.30000000000000004	0.7	10	2	3.0000000000000004	1.4	invalid	0.3999163050011703	51200	0	0	2	51200	1	53248	0	51200	1	0.7	53248	blue	red	0	10	ml	2.7.3	bip	sub-06_ses-02_task-ml_proj-bip_2020-11-20-10-18-43.960205
177	6	2	4	178	stable	1	200	178	sv	red	blue	blue	red	right	left	0.7	0.30000000000000004	2	2	1.4	0.6000000000000001	1	0	0.30000000000000004	0.7	2	2	0.6000000000000001	1.4	valid	0.4332449450012064	53248	0	1	1	53248	1	53248	1	53248	1	0.7	53248	blue	red	0	2	ml	2.7.3	bip	sub-06_ses-02_task-ml_proj-bip_2020-11-20-10-18-43.960205
178	6	2	4	179	stable	1	200	179	sv	blue	red	blue	red	left	right	0.7	0.30000000000000004	4	6	2.8	1.8000000000000005	1	0	0.7	0.30000000000000004	4	6	2.8	1.8000000000000005	valid	0.5998535470007482	51200	0	0	1	51200	1	51200	1	53248	0	0.7	51200	blue	red	0	4	ml	2.7.3	bip	sub-06_ses-02_task-ml_proj-bip_2020-11-20-10-18-43.960205
179	6	2	4	180	stable	1	200	180	sv	blue	red	blue	red	left	right	0.7	0.30000000000000004	6	2	4.199999999999998	0.6000000000000001	1	0	0.7	0.30000000000000004	6	2	4.199999999999998	0.6000000000000001	valid	0.8331217499999184	51200	0	0	1	51200	1	51200	1	51200	1	0.7	51200	blue	red	1	6	ml	2.7.3	bip	sub-06_ses-02_task-ml_proj-bip_2020-11-20-10-18-43.960205
180	6	2	4	181	stable	1	200	181	sv	blue	red	blue	red	left	right	0.7	0.30000000000000004	2	2	1.4	0.6000000000000001	1	0	0.7	0.30000000000000004	2	2	1.4	0.6000000000000001	valid	0.6165130339995812	51200	0	0	1	51200	1	51200	1	53248	0	0.7	51200	blue	red	1	2	ml	2.7.3	bip	sub-06_ses-02_task-ml_proj-bip_2020-11-20-10-18-43.960205
181	6	2	4	182	stable	1	200	182	sv	blue	red	blue	red	left	right	0.7	0.30000000000000004	2	6	1.4	1.8000000000000005	0	1	0.7	0.30000000000000004	2	6	1.4	1.8000000000000005	invalid	0.8997543610003049	51200	0	0	1	53248	0	51200	1	53248	0	0.7	51200	blue	red	0	0	ml	2.7.3	bip	sub-06_ses-02_task-ml_proj-bip_2020-11-20-10-18-43.960205
182	6	2	4	183	stable	1	200	183	sv	red	blue	blue	red	right	left	0.7	0.30000000000000004	2	2	1.4	0.6000000000000001	0	1	0.30000000000000004	0.7	2	2	0.6000000000000001	1.4	invalid	0.3999201899987384	53248	0	1	1	53248	1	53248	1	53248	1	0.7	53248	blue	red	0	0	ml	2.7.3	bip	sub-06_ses-02_task-ml_proj-bip_2020-11-20-10-18-43.960205
183	6	2	4	184	stable	1	200	184	sv	red	blue	blue	red	right	left	0.7	0.30000000000000004	4	6	2.8	1.8000000000000005	1	0	0.30000000000000004	0.7	6	4	1.8000000000000005	2.8	valid	0.9830856869994022	53248	0	1	1	53248	1	53248	1	51200	0	0.7	53248	blue	red	0	4	ml	2.7.3	bip	sub-06_ses-02_task-ml_proj-bip_2020-11-20-10-18-43.960205
184	6	2	4	185	stable	1	200	185	sv	red	blue	blue	red	right	left	0.7	0.30000000000000004	4	2	2.8	0.6000000000000001	1	0	0.30000000000000004	0.7	2	4	0.6000000000000001	2.8	valid	0.5998557749990141	53248	0	1	1	53248	1	53248	1	53248	1	0.7	53248	blue	red	1	4	ml	2.7.3	bip	sub-06_ses-02_task-ml_proj-bip_2020-11-20-10-18-43.960205
185	6	2	4	186	stable	1	200	186	sv	blue	red	blue	red	left	right	0.7	0.30000000000000004	10	2	7.0	0.6000000000000001	1	0	0.7	0.30000000000000004	10	2	7.0	0.6000000000000001	valid	0.38325517799967207	51200	0	0	1	51200	1	51200	1	51200	1	0.7	51200	blue	red	1	10	ml	2.7.3	bip	sub-06_ses-02_task-ml_proj-bip_2020-11-20-10-18-43.960205
186	6	2	4	187	stable	1	200	187	sv	blue	red	blue	red	left	right	0.7	0.30000000000000004	10	2	7.0	0.6000000000000001	1	0	0.7	0.30000000000000004	10	2	7.0	0.6000000000000001	valid	0.4165719299999182	51200	0	0	1	51200	1	51200	1	51200	1	0.7	51200	blue	red	1	10	ml	2.7.3	bip	sub-06_ses-02_task-ml_proj-bip_2020-11-20-10-18-43.960205
187	6	2	4	188	stable	1	200	188	sv	red	blue	blue	red	right	left	0.7	0.30000000000000004	10	2	7.0	0.6000000000000001	0	1	0.30000000000000004	0.7	2	10	0.6000000000000001	7.0	invalid	0.399921161999373	53248	0	1	1	53248	1	53248	1	53248	1	0.7	53248	blue	red	1	0	ml	2.7.3	bip	sub-06_ses-02_task-ml_proj-bip_2020-11-20-10-18-43.960205
188	6	2	4	189	stable	1	200	189	sv	blue	red	blue	red	left	right	0.7	0.30000000000000004	6	2	4.199999999999998	0.6000000000000001	0	1	0.7	0.30000000000000004	6	2	4.199999999999998	0.6000000000000001	invalid	0.3832445680000092	51200	0	0	1	51200	1	51200	1	51200	1	0.7	51200	blue	red	1	0	ml	2.7.3	bip	sub-06_ses-02_task-ml_proj-bip_2020-11-20-10-18-43.960205
189	6	2	4	190	stable	1	200	190	sv	red	blue	blue	red	right	left	0.7	0.30000000000000004	10	2	7.0	0.6000000000000001	0	1	0.30000000000000004	0.7	2	10	0.6000000000000001	7.0	invalid	0.4832298920009634	53248	0	1	1	53248	1	53248	1	53248	1	0.7	53248	blue	red	1	0	ml	2.7.3	bip	sub-06_ses-02_task-ml_proj-bip_2020-11-20-10-18-43.960205
190	6	2	4	191	stable	1	200	191	sv	blue	red	blue	red	left	right	0.7	0.30000000000000004	10	2	7.0	0.6000000000000001	1	0	0.7	0.30000000000000004	10	2	7.0	0.6000000000000001	valid	0.6498388090003573	51200	0	0	1	51200	1	51200	1	51200	1	0.7	51200	blue	red	1	10	ml	2.7.3	bip	sub-06_ses-02_task-ml_proj-bip_2020-11-20-10-18-43.960205
191	6	2	4	192	stable	1	200	192	sv	blue	red	blue	red	left	right	0.7	0.30000000000000004	2	2	1.4	0.6000000000000001	1	0	0.7	0.30000000000000004	2	2	1.4	0.6000000000000001	valid	0.4499069020002935	51200	0	0	1	51200	1	51200	1	53248	0	0.7	51200	blue	red	1	2	ml	2.7.3	bip	sub-06_ses-02_task-ml_proj-bip_2020-11-20-10-18-43.960205
192	6	2	4	193	stable	1	200	193	sv	blue	red	blue	red	left	right	0.7	0.30000000000000004	4	2	2.8	0.6000000000000001	1	0	0.7	0.30000000000000004	4	2	2.8	0.6000000000000001	valid	0.38324900299994624	51200	0	0	1	51200	1	51200	1	51200	1	0.7	51200	blue	red	1	4	ml	2.7.3	bip	sub-06_ses-02_task-ml_proj-bip_2020-11-20-10-18-43.960205
193	6	2	4	194	stable	1	200	194	sv	blue	red	blue	red	left	right	0.7	0.30000000000000004	2	10	1.4	3.0000000000000004	0	1	0.7	0.30000000000000004	2	10	1.4	3.0000000000000004	invalid	0.4998955209994165	53248	0	1	2	53248	1	51200	0	53248	1	0.7	51200	blue	red	0	10	ml	2.7.3	bip	sub-06_ses-02_task-ml_proj-bip_2020-11-20-10-18-43.960205
194	6	2	4	195	stable	1	200	195	sv	blue	red	blue	red	left	right	0.7	0.30000000000000004	6	2	4.199999999999998	0.6000000000000001	1	0	0.7	0.30000000000000004	6	2	4.199999999999998	0.6000000000000001	valid	0.3832468679993326	51200	0	0	1	51200	1	51200	1	51200	1	0.7	51200	blue	red	1	6	ml	2.7.3	bip	sub-06_ses-02_task-ml_proj-bip_2020-11-20-10-18-43.960205
195	6	2	4	196	stable	1	200	196	sv	blue	red	blue	red	left	right	0.7	0.30000000000000004	10	2	7.0	0.6000000000000001	0	1	0.7	0.30000000000000004	10	2	7.0	0.6000000000000001	invalid	0.4498952000012649	51200	0	0	1	51200	1	51200	1	51200	1	0.7	51200	blue	red	1	0	ml	2.7.3	bip	sub-06_ses-02_task-ml_proj-bip_2020-11-20-10-18-43.960205
196	6	2	4	197	stable	1	200	197	sv	red	blue	blue	red	right	left	0.7	0.30000000000000004	6	4	4.199999999999998	1.2000000000000002	1	0	0.30000000000000004	0.7	4	6	1.2000000000000002	4.199999999999998	valid	0.34993840499919315	53248	0	1	1	53248	1	53248	1	53248	1	0.7	53248	blue	red	1	6	ml	2.7.3	bip	sub-06_ses-02_task-ml_proj-bip_2020-11-20-10-18-43.960205
197	6	2	4	198	stable	1	200	198	sv	blue	red	blue	red	left	right	0.7	0.30000000000000004	10	2	7.0	0.6000000000000001	1	0	0.7	0.30000000000000004	10	2	7.0	0.6000000000000001	valid	0.3665858770000341	51200	0	0	1	51200	1	51200	1	51200	1	0.7	51200	blue	red	1	10	ml	2.7.3	bip	sub-06_ses-02_task-ml_proj-bip_2020-11-20-10-18-43.960205
198	6	2	4	199	stable	1	200	199	sv	blue	red	blue	red	left	right	0.7	0.30000000000000004	6	4	4.199999999999998	1.2000000000000002	0	1	0.7	0.30000000000000004	6	4	4.199999999999998	1.2000000000000002	invalid	0.3499184409993177	51200	0	0	1	51200	1	51200	1	51200	1	0.7	51200	blue	red	1	0	ml	2.7.3	bip	sub-06_ses-02_task-ml_proj-bip_2020-11-20-10-18-43.960205
199	6	2	4	200	stable	1	200	200	sv	red	blue	blue	red	right	left	0.7	0.30000000000000004	6	2	4.199999999999998	0.6000000000000001	1	0	0.30000000000000004	0.7	2	6	0.6000000000000001	4.199999999999998	valid	0.38325304000136384	53248	0	1	1	53248	1	53248	1	53248	1	0.7	53248	blue	red	1	6	ml	2.7.3	bip	sub-06_ses-02_task-ml_proj-bip_2020-11-20-10-18-43.960205
200	6	2	5	201	volatile	2	20	1	sv	red	blue	blue	red	right	left	0.30000000000000004	0.7	4	2	1.2000000000000002	1.4	1	0	0.7	0.30000000000000004	2	4	1.4	1.2000000000000002	invalid	0.3999187890003668	53248	0	1	1	51200	0	51200	0	53248	1	0.7	51200	red	blue	0	4	ml	2.7.3	bip	sub-06_ses-02_task-ml_proj-bip_2020-11-20-10-18-43.960205
201	6	2	5	202	volatile	2	20	2	sv	blue	red	blue	red	left	right	0.30000000000000004	0.7	4	6	1.2000000000000002	4.199999999999998	0	1	0.30000000000000004	0.7	4	6	1.2000000000000002	4.199999999999998	valid	0.8664405049985362	51200	0	0	1	53248	0	53248	0	53248	0	0.7	53248	red	blue	1	0	ml	2.7.3	bip	sub-06_ses-02_task-ml_proj-bip_2020-11-20-10-18-43.960205
202	6	2	5	203	volatile	2	20	3	sv	red	blue	blue	red	right	left	0.30000000000000004	0.7	2	10	0.6000000000000001	7.0	0	1	0.7	0.30000000000000004	10	2	7.0	0.6000000000000001	valid	0.5332044450005924	51200	0	0	2	51200	1	51200	1	51200	1	0.7	51200	red	blue	1	10	ml	2.7.3	bip	sub-06_ses-02_task-ml_proj-bip_2020-11-20-10-18-43.960205
203	6	2	5	204	volatile	2	20	4	sv	red	blue	blue	red	right	left	0.30000000000000004	0.7	6	4	1.8000000000000005	2.8	0	1	0.7	0.30000000000000004	4	6	2.8	1.8000000000000005	valid	0.4332354880007188	51200	0	0	2	51200	1	51200	1	53248	0	0.7	51200	red	blue	0	4	ml	2.7.3	bip	sub-06_ses-02_task-ml_proj-bip_2020-11-20-10-18-43.960205
204	6	2	5	205	volatile	2	20	5	sv	blue	red	blue	red	left	right	0.30000000000000004	0.7	6	4	1.8000000000000005	2.8	0	1	0.30000000000000004	0.7	6	4	1.8000000000000005	2.8	valid	0.3999212399994576	53248	0	1	2	53248	1	53248	1	51200	0	0.7	53248	red	blue	0	4	ml	2.7.3	bip	sub-06_ses-02_task-ml_proj-bip_2020-11-20-10-18-43.960205
205	6	2	5	206	volatile	2	20	6	sv	blue	red	blue	red	left	right	0.30000000000000004	0.7	6	6	1.8000000000000005	4.199999999999998	0	1	0.30000000000000004	0.7	6	6	1.8000000000000005	4.199999999999998	valid	0.4498992210010329	53248	0	1	2	53248	1	53248	1	53248	1	0.7	53248	red	blue	0	6	ml	2.7.3	bip	sub-06_ses-02_task-ml_proj-bip_2020-11-20-10-18-43.960205
206	6	2	5	207	volatile	2	20	7	sv	red	blue	blue	red	right	left	0.30000000000000004	0.7	10	2	3.0000000000000004	1.4	0	1	0.7	0.30000000000000004	2	10	1.4	3.0000000000000004	valid	0.3332627750005486	51200	0	0	2	53248	0	51200	1	53248	0	0.7	51200	red	blue	0	2	ml	2.7.3	bip	sub-06_ses-02_task-ml_proj-bip_2020-11-20-10-18-43.960205
207	6	2	5	208	volatile	2	20	8	sv	red	blue	blue	red	right	left	0.30000000000000004	0.7	10	2	3.0000000000000004	1.4	0	1	0.7	0.30000000000000004	2	10	1.4	3.0000000000000004	valid	0.2999410550000903	51200	0	0	2	53248	0	51200	1	53248	0	0.7	51200	red	blue	0	2	ml	2.7.3	bip	sub-06_ses-02_task-ml_proj-bip_2020-11-20-10-18-43.960205
208	6	2	5	209	volatile	2	20	9	sv	blue	red	blue	red	left	right	0.30000000000000004	0.7	10	2	3.0000000000000004	1.4	1	0	0.30000000000000004	0.7	10	2	3.0000000000000004	1.4	invalid	0.5831888859993342	51200	0	0	1	51200	1	53248	0	51200	1	0.7	53248	red	blue	0	10	ml	2.7.3	bip	sub-06_ses-02_task-ml_proj-bip_2020-11-20-10-18-43.960205
209	6	2	5	210	volatile	2	20	10	sv	blue	red	blue	red	left	right	0.30000000000000004	0.7	2	6	0.6000000000000001	4.199999999999998	1	0	0.30000000000000004	0.7	2	6	0.6000000000000001	4.199999999999998	invalid	0.3832597370001167	53248	0	1	2	53248	1	53248	1	53248	1	0.7	53248	red	blue	1	0	ml	2.7.3	bip	sub-06_ses-02_task-ml_proj-bip_2020-11-20-10-18-43.960205
210	6	2	5	211	volatile	2	20	11	sv	red	blue	blue	red	right	left	0.30000000000000004	0.7	6	6	1.8000000000000005	4.199999999999998	1	0	0.7	0.30000000000000004	6	6	4.199999999999998	1.8000000000000005	invalid	0.3665863249989343	51200	0	0	2	51200	1	51200	1	53248	0	0.7	51200	red	blue	1	0	ml	2.7.3	bip	sub-06_ses-02_task-ml_proj-bip_2020-11-20-10-18-43.960205
211	6	2	5	212	volatile	2	20	12	sv	blue	red	blue	red	left	right	0.30000000000000004	0.7	4	2	1.2000000000000002	1.4	1	0	0.30000000000000004	0.7	4	2	1.2000000000000002	1.4	invalid	0.4332427259996621	53248	0	1	2	53248	1	53248	1	51200	0	0.7	53248	red	blue	0	0	ml	2.7.3	bip	sub-06_ses-02_task-ml_proj-bip_2020-11-20-10-18-43.960205
212	6	2	5	213	volatile	2	20	13	sv	red	blue	blue	red	right	left	0.30000000000000004	0.7	6	2	1.8000000000000005	1.4	0	1	0.7	0.30000000000000004	2	6	1.4	1.8000000000000005	valid	0.3832585860000109	53248	0	1	1	53248	1	51200	0	53248	1	0.7	51200	red	blue	0	0	ml	2.7.3	bip	sub-06_ses-02_task-ml_proj-bip_2020-11-20-10-18-43.960205
213	6	2	5	214	volatile	2	20	14	sv	red	blue	blue	red	right	left	0.30000000000000004	0.7	2	2	0.6000000000000001	1.4	1	0	0.7	0.30000000000000004	2	2	1.4	0.6000000000000001	invalid	0.2332950919990253	51200	0	0	2	51200	1	51200	1	53248	0	0.7	51200	red	blue	1	0	ml	2.7.3	bip	sub-06_ses-02_task-ml_proj-bip_2020-11-20-10-18-43.960205
214	6	2	5	215	volatile	2	20	15	sv	red	blue	blue	red	right	left	0.30000000000000004	0.7	4	6	1.2000000000000002	4.199999999999998	0	1	0.7	0.30000000000000004	6	4	4.199999999999998	1.2000000000000002	valid	0.3665982380007336	53248	0	1	1	51200	0	51200	0	51200	0	0.7	51200	red	blue	1	0	ml	2.7.3	bip	sub-06_ses-02_task-ml_proj-bip_2020-11-20-10-18-43.960205
215	6	2	5	216	volatile	2	20	16	sv	red	blue	blue	red	right	left	0.30000000000000004	0.7	2	2	0.6000000000000001	1.4	0	1	0.7	0.30000000000000004	2	2	1.4	0.6000000000000001	valid	0.4332424020012695	53248	0	1	1	51200	0	51200	0	53248	1	0.7	51200	red	blue	1	0	ml	2.7.3	bip	sub-06_ses-02_task-ml_proj-bip_2020-11-20-10-18-43.960205
216	6	2	5	217	volatile	2	20	17	sv	blue	red	blue	red	left	right	0.30000000000000004	0.7	6	2	1.8000000000000005	1.4	0	1	0.30000000000000004	0.7	6	2	1.8000000000000005	1.4	valid	0.4332436950007832	51200	0	0	1	51200	1	53248	0	51200	1	0.7	53248	red	blue	0	0	ml	2.7.3	bip	sub-06_ses-02_task-ml_proj-bip_2020-11-20-10-18-43.960205
217	6	2	5	218	volatile	2	20	18	sv	blue	red	blue	red	left	right	0.30000000000000004	0.7	6	2	1.8000000000000005	1.4	0	1	0.30000000000000004	0.7	6	2	1.8000000000000005	1.4	valid	0.4165700829998968	51200	0	0	1	51200	1	53248	0	51200	1	0.7	53248	red	blue	0	0	ml	2.7.3	bip	sub-06_ses-02_task-ml_proj-bip_2020-11-20-10-18-43.960205
218	6	2	5	219	volatile	2	20	19	sv	blue	red	blue	red	left	right	0.30000000000000004	0.7	2	4	0.6000000000000001	2.8	0	1	0.30000000000000004	0.7	2	4	0.6000000000000001	2.8	valid	0.3499426930011396	53248	0	1	2	53248	1	53248	1	53248	1	0.7	53248	red	blue	1	4	ml	2.7.3	bip	sub-06_ses-02_task-ml_proj-bip_2020-11-20-10-18-43.960205
219	6	2	5	220	volatile	2	20	20	sv	blue	red	blue	red	left	right	0.30000000000000004	0.7	4	2	1.2000000000000002	1.4	0	1	0.30000000000000004	0.7	4	2	1.2000000000000002	1.4	valid	0.3332719240006554	53248	0	1	2	53248	1	53248	1	51200	0	0.7	53248	red	blue	0	2	ml	2.7.3	bip	sub-06_ses-02_task-ml_proj-bip_2020-11-20-10-18-43.960205
220	6	2	5	221	volatile	3	40	1	sv	red	blue	blue	red	right	left	0.7	0.30000000000000004	4	2	2.8	0.6000000000000001	1	0	0.30000000000000004	0.7	2	4	0.6000000000000001	2.8	valid	0.38324984300015785	51200	0	0	2	53248	0	53248	0	53248	0	0.7	53248	blue	red	1	0	ml	2.7.3	bip	sub-06_ses-02_task-ml_proj-bip_2020-11-20-10-18-43.960205
221	6	2	5	222	volatile	3	40	2	sv	blue	red	blue	red	left	right	0.7	0.30000000000000004	2	6	1.4	1.8000000000000005	1	0	0.7	0.30000000000000004	2	6	1.4	1.8000000000000005	valid	0.3332793019999372	53248	0	1	2	53248	1	51200	0	53248	1	0.7	51200	blue	red	0	0	ml	2.7.3	bip	sub-06_ses-02_task-ml_proj-bip_2020-11-20-10-18-43.960205
222	6	2	5	223	volatile	3	40	3	sv	blue	red	blue	red	left	right	0.7	0.30000000000000004	2	10	1.4	3.0000000000000004	1	0	0.7	0.30000000000000004	2	10	1.4	3.0000000000000004	valid	0.4665655750013684	53248	0	1	2	53248	1	51200	0	53248	1	0.7	51200	blue	red	0	0	ml	2.7.3	bip	sub-06_ses-02_task-ml_proj-bip_2020-11-20-10-18-43.960205
223	6	2	5	224	volatile	3	40	4	sv	blue	red	blue	red	left	right	0.7	0.30000000000000004	4	2	2.8	0.6000000000000001	1	0	0.7	0.30000000000000004	4	2	2.8	0.6000000000000001	valid	0.4665593249992526	51200	0	0	1	51200	1	51200	1	51200	1	0.7	51200	blue	red	1	4	ml	2.7.3	bip	sub-06_ses-02_task-ml_proj-bip_2020-11-20-10-18-43.960205
224	6	2	5	225	volatile	3	40	5	sv	red	blue	blue	red	right	left	0.7	0.30000000000000004	2	2	1.4	0.6000000000000001	1	0	0.30000000000000004	0.7	2	2	0.6000000000000001	1.4	valid	0.4332454209998105	53248	0	1	1	53248	1	53248	1	53248	1	0.7	53248	blue	red	0	2	ml	2.7.3	bip	sub-06_ses-02_task-ml_proj-bip_2020-11-20-10-18-43.960205
225	6	2	5	226	volatile	3	40	6	sv	blue	red	blue	red	left	right	0.7	0.30000000000000004	10	2	7.0	0.6000000000000001	1	0	0.7	0.30000000000000004	10	2	7.0	0.6000000000000001	valid	0.41656988200156775	51200	0	0	1	51200	1	51200	1	51200	1	0.7	51200	blue	red	1	10	ml	2.7.3	bip	sub-06_ses-02_task-ml_proj-bip_2020-11-20-10-18-43.960205
226	6	2	5	227	volatile	3	40	7	sv	blue	red	blue	red	left	right	0.7	0.30000000000000004	2	6	1.4	1.8000000000000005	1	0	0.7	0.30000000000000004	2	6	1.4	1.8000000000000005	valid	0.433240921000106	51200	0	0	1	53248	0	51200	1	53248	0	0.7	51200	blue	red	0	2	ml	2.7.3	bip	sub-06_ses-02_task-ml_proj-bip_2020-11-20-10-18-43.960205
227	6	2	5	228	volatile	3	40	8	sv	blue	red	blue	red	left	right	0.7	0.30000000000000004	2	2	1.4	0.6000000000000001	1	0	0.7	0.30000000000000004	2	2	1.4	0.6000000000000001	valid	0.8664396029998898	51200	0	0	1	51200	1	51200	1	53248	0	0.7	51200	blue	red	1	2	ml	2.7.3	bip	sub-06_ses-02_task-ml_proj-bip_2020-11-20-10-18-43.960205
228	6	2	5	229	volatile	3	40	9	sv	blue	red	blue	red	left	right	0.7	0.30000000000000004	2	4	1.4	1.2000000000000002	1	0	0.7	0.30000000000000004	2	4	1.4	1.2000000000000002	valid	0.9497570639996412	53248	0	1	2	51200	0	51200	0	53248	1	0.7	51200	blue	red	0	0	ml	2.7.3	bip	sub-06_ses-02_task-ml_proj-bip_2020-11-20-10-18-43.960205
229	6	2	5	230	volatile	3	40	10	sv	red	blue	blue	red	right	left	0.7	0.30000000000000004	6	4	4.199999999999998	1.2000000000000002	0	1	0.30000000000000004	0.7	4	6	1.2000000000000002	4.199999999999998	invalid	0.3665875820006477	51200	0	0	2	53248	0	53248	0	53248	0	0.7	53248	blue	red	1	4	ml	2.7.3	bip	sub-06_ses-02_task-ml_proj-bip_2020-11-20-10-18-43.960205
230	6	2	5	231	volatile	3	40	11	sv	red	blue	blue	red	right	left	0.7	0.30000000000000004	10	2	7.0	0.6000000000000001	1	0	0.30000000000000004	0.7	2	10	0.6000000000000001	7.0	valid	0.4832362590004777	53248	0	1	1	53248	1	53248	1	53248	1	0.7	53248	blue	red	1	10	ml	2.7.3	bip	sub-06_ses-02_task-ml_proj-bip_2020-11-20-10-18-43.960205
231	6	2	5	232	volatile	3	40	12	sv	blue	red	blue	red	left	right	0.7	0.30000000000000004	6	4	4.199999999999998	1.2000000000000002	0	1	0.7	0.30000000000000004	6	4	4.199999999999998	1.2000000000000002	invalid	0.4332358510000631	51200	0	0	1	51200	1	51200	1	51200	1	0.7	51200	blue	red	1	0	ml	2.7.3	bip	sub-06_ses-02_task-ml_proj-bip_2020-11-20-10-18-43.960205
232	6	2	5	233	volatile	3	40	13	sv	red	blue	blue	red	right	left	0.7	0.30000000000000004	6	6	4.199999999999998	1.8000000000000005	1	0	0.30000000000000004	0.7	6	6	1.8000000000000005	4.199999999999998	valid	0.3832617560001381	53248	0	1	1	53248	1	53248	1	53248	1	0.7	53248	blue	red	0	6	ml	2.7.3	bip	sub-06_ses-02_task-ml_proj-bip_2020-11-20-10-18-43.960205
233	6	2	5	234	volatile	3	40	14	sv	blue	red	blue	red	left	right	0.7	0.30000000000000004	2	6	1.4	1.8000000000000005	1	0	0.7	0.30000000000000004	2	6	1.4	1.8000000000000005	valid	0.5332154289990285	53248	0	1	2	53248	1	51200	0	53248	1	0.7	51200	blue	red	0	0	ml	2.7.3	bip	sub-06_ses-02_task-ml_proj-bip_2020-11-20-10-18-43.960205
234	6	2	5	235	volatile	3	40	15	sv	red	blue	blue	red	right	left	0.7	0.30000000000000004	2	10	1.4	3.0000000000000004	0	1	0.30000000000000004	0.7	10	2	3.0000000000000004	1.4	invalid	0.39991035499951977	51200	0	0	2	51200	1	53248	0	51200	1	0.7	53248	blue	red	0	10	ml	2.7.3	bip	sub-06_ses-02_task-ml_proj-bip_2020-11-20-10-18-43.960205
235	6	2	5	236	volatile	3	40	16	sv	red	blue	blue	red	right	left	0.7	0.30000000000000004	2	10	1.4	3.0000000000000004	1	0	0.30000000000000004	0.7	10	2	3.0000000000000004	1.4	valid	0.5998639829995227	51200	0	0	2	51200	1	53248	0	51200	1	0.7	53248	blue	red	0	0	ml	2.7.3	bip	sub-06_ses-02_task-ml_proj-bip_2020-11-20-10-18-43.960205
236	6	2	5	237	volatile	3	40	17	sv	blue	red	blue	red	left	right	0.7	0.30000000000000004	6	6	4.199999999999998	1.8000000000000005	1	0	0.7	0.30000000000000004	6	6	4.199999999999998	1.8000000000000005	valid	0.4332476769995992	53248	0	1	2	51200	0	51200	0	53248	1	0.7	51200	blue	red	1	0	ml	2.7.3	bip	sub-06_ses-02_task-ml_proj-bip_2020-11-20-10-18-43.960205
237	6	2	5	238	volatile	3	40	18	sv	red	blue	blue	red	right	left	0.7	0.30000000000000004	4	6	2.8	1.8000000000000005	1	0	0.30000000000000004	0.7	6	4	1.8000000000000005	2.8	valid	0.4998953650010662	53248	0	1	1	53248	1	53248	1	51200	0	0.7	53248	blue	red	0	4	ml	2.7.3	bip	sub-06_ses-02_task-ml_proj-bip_2020-11-20-10-18-43.960205
238	6	2	5	239	volatile	3	40	19	sv	red	blue	blue	red	right	left	0.7	0.30000000000000004	10	2	7.0	0.6000000000000001	1	0	0.30000000000000004	0.7	2	10	0.6000000000000001	7.0	valid	0.5665430359986203	53248	0	1	1	53248	1	53248	1	53248	1	0.7	53248	blue	red	1	10	ml	2.7.3	bip	sub-06_ses-02_task-ml_proj-bip_2020-11-20-10-18-43.960205
239	6	2	5	240	volatile	3	40	20	sv	red	blue	blue	red	right	left	0.7	0.30000000000000004	2	4	1.4	1.2000000000000002	1	0	0.30000000000000004	0.7	4	2	1.2000000000000002	1.4	valid	0.449893922001138	51200	0	0	2	53248	0	53248	0	51200	1	0.7	53248	blue	red	0	0	ml	2.7.3	bip	sub-06_ses-02_task-ml_proj-bip_2020-11-20-10-18-43.960205
240	6	2	5	241	volatile	3	40	21	sv	blue	red	blue	red	left	right	0.7	0.30000000000000004	4	6	2.8	1.8000000000000005	0	1	0.7	0.30000000000000004	4	6	2.8	1.8000000000000005	invalid	0.3665959070003737	53248	0	1	2	51200	0	51200	0	53248	1	0.7	51200	blue	red	0	6	ml	2.7.3	bip	sub-06_ses-02_task-ml_proj-bip_2020-11-20-10-18-43.960205
241	6	2	5	242	volatile	3	40	22	sv	red	blue	blue	red	right	left	0.7	0.30000000000000004	2	10	1.4	3.0000000000000004	1	0	0.30000000000000004	0.7	10	2	3.0000000000000004	1.4	valid	0.2999387569998362	51200	0	0	2	51200	1	53248	0	51200	1	0.7	53248	blue	red	0	0	ml	2.7.3	bip	sub-06_ses-02_task-ml_proj-bip_2020-11-20-10-18-43.960205
242	6	2	5	243	volatile	3	40	23	sv	red	blue	blue	red	right	left	0.7	0.30000000000000004	2	2	1.4	0.6000000000000001	0	1	0.30000000000000004	0.7	2	2	0.6000000000000001	1.4	invalid	0.3166027019997273	51200	0	0	2	53248	0	53248	0	53248	0	0.7	53248	blue	red	0	2	ml	2.7.3	bip	sub-06_ses-02_task-ml_proj-bip_2020-11-20-10-18-43.960205
243	6	2	5	244	volatile	3	40	24	sv	blue	red	blue	red	left	right	0.7	0.30000000000000004	2	4	1.4	1.2000000000000002	0	1	0.7	0.30000000000000004	2	4	1.4	1.2000000000000002	invalid	0.3832668619998003	53248	0	1	2	51200	0	51200	0	53248	1	0.7	51200	blue	red	0	4	ml	2.7.3	bip	sub-06_ses-02_task-ml_proj-bip_2020-11-20-10-18-43.960205
244	6	2	5	245	volatile	3	40	25	sv	blue	red	blue	red	left	right	0.7	0.30000000000000004	6	2	4.199999999999998	0.6000000000000001	1	0	0.7	0.30000000000000004	6	2	4.199999999999998	0.6000000000000001	valid	0.3832474310001999	51200	0	0	1	51200	1	51200	1	51200	1	0.7	51200	blue	red	1	6	ml	2.7.3	bip	sub-06_ses-02_task-ml_proj-bip_2020-11-20-10-18-43.960205
245	6	2	5	246	volatile	3	40	26	sv	blue	red	blue	red	left	right	0.7	0.30000000000000004	6	2	4.199999999999998	0.6000000000000001	0	1	0.7	0.30000000000000004	6	2	4.199999999999998	0.6000000000000001	invalid	0.3832464600000094	51200	0	0	1	51200	1	51200	1	51200	1	0.7	51200	blue	red	1	0	ml	2.7.3	bip	sub-06_ses-02_task-ml_proj-bip_2020-11-20-10-18-43.960205
246	6	2	5	247	volatile	3	40	27	sv	blue	red	blue	red	left	right	0.7	0.30000000000000004	6	4	4.199999999999998	1.2000000000000002	0	1	0.7	0.30000000000000004	6	4	4.199999999999998	1.2000000000000002	invalid	0.31660038600057305	51200	0	0	1	51200	1	51200	1	51200	1	0.7	51200	blue	red	1	0	ml	2.7.3	bip	sub-06_ses-02_task-ml_proj-bip_2020-11-20-10-18-43.960205
247	6	2	5	248	volatile	3	40	28	sv	red	blue	blue	red	right	left	0.7	0.30000000000000004	2	4	1.4	1.2000000000000002	0	1	0.30000000000000004	0.7	4	2	1.2000000000000002	1.4	invalid	0.39991278600064106	51200	0	0	2	53248	0	53248	0	51200	1	0.7	53248	blue	red	0	4	ml	2.7.3	bip	sub-06_ses-02_task-ml_proj-bip_2020-11-20-10-18-43.960205
248	6	2	5	249	volatile	3	40	29	sv	blue	red	blue	red	left	right	0.7	0.30000000000000004	6	2	4.199999999999998	0.6000000000000001	0	1	0.7	0.30000000000000004	6	2	4.199999999999998	0.6000000000000001	invalid	0.3166106199987553	53248	0	1	2	51200	0	51200	0	51200	0	0.7	51200	blue	red	1	2	ml	2.7.3	bip	sub-06_ses-02_task-ml_proj-bip_2020-11-20-10-18-43.960205
249	6	2	5	250	volatile	3	40	30	sv	red	blue	blue	red	right	left	0.7	0.30000000000000004	10	2	7.0	0.6000000000000001	1	0	0.30000000000000004	0.7	2	10	0.6000000000000001	7.0	valid	0.3999094980008522	51200	0	0	2	53248	0	53248	0	53248	0	0.7	53248	blue	red	1	0	ml	2.7.3	bip	sub-06_ses-02_task-ml_proj-bip_2020-11-20-10-18-43.960205
250	6	2	6	251	volatile	3	40	31	sv	blue	red	blue	red	left	right	0.7	0.30000000000000004	2	4	1.4	1.2000000000000002	1	0	0.7	0.30000000000000004	2	4	1.4	1.2000000000000002	valid	0.4998855630001344	53248	0	1	2	51200	0	51200	0	53248	1	0.7	51200	blue	red	0	0	ml	2.7.3	bip	sub-06_ses-02_task-ml_proj-bip_2020-11-20-10-18-43.960205
251	6	2	6	252	volatile	3	40	32	sv	red	blue	blue	red	right	left	0.7	0.30000000000000004	6	4	4.199999999999998	1.2000000000000002	1	0	0.30000000000000004	0.7	4	6	1.2000000000000002	4.199999999999998	valid	0.3665988360007759	53248	0	1	1	53248	1	53248	1	53248	1	0.7	53248	blue	red	1	6	ml	2.7.3	bip	sub-06_ses-02_task-ml_proj-bip_2020-11-20-10-18-43.960205
252	6	2	6	253	volatile	3	40	33	sv	red	blue	blue	red	right	left	0.7	0.30000000000000004	6	6	4.199999999999998	1.8000000000000005	1	0	0.30000000000000004	0.7	6	6	1.8000000000000005	4.199999999999998	valid	0.14998375399954966	51200	0	0	2	53248	0	53248	0	53248	0	0.7	53248	blue	red	0	0	ml	2.7.3	bip	sub-06_ses-02_task-ml_proj-bip_2020-11-20-10-18-43.960205
253	6	2	6	254	volatile	3	40	34	sv	red	blue	blue	red	right	left	0.7	0.30000000000000004	6	6	4.199999999999998	1.8000000000000005	1	0	0.30000000000000004	0.7	6	6	1.8000000000000005	4.199999999999998	valid	0.349937917000716	53248	0	1	1	53248	1	53248	1	53248	1	0.7	53248	blue	red	0	6	ml	2.7.3	bip	sub-06_ses-02_task-ml_proj-bip_2020-11-20-10-18-43.960205
254	6	2	6	255	volatile	3	40	35	sv	red	blue	blue	red	right	left	0.7	0.30000000000000004	2	6	1.4	1.8000000000000005	0	1	0.30000000000000004	0.7	6	2	1.8000000000000005	1.4	invalid	0.3660060239999439	53248	0	1	1	51200	0	53248	1	51200	0	0.7	53248	blue	red	0	0	ml	2.7.3	bip	sub-06_ses-02_task-ml_proj-bip_2020-11-20-10-18-43.960205
255	6	2	6	256	volatile	3	40	36	sv	red	blue	blue	red	right	left	0.7	0.30000000000000004	2	4	1.4	1.2000000000000002	0	1	0.30000000000000004	0.7	4	2	1.2000000000000002	1.4	invalid	0.4665684499996132	53248	0	1	1	53248	1	53248	1	51200	0	0.7	53248	blue	red	0	0	ml	2.7.3	bip	sub-06_ses-02_task-ml_proj-bip_2020-11-20-10-18-43.960205
256	6	2	6	257	volatile	3	40	37	sv	blue	red	blue	red	left	right	0.7	0.30000000000000004	6	4	4.199999999999998	1.2000000000000002	1	0	0.7	0.30000000000000004	6	4	4.199999999999998	1.2000000000000002	valid	0.4665586550017906	51200	0	0	1	51200	1	51200	1	51200	1	0.7	51200	blue	red	1	6	ml	2.7.3	bip	sub-06_ses-02_task-ml_proj-bip_2020-11-20-10-18-43.960205
257	6	2	6	258	volatile	3	40	38	sv	red	blue	blue	red	right	left	0.7	0.30000000000000004	2	2	1.4	0.6000000000000001	1	0	0.30000000000000004	0.7	2	2	0.6000000000000001	1.4	valid	0.5165613450008095	53248	0	1	1	53248	1	53248	1	53248	1	0.7	53248	blue	red	0	2	ml	2.7.3	bip	sub-06_ses-02_task-ml_proj-bip_2020-11-20-10-18-43.960205
258	6	2	6	259	volatile	3	40	39	sv	blue	red	blue	red	left	right	0.7	0.30000000000000004	2	6	1.4	1.8000000000000005	1	0	0.7	0.30000000000000004	2	6	1.4	1.8000000000000005	valid	0.3832496410013846	51200	0	0	1	53248	0	51200	1	53248	0	0.7	51200	blue	red	0	2	ml	2.7.3	bip	sub-06_ses-02_task-ml_proj-bip_2020-11-20-10-18-43.960205
259	6	2	6	260	volatile	3	40	40	sv	blue	red	blue	red	left	right	0.7	0.30000000000000004	4	6	2.8	1.8000000000000005	1	0	0.7	0.30000000000000004	4	6	2.8	1.8000000000000005	valid	0.3832543510015967	51200	0	0	1	51200	1	51200	1	53248	0	0.7	51200	blue	red	0	4	ml	2.7.3	bip	sub-06_ses-02_task-ml_proj-bip_2020-11-20-10-18-43.960205
260	6	2	6	261	volatile	4	40	1	sv	blue	red	blue	red	left	right	0.30000000000000004	0.7	6	2	1.8000000000000005	1.4	0	1	0.30000000000000004	0.7	6	2	1.8000000000000005	1.4	valid	0.3332638339998084	51200	0	0	1	51200	1	53248	0	51200	1	0.7	53248	red	blue	0	0	ml	2.7.3	bip	sub-06_ses-02_task-ml_proj-bip_2020-11-20-10-18-43.960205
261	6	2	6	262	volatile	4	40	2	sv	red	blue	blue	red	right	left	0.30000000000000004	0.7	4	6	1.2000000000000002	4.199999999999998	1	0	0.7	0.30000000000000004	6	4	4.199999999999998	1.2000000000000002	invalid	0.3832579959998839	53248	0	1	1	51200	0	51200	0	51200	0	0.7	51200	red	blue	1	4	ml	2.7.3	bip	sub-06_ses-02_task-ml_proj-bip_2020-11-20-10-18-43.960205
262	6	2	6	263	volatile	4	40	3	sv	red	blue	blue	red	right	left	0.30000000000000004	0.7	2	6	0.6000000000000001	4.199999999999998	1	0	0.7	0.30000000000000004	6	2	4.199999999999998	0.6000000000000001	invalid	0.4165817289995175	53248	0	1	1	51200	0	51200	0	51200	0	0.7	51200	red	blue	1	2	ml	2.7.3	bip	sub-06_ses-02_task-ml_proj-bip_2020-11-20-10-18-43.960205
263	6	2	6	264	volatile	4	40	4	sv	blue	red	blue	red	left	right	0.30000000000000004	0.7	4	2	1.2000000000000002	1.4	1	0	0.30000000000000004	0.7	4	2	1.2000000000000002	1.4	invalid	0.533204396999281	51200	0	0	1	53248	0	53248	0	51200	1	0.7	53248	red	blue	0	4	ml	2.7.3	bip	sub-06_ses-02_task-ml_proj-bip_2020-11-20-10-18-43.960205
264	6	2	6	265	volatile	4	40	5	sv	blue	red	blue	red	left	right	0.30000000000000004	0.7	2	10	0.6000000000000001	7.0	0	1	0.30000000000000004	0.7	2	10	0.6000000000000001	7.0	valid	0.4665705729985348	53248	0	1	2	53248	1	53248	1	53248	1	0.7	53248	red	blue	1	10	ml	2.7.3	bip	sub-06_ses-02_task-ml_proj-bip_2020-11-20-10-18-43.960205
265	6	2	6	266	volatile	4	40	6	sv	blue	red	blue	red	left	right	0.30000000000000004	0.7	6	2	1.8000000000000005	1.4	1	0	0.30000000000000004	0.7	6	2	1.8000000000000005	1.4	invalid	0.3665892939989135	51200	0	0	1	51200	1	53248	0	51200	1	0.7	53248	red	blue	0	6	ml	2.7.3	bip	sub-06_ses-02_task-ml_proj-bip_2020-11-20-10-18-43.960205
266	6	2	6	267	volatile	4	40	7	sv	red	blue	blue	red	right	left	0.30000000000000004	0.7	6	6	1.8000000000000005	4.199999999999998	0	1	0.7	0.30000000000000004	6	6	4.199999999999998	1.8000000000000005	valid	0.516543472000194	51200	0	0	2	51200	1	51200	1	53248	0	0.7	51200	red	blue	1	6	ml	2.7.3	bip	sub-06_ses-02_task-ml_proj-bip_2020-11-20-10-18-43.960205
267	6	2	6	268	volatile	4	40	8	sv	red	blue	blue	red	right	left	0.30000000000000004	0.7	2	2	0.6000000000000001	1.4	0	1	0.7	0.30000000000000004	2	2	1.4	0.6000000000000001	valid	0.4499066260013933	53248	0	1	1	51200	0	51200	0	53248	1	0.7	51200	red	blue	1	0	ml	2.7.3	bip	sub-06_ses-02_task-ml_proj-bip_2020-11-20-10-18-43.960205
268	6	2	6	269	volatile	4	40	9	sv	blue	red	blue	red	left	right	0.30000000000000004	0.7	2	4	0.6000000000000001	2.8	0	1	0.30000000000000004	0.7	2	4	0.6000000000000001	2.8	valid	0.3832574280004337	53248	0	1	2	53248	1	53248	1	53248	1	0.7	53248	red	blue	1	4	ml	2.7.3	bip	sub-06_ses-02_task-ml_proj-bip_2020-11-20-10-18-43.960205
269	6	2	6	270	volatile	4	40	10	sv	blue	red	blue	red	left	right	0.30000000000000004	0.7	10	2	3.0000000000000004	1.4	0	1	0.30000000000000004	0.7	10	2	3.0000000000000004	1.4	valid	0.7997949370001152	51200	0	0	1	51200	1	53248	0	51200	1	0.7	53248	red	blue	0	0	ml	2.7.3	bip	sub-06_ses-02_task-ml_proj-bip_2020-11-20-10-18-43.960205
270	6	2	6	271	volatile	4	40	11	sv	red	blue	blue	red	right	left	0.30000000000000004	0.7	4	6	1.2000000000000002	4.199999999999998	1	0	0.7	0.30000000000000004	6	4	4.199999999999998	1.2000000000000002	invalid	0.8164588689996891	51200	0	0	2	51200	1	51200	1	51200	1	0.7	51200	red	blue	1	0	ml	2.7.3	bip	sub-06_ses-02_task-ml_proj-bip_2020-11-20-10-18-43.960205
271	6	2	6	272	volatile	4	40	12	sv	blue	red	blue	red	left	right	0.30000000000000004	0.7	4	6	1.2000000000000002	4.199999999999998	1	0	0.30000000000000004	0.7	4	6	1.2000000000000002	4.199999999999998	invalid	0.3666059309998673	53248	0	1	2	53248	1	53248	1	53248	1	0.7	53248	red	blue	1	0	ml	2.7.3	bip	sub-06_ses-02_task-ml_proj-bip_2020-11-20-10-18-43.960205
272	6	2	6	273	volatile	4	40	13	sv	red	blue	blue	red	right	left	0.30000000000000004	0.7	2	4	0.6000000000000001	2.8	1	0	0.7	0.30000000000000004	4	2	2.8	0.6000000000000001	invalid	0.2999426400001539	51200	0	0	2	51200	1	51200	1	51200	1	0.7	51200	red	blue	1	0	ml	2.7.3	bip	sub-06_ses-02_task-ml_proj-bip_2020-11-20-10-18-43.960205
273	6	2	6	274	volatile	4	40	14	sv	blue	red	blue	red	left	right	0.30000000000000004	0.7	2	2	0.6000000000000001	1.4	1	0	0.30000000000000004	0.7	2	2	0.6000000000000001	1.4	invalid	0.34992326499923365	51200	0	0	1	53248	0	53248	0	53248	0	0.7	53248	red	blue	0	2	ml	2.7.3	bip	sub-06_ses-02_task-ml_proj-bip_2020-11-20-10-18-43.960205
274	6	2	6	275	volatile	4	40	15	sv	red	blue	blue	red	right	left	0.30000000000000004	0.7	2	4	0.6000000000000001	2.8	0	1	0.7	0.30000000000000004	4	2	2.8	0.6000000000000001	valid	0.36659422800039465	53248	0	1	1	51200	0	51200	0	51200	0	0.7	51200	red	blue	1	0	ml	2.7.3	bip	sub-06_ses-02_task-ml_proj-bip_2020-11-20-10-18-43.960205
275	6	2	6	276	volatile	4	40	16	sv	red	blue	blue	red	right	left	0.30000000000000004	0.7	4	2	1.2000000000000002	1.4	0	1	0.7	0.30000000000000004	2	4	1.4	1.2000000000000002	valid	0.38325790599992615	53248	0	1	1	51200	0	51200	0	53248	1	0.7	51200	red	blue	0	0	ml	2.7.3	bip	sub-06_ses-02_task-ml_proj-bip_2020-11-20-10-18-43.960205
276	6	2	6	277	volatile	4	40	17	sv	blue	red	blue	red	left	right	0.30000000000000004	0.7	2	6	0.6000000000000001	4.199999999999998	0	1	0.30000000000000004	0.7	2	6	0.6000000000000001	4.199999999999998	valid	0.4998766190001334	51200	0	0	1	53248	0	53248	0	53248	0	0.7	53248	red	blue	1	0	ml	2.7.3	bip	sub-06_ses-02_task-ml_proj-bip_2020-11-20-10-18-43.960205
277	6	2	6	278	volatile	4	40	18	sv	blue	red	blue	red	left	right	0.30000000000000004	0.7	2	6	0.6000000000000001	4.199999999999998	0	1	0.30000000000000004	0.7	2	6	0.6000000000000001	4.199999999999998	valid	0.3499419529998704	53248	0	1	2	53248	1	53248	1	53248	1	0.7	53248	red	blue	1	6	ml	2.7.3	bip	sub-06_ses-02_task-ml_proj-bip_2020-11-20-10-18-43.960205
278	6	2	6	279	volatile	4	40	19	sv	blue	red	blue	red	left	right	0.30000000000000004	0.7	10	2	3.0000000000000004	1.4	1	0	0.30000000000000004	0.7	10	2	3.0000000000000004	1.4	invalid	0.29995008100013365	53248	0	1	2	51200	0	53248	1	51200	0	0.7	53248	red	blue	0	0	ml	2.7.3	bip	sub-06_ses-02_task-ml_proj-bip_2020-11-20-10-18-43.960205
279	6	2	6	280	volatile	4	40	20	sv	blue	red	blue	red	left	right	0.30000000000000004	0.7	6	6	1.8000000000000005	4.199999999999998	0	1	0.30000000000000004	0.7	6	6	1.8000000000000005	4.199999999999998	valid	0.5165492550004274	53248	0	1	2	53248	1	53248	1	53248	1	0.7	53248	red	blue	0	6	ml	2.7.3	bip	sub-06_ses-02_task-ml_proj-bip_2020-11-20-10-18-43.960205
280	6	2	6	281	volatile	4	40	21	sv	blue	red	blue	red	left	right	0.30000000000000004	0.7	4	6	1.2000000000000002	4.199999999999998	0	1	0.30000000000000004	0.7	4	6	1.2000000000000002	4.199999999999998	valid	0.4165767699996649	53248	0	1	2	53248	1	53248	1	53248	1	0.7	53248	red	blue	1	6	ml	2.7.3	bip	sub-06_ses-02_task-ml_proj-bip_2020-11-20-10-18-43.960205
281	6	2	6	282	volatile	4	40	22	sv	red	blue	blue	red	right	left	0.30000000000000004	0.7	10	2	3.0000000000000004	1.4	0	1	0.7	0.30000000000000004	2	10	1.4	3.0000000000000004	valid	0.4332342240013531	51200	0	0	2	53248	0	51200	1	53248	0	0.7	51200	red	blue	0	2	ml	2.7.3	bip	sub-06_ses-02_task-ml_proj-bip_2020-11-20-10-18-43.960205
282	6	2	6	283	volatile	4	40	23	sv	blue	red	blue	red	left	right	0.30000000000000004	0.7	6	2	1.8000000000000005	1.4	0	1	0.30000000000000004	0.7	6	2	1.8000000000000005	1.4	valid	0.4998804779988859	51200	0	0	1	51200	1	53248	0	51200	1	0.7	53248	red	blue	0	0	ml	2.7.3	bip	sub-06_ses-02_task-ml_proj-bip_2020-11-20-10-18-43.960205
283	6	2	6	284	volatile	4	40	24	sv	blue	red	blue	red	left	right	0.30000000000000004	0.7	6	4	1.8000000000000005	2.8	0	1	0.30000000000000004	0.7	6	4	1.8000000000000005	2.8	valid	0.5665385239990428	53248	0	1	2	53248	1	53248	1	51200	0	0.7	53248	red	blue	0	4	ml	2.7.3	bip	sub-06_ses-02_task-ml_proj-bip_2020-11-20-10-18-43.960205
284	6	2	6	285	volatile	4	40	25	sv	red	blue	blue	red	right	left	0.30000000000000004	0.7	6	4	1.8000000000000005	2.8	0	1	0.7	0.30000000000000004	4	6	2.8	1.8000000000000005	valid	0.28325635500004864	51200	0	0	2	51200	1	51200	1	53248	0	0.7	51200	red	blue	0	4	ml	2.7.3	bip	sub-06_ses-02_task-ml_proj-bip_2020-11-20-10-18-43.960205
285	6	2	6	286	volatile	4	40	26	sv	red	blue	blue	red	right	left	0.30000000000000004	0.7	10	2	3.0000000000000004	1.4	0	1	0.7	0.30000000000000004	2	10	1.4	3.0000000000000004	valid	0.6998241860001144	51200	0	0	2	53248	0	51200	1	53248	0	0.7	51200	red	blue	0	2	ml	2.7.3	bip	sub-06_ses-02_task-ml_proj-bip_2020-11-20-10-18-43.960205
286	6	2	6	287	volatile	4	40	27	sv	blue	red	blue	red	left	right	0.30000000000000004	0.7	10	2	3.0000000000000004	1.4	1	0	0.30000000000000004	0.7	10	2	3.0000000000000004	1.4	invalid	0.383248187999925	51200	0	0	1	51200	1	53248	0	51200	1	0.7	53248	red	blue	0	10	ml	2.7.3	bip	sub-06_ses-02_task-ml_proj-bip_2020-11-20-10-18-43.960205
287	6	2	6	288	volatile	4	40	28	sv	blue	red	blue	red	left	right	0.30000000000000004	0.7	2	6	0.6000000000000001	4.199999999999998	0	1	0.30000000000000004	0.7	2	6	0.6000000000000001	4.199999999999998	valid	0.38325917500151263	53248	0	1	2	53248	1	53248	1	53248	1	0.7	53248	red	blue	1	6	ml	2.7.3	bip	sub-06_ses-02_task-ml_proj-bip_2020-11-20-10-18-43.960205
288	6	2	6	289	volatile	4	40	29	sv	red	blue	blue	red	right	left	0.30000000000000004	0.7	6	2	1.8000000000000005	1.4	0	1	0.7	0.30000000000000004	2	6	1.4	1.8000000000000005	valid	0.3665853829988919	51200	0	0	2	53248	0	51200	1	53248	0	0.7	51200	red	blue	0	2	ml	2.7.3	bip	sub-06_ses-02_task-ml_proj-bip_2020-11-20-10-18-43.960205
289	6	2	6	290	volatile	4	40	30	sv	red	blue	blue	red	right	left	0.30000000000000004	0.7	2	2	0.6000000000000001	1.4	1	0	0.7	0.30000000000000004	2	2	1.4	0.6000000000000001	invalid	0.4498929199999111	51200	0	0	2	51200	1	51200	1	53248	0	0.7	51200	red	blue	1	0	ml	2.7.3	bip	sub-06_ses-02_task-ml_proj-bip_2020-11-20-10-18-43.960205
290	6	2	6	291	volatile	4	40	31	sv	red	blue	blue	red	right	left	0.30000000000000004	0.7	4	2	1.2000000000000002	1.4	0	1	0.7	0.30000000000000004	2	4	1.4	1.2000000000000002	valid	0.4165686619999178	51200	0	0	2	51200	1	51200	1	53248	0	0.7	51200	red	blue	0	2	ml	2.7.3	bip	sub-06_ses-02_task-ml_proj-bip_2020-11-20-10-18-43.960205
291	6	2	6	292	volatile	4	40	32	sv	blue	red	blue	red	left	right	0.30000000000000004	0.7	2	10	0.6000000000000001	7.0	0	1	0.30000000000000004	0.7	2	10	0.6000000000000001	7.0	valid	0.4165836420015694	53248	0	1	2	53248	1	53248	1	53248	1	0.7	53248	red	blue	1	10	ml	2.7.3	bip	sub-06_ses-02_task-ml_proj-bip_2020-11-20-10-18-43.960205
292	6	2	6	293	volatile	4	40	33	sv	red	blue	blue	red	right	left	0.30000000000000004	0.7	6	6	1.8000000000000005	4.199999999999998	0	1	0.7	0.30000000000000004	6	6	4.199999999999998	1.8000000000000005	valid	0.4332356200011418	51200	0	0	2	51200	1	51200	1	53248	0	0.7	51200	red	blue	1	6	ml	2.7.3	bip	sub-06_ses-02_task-ml_proj-bip_2020-11-20-10-18-43.960205
293	6	2	6	294	volatile	4	40	34	sv	blue	red	blue	red	left	right	0.30000000000000004	0.7	4	2	1.2000000000000002	1.4	0	1	0.30000000000000004	0.7	4	2	1.2000000000000002	1.4	valid	0.4998909949990775	53248	0	1	2	53248	1	53248	1	51200	0	0.7	53248	red	blue	0	2	ml	2.7.3	bip	sub-06_ses-02_task-ml_proj-bip_2020-11-20-10-18-43.960205
294	6	2	6	295	volatile	4	40	35	sv	red	blue	blue	red	right	left	0.30000000000000004	0.7	6	4	1.8000000000000005	2.8	1	0	0.7	0.30000000000000004	4	6	2.8	1.8000000000000005	invalid	0.3665838320011972	51200	0	0	2	51200	1	51200	1	53248	0	0.7	51200	red	blue	0	0	ml	2.7.3	bip	sub-06_ses-02_task-ml_proj-bip_2020-11-20-10-18-43.960205
295	6	2	6	296	volatile	4	40	36	sv	red	blue	blue	red	right	left	0.30000000000000004	0.7	2	2	0.6000000000000001	1.4	0	1	0.7	0.30000000000000004	2	2	1.4	0.6000000000000001	valid	0.299949894000747	53248	0	1	1	51200	0	51200	0	53248	1	0.7	51200	red	blue	1	0	ml	2.7.3	bip	sub-06_ses-02_task-ml_proj-bip_2020-11-20-10-18-43.960205
296	6	2	6	297	volatile	4	40	37	sv	red	blue	blue	red	right	left	0.30000000000000004	0.7	2	10	0.6000000000000001	7.0	0	1	0.7	0.30000000000000004	10	2	7.0	0.6000000000000001	valid	0.3166110740003205	53248	0	1	1	51200	0	51200	0	51200	0	0.7	51200	red	blue	1	0	ml	2.7.3	bip	sub-06_ses-02_task-ml_proj-bip_2020-11-20-10-18-43.960205
297	6	2	6	298	volatile	4	40	38	sv	red	blue	blue	red	right	left	0.30000000000000004	0.7	6	6	1.8000000000000005	4.199999999999998	0	1	0.7	0.30000000000000004	6	6	4.199999999999998	1.8000000000000005	valid	0.2666132230006042	51200	0	0	2	51200	1	51200	1	53248	0	0.7	51200	red	blue	1	6	ml	2.7.3	bip	sub-06_ses-02_task-ml_proj-bip_2020-11-20-10-18-43.960205
298	6	2	6	299	volatile	4	40	39	sv	red	blue	blue	red	right	left	0.30000000000000004	0.7	4	6	1.2000000000000002	4.199999999999998	0	1	0.7	0.30000000000000004	6	4	4.199999999999998	1.2000000000000002	valid	0.26661743599834153	51200	0	0	2	51200	1	51200	1	51200	1	0.7	51200	red	blue	1	6	ml	2.7.3	bip	sub-06_ses-02_task-ml_proj-bip_2020-11-20-10-18-43.960205
