Unnamed: 0	sub_id	ses_id	block_no	trial_no	phase_type	phase_no	phase_length	trialInPhase_no	phase_type_order	color_left	color_right	color1	color2	position1	position2	prob1	prob2	mag1	mag2	ev1	ev2	outcome1	outcome2	prob_left	prob_right	mag_left	mag_right	ev_left	ev_right	reward_validity	resp_time	resp_key	timeout	choice_side	choice	ev_corr_resp	ev_correct	prob_corr_resp	prob_correct	mag_corr_resp	mag_correct	high_prob	high_prob_side	high_prob_color	low_prob_color	no_brain	reward	name	version	proj_id	logFileID
0	10	2	1	1	stable	1	200	1	sv	red	blue	red	blue	left	right	0.7	0.30000000000000004	6	2	4.199999999999998	0.6000000000000001	0	1	0.7	0.30000000000000004	6	2	4.199999999999998	0.6000000000000001	invalid	0.9997416319984042	53248	0	1	2	51200	0	51200	0	51200	0	0.7	51200	red	blue	1	2	ml	2.7.3	bip	sub-10_ses-02_task-ml_proj-bip_2020-12-15-10-26-21.769886
1	10	2	1	2	stable	1	200	2	sv	blue	red	red	blue	right	left	0.7	0.30000000000000004	2	4	1.4	1.2000000000000002	1	0	0.30000000000000004	0.7	4	2	1.2000000000000002	1.4	valid	0.4498937770003977	51200	0	0	2	53248	0	53248	0	51200	1	0.7	53248	red	blue	0	0	ml	2.7.3	bip	sub-10_ses-02_task-ml_proj-bip_2020-12-15-10-26-21.769886
2	10	2	1	3	stable	1	200	3	sv	red	blue	red	blue	left	right	0.7	0.30000000000000004	2	2	1.4	0.6000000000000001	0	1	0.7	0.30000000000000004	2	2	1.4	0.6000000000000001	invalid	0.39992398000140383	53248	0	1	2	51200	0	51200	0	53248	1	0.7	51200	red	blue	1	2	ml	2.7.3	bip	sub-10_ses-02_task-ml_proj-bip_2020-12-15-10-26-21.769886
3	10	2	1	4	stable	1	200	4	sv	blue	red	red	blue	right	left	0.7	0.30000000000000004	4	2	2.8	0.6000000000000001	1	0	0.30000000000000004	0.7	2	4	0.6000000000000001	2.8	valid	0.4998869680002826	51200	0	0	2	53248	0	53248	0	53248	0	0.7	53248	red	blue	1	0	ml	2.7.3	bip	sub-10_ses-02_task-ml_proj-bip_2020-12-15-10-26-21.769886
4	10	2	1	5	stable	1	200	5	sv	blue	red	red	blue	right	left	0.7	0.30000000000000004	2	6	1.4	1.8000000000000005	1	0	0.30000000000000004	0.7	6	2	1.8000000000000005	1.4	valid	0.51654279000104	51200	0	0	2	51200	1	53248	0	51200	1	0.7	53248	red	blue	0	0	ml	2.7.3	bip	sub-10_ses-02_task-ml_proj-bip_2020-12-15-10-26-21.769886
5	10	2	1	6	stable	1	200	6	sv	blue	red	red	blue	right	left	0.7	0.30000000000000004	2	4	1.4	1.2000000000000002	1	0	0.30000000000000004	0.7	4	2	1.2000000000000002	1.4	valid	0.31661248199998226	53248	0	1	1	53248	1	53248	1	51200	0	0.7	53248	red	blue	0	2	ml	2.7.3	bip	sub-10_ses-02_task-ml_proj-bip_2020-12-15-10-26-21.769886
6	10	2	1	7	stable	1	200	7	sv	red	blue	red	blue	left	right	0.7	0.30000000000000004	2	4	1.4	1.2000000000000002	1	0	0.7	0.30000000000000004	2	4	1.4	1.2000000000000002	valid	0.5332074400012061	51200	0	0	1	51200	1	51200	1	53248	0	0.7	51200	red	blue	0	2	ml	2.7.3	bip	sub-10_ses-02_task-ml_proj-bip_2020-12-15-10-26-21.769886
7	10	2	1	8	stable	1	200	8	sv	blue	red	red	blue	right	left	0.7	0.30000000000000004	10	2	7.0	0.6000000000000001	1	0	0.30000000000000004	0.7	2	10	0.6000000000000001	7.0	valid	0.4332454630002758	53248	0	1	1	53248	1	53248	1	53248	1	0.7	53248	red	blue	1	10	ml	2.7.3	bip	sub-10_ses-02_task-ml_proj-bip_2020-12-15-10-26-21.769886
8	10	2	1	9	stable	1	200	9	sv	red	blue	red	blue	left	right	0.7	0.30000000000000004	2	4	1.4	1.2000000000000002	1	0	0.7	0.30000000000000004	2	4	1.4	1.2000000000000002	valid	0.4998850129995844	51200	0	0	1	51200	1	51200	1	53248	0	0.7	51200	red	blue	0	2	ml	2.7.3	bip	sub-10_ses-02_task-ml_proj-bip_2020-12-15-10-26-21.769886
9	10	2	1	10	stable	1	200	10	sv	blue	red	red	blue	right	left	0.7	0.30000000000000004	6	6	4.199999999999998	1.8000000000000005	1	0	0.30000000000000004	0.7	6	6	1.8000000000000005	4.199999999999998	valid	0.4665671659986401	53248	0	1	1	53248	1	53248	1	53248	1	0.7	53248	red	blue	0	6	ml	2.7.3	bip	sub-10_ses-02_task-ml_proj-bip_2020-12-15-10-26-21.769886
10	10	2	1	11	stable	1	200	11	sv	red	blue	red	blue	left	right	0.7	0.30000000000000004	2	6	1.4	1.8000000000000005	0	1	0.7	0.30000000000000004	2	6	1.4	1.8000000000000005	invalid	0.4498952599988115	51200	0	0	1	53248	0	51200	1	53248	0	0.7	51200	red	blue	0	0	ml	2.7.3	bip	sub-10_ses-02_task-ml_proj-bip_2020-12-15-10-26-21.769886
11	10	2	1	12	stable	1	200	12	sv	blue	red	red	blue	right	left	0.7	0.30000000000000004	4	6	2.8	1.8000000000000005	1	0	0.30000000000000004	0.7	6	4	1.8000000000000005	2.8	valid	0.4832308329987427	53248	0	1	1	53248	1	53248	1	51200	0	0.7	53248	red	blue	0	4	ml	2.7.3	bip	sub-10_ses-02_task-ml_proj-bip_2020-12-15-10-26-21.769886
12	10	2	1	13	stable	1	200	13	sv	red	blue	red	blue	left	right	0.7	0.30000000000000004	6	6	4.199999999999998	1.8000000000000005	1	0	0.7	0.30000000000000004	6	6	4.199999999999998	1.8000000000000005	valid	0.3832388110004104	51200	0	0	1	51200	1	51200	1	53248	0	0.7	51200	red	blue	1	6	ml	2.7.3	bip	sub-10_ses-02_task-ml_proj-bip_2020-12-15-10-26-21.769886
13	10	2	1	14	stable	1	200	14	sv	blue	red	red	blue	right	left	0.7	0.30000000000000004	6	2	4.199999999999998	0.6000000000000001	1	0	0.30000000000000004	0.7	2	6	0.6000000000000001	4.199999999999998	valid	0.5165570299996034	53248	0	1	1	53248	1	53248	1	53248	1	0.7	53248	red	blue	1	6	ml	2.7.3	bip	sub-10_ses-02_task-ml_proj-bip_2020-12-15-10-26-21.769886
14	10	2	1	15	stable	1	200	15	sv	blue	red	red	blue	right	left	0.7	0.30000000000000004	2	2	1.4	0.6000000000000001	1	0	0.30000000000000004	0.7	2	2	0.6000000000000001	1.4	valid	0.5665398359997198	53248	0	1	1	53248	1	53248	1	53248	1	0.7	53248	red	blue	0	2	ml	2.7.3	bip	sub-10_ses-02_task-ml_proj-bip_2020-12-15-10-26-21.769886
15	10	2	1	16	stable	1	200	16	sv	red	blue	red	blue	left	right	0.7	0.30000000000000004	6	6	4.199999999999998	1.8000000000000005	1	0	0.7	0.30000000000000004	6	6	4.199999999999998	1.8000000000000005	valid	0.4498989019994042	51200	0	0	1	51200	1	51200	1	53248	0	0.7	51200	red	blue	1	6	ml	2.7.3	bip	sub-10_ses-02_task-ml_proj-bip_2020-12-15-10-26-21.769886
16	10	2	1	17	stable	1	200	17	sv	red	blue	red	blue	left	right	0.7	0.30000000000000004	2	6	1.4	1.8000000000000005	1	0	0.7	0.30000000000000004	2	6	1.4	1.8000000000000005	valid	0.4998821589997533	51200	0	0	1	53248	0	51200	1	53248	0	0.7	51200	red	blue	0	2	ml	2.7.3	bip	sub-10_ses-02_task-ml_proj-bip_2020-12-15-10-26-21.769886
17	10	2	1	18	stable	1	200	18	sv	red	blue	red	blue	left	right	0.7	0.30000000000000004	6	4	4.199999999999998	1.2000000000000002	0	1	0.7	0.30000000000000004	6	4	4.199999999999998	1.2000000000000002	invalid	0.6498377480002091	51200	0	0	1	51200	1	51200	1	51200	1	0.7	51200	red	blue	1	0	ml	2.7.3	bip	sub-10_ses-02_task-ml_proj-bip_2020-12-15-10-26-21.769886
18	10	2	1	19	stable	1	200	19	sv	red	blue	red	blue	left	right	0.7	0.30000000000000004	2	10	1.4	3.0000000000000004	1	0	0.7	0.30000000000000004	2	10	1.4	3.0000000000000004	valid	0.5165380400012509	51200	0	0	1	53248	0	51200	1	53248	0	0.7	51200	red	blue	0	2	ml	2.7.3	bip	sub-10_ses-02_task-ml_proj-bip_2020-12-15-10-26-21.769886
19	10	2	1	20	stable	1	200	20	sv	blue	red	red	blue	right	left	0.7	0.30000000000000004	4	2	2.8	0.6000000000000001	1	0	0.30000000000000004	0.7	2	4	0.6000000000000001	2.8	valid	0.3999237240004732	53248	0	1	1	53248	1	53248	1	53248	1	0.7	53248	red	blue	1	4	ml	2.7.3	bip	sub-10_ses-02_task-ml_proj-bip_2020-12-15-10-26-21.769886
20	10	2	1	21	stable	1	200	21	sv	red	blue	red	blue	left	right	0.7	0.30000000000000004	2	10	1.4	3.0000000000000004	1	0	0.7	0.30000000000000004	2	10	1.4	3.0000000000000004	valid	0.4165734939997492	51200	0	0	1	53248	0	51200	1	53248	0	0.7	51200	red	blue	0	2	ml	2.7.3	bip	sub-10_ses-02_task-ml_proj-bip_2020-12-15-10-26-21.769886
21	10	2	1	22	stable	1	200	22	sv	red	blue	red	blue	left	right	0.7	0.30000000000000004	6	6	4.199999999999998	1.8000000000000005	0	1	0.7	0.30000000000000004	6	6	4.199999999999998	1.8000000000000005	invalid	0.4832182830014062	51200	0	0	1	51200	1	51200	1	53248	0	0.7	51200	red	blue	1	0	ml	2.7.3	bip	sub-10_ses-02_task-ml_proj-bip_2020-12-15-10-26-21.769886
22	10	2	1	23	stable	1	200	23	sv	blue	red	red	blue	right	left	0.7	0.30000000000000004	6	4	4.199999999999998	1.2000000000000002	1	0	0.30000000000000004	0.7	4	6	1.2000000000000002	4.199999999999998	valid	0.3666007889987668	53248	0	1	1	53248	1	53248	1	53248	1	0.7	53248	red	blue	1	6	ml	2.7.3	bip	sub-10_ses-02_task-ml_proj-bip_2020-12-15-10-26-21.769886
23	10	2	1	24	stable	1	200	24	sv	blue	red	red	blue	right	left	0.7	0.30000000000000004	10	2	7.0	0.6000000000000001	1	0	0.30000000000000004	0.7	2	10	0.6000000000000001	7.0	valid	0.5498775089999981	53248	0	1	1	53248	1	53248	1	53248	1	0.7	53248	red	blue	1	10	ml	2.7.3	bip	sub-10_ses-02_task-ml_proj-bip_2020-12-15-10-26-21.769886
24	10	2	1	25	stable	1	200	25	sv	blue	red	red	blue	right	left	0.7	0.30000000000000004	2	6	1.4	1.8000000000000005	0	1	0.30000000000000004	0.7	6	2	1.8000000000000005	1.4	invalid	0.4332392699998309	53248	0	1	1	51200	0	53248	1	51200	0	0.7	53248	red	blue	0	0	ml	2.7.3	bip	sub-10_ses-02_task-ml_proj-bip_2020-12-15-10-26-21.769886
25	10	2	1	26	stable	1	200	26	sv	blue	red	red	blue	right	left	0.7	0.30000000000000004	10	2	7.0	0.6000000000000001	0	1	0.30000000000000004	0.7	2	10	0.6000000000000001	7.0	invalid	0.5332178220014612	53248	0	1	1	53248	1	53248	1	53248	1	0.7	53248	red	blue	1	0	ml	2.7.3	bip	sub-10_ses-02_task-ml_proj-bip_2020-12-15-10-26-21.769886
26	10	2	1	27	stable	1	200	27	sv	red	blue	red	blue	left	right	0.7	0.30000000000000004	10	2	7.0	0.6000000000000001	0	1	0.7	0.30000000000000004	10	2	7.0	0.6000000000000001	invalid	0.5832002099996316	51200	0	0	1	51200	1	51200	1	51200	1	0.7	51200	red	blue	1	0	ml	2.7.3	bip	sub-10_ses-02_task-ml_proj-bip_2020-12-15-10-26-21.769886
27	10	2	1	28	stable	1	200	28	sv	blue	red	red	blue	right	left	0.7	0.30000000000000004	4	2	2.8	0.6000000000000001	0	1	0.30000000000000004	0.7	2	4	0.6000000000000001	2.8	invalid	0.4499158619983064	53248	0	1	1	53248	1	53248	1	53248	1	0.7	53248	red	blue	1	0	ml	2.7.3	bip	sub-10_ses-02_task-ml_proj-bip_2020-12-15-10-26-21.769886
28	10	2	1	29	stable	1	200	29	sv	red	blue	red	blue	left	right	0.7	0.30000000000000004	4	6	2.8	1.8000000000000005	1	0	0.7	0.30000000000000004	4	6	2.8	1.8000000000000005	valid	1.2663383399994927	53248	0	1	2	51200	0	51200	0	53248	1	0.7	51200	red	blue	0	0	ml	2.7.3	bip	sub-10_ses-02_task-ml_proj-bip_2020-12-15-10-26-21.769886
29	10	2	1	30	stable	1	200	30	sv	blue	red	red	blue	right	left	0.7	0.30000000000000004	2	6	1.4	1.8000000000000005	1	0	0.30000000000000004	0.7	6	2	1.8000000000000005	1.4	valid	0.6831726119999075	53248	0	1	1	51200	0	53248	1	51200	0	0.7	53248	red	blue	0	2	ml	2.7.3	bip	sub-10_ses-02_task-ml_proj-bip_2020-12-15-10-26-21.769886
30	10	2	1	31	stable	1	200	31	sv	blue	red	red	blue	right	left	0.7	0.30000000000000004	4	2	2.8	0.6000000000000001	1	0	0.30000000000000004	0.7	2	4	0.6000000000000001	2.8	valid	0.6665020979999099	51200	0	0	2	53248	0	53248	0	53248	0	0.7	53248	red	blue	1	0	ml	2.7.3	bip	sub-10_ses-02_task-ml_proj-bip_2020-12-15-10-26-21.769886
31	10	2	1	32	stable	1	200	32	sv	blue	red	red	blue	right	left	0.7	0.30000000000000004	4	2	2.8	0.6000000000000001	1	0	0.30000000000000004	0.7	2	4	0.6000000000000001	2.8	valid	0.649847917000443	53248	0	1	1	53248	1	53248	1	53248	1	0.7	53248	red	blue	1	4	ml	2.7.3	bip	sub-10_ses-02_task-ml_proj-bip_2020-12-15-10-26-21.769886
32	10	2	1	33	stable	1	200	33	sv	red	blue	red	blue	left	right	0.7	0.30000000000000004	2	2	1.4	0.6000000000000001	1	0	0.7	0.30000000000000004	2	2	1.4	0.6000000000000001	valid	0.5332048250002117	51200	0	0	1	51200	1	51200	1	53248	0	0.7	51200	red	blue	1	2	ml	2.7.3	bip	sub-10_ses-02_task-ml_proj-bip_2020-12-15-10-26-21.769886
33	10	2	1	34	stable	1	200	34	sv	red	blue	red	blue	left	right	0.7	0.30000000000000004	6	6	4.199999999999998	1.8000000000000005	1	0	0.7	0.30000000000000004	6	6	4.199999999999998	1.8000000000000005	valid	0.8497801840003376	51200	0	0	1	51200	1	51200	1	53248	0	0.7	51200	red	blue	1	6	ml	2.7.3	bip	sub-10_ses-02_task-ml_proj-bip_2020-12-15-10-26-21.769886
34	10	2	1	35	stable	1	200	35	sv	blue	red	red	blue	right	left	0.7	0.30000000000000004	10	2	7.0	0.6000000000000001	0	1	0.30000000000000004	0.7	2	10	0.6000000000000001	7.0	invalid	0.5165508669997507	53248	0	1	1	53248	1	53248	1	53248	1	0.7	53248	red	blue	1	0	ml	2.7.3	bip	sub-10_ses-02_task-ml_proj-bip_2020-12-15-10-26-21.769886
35	10	2	1	36	stable	1	200	36	sv	blue	red	red	blue	right	left	0.7	0.30000000000000004	6	2	4.199999999999998	0.6000000000000001	1	0	0.30000000000000004	0.7	2	6	0.6000000000000001	4.199999999999998	valid	0.4499091399993631	53248	0	1	1	53248	1	53248	1	53248	1	0.7	53248	red	blue	1	6	ml	2.7.3	bip	sub-10_ses-02_task-ml_proj-bip_2020-12-15-10-26-21.769886
36	10	2	1	37	stable	1	200	37	sv	blue	red	red	blue	right	left	0.7	0.30000000000000004	10	2	7.0	0.6000000000000001	1	0	0.30000000000000004	0.7	2	10	0.6000000000000001	7.0	valid	0.4832466890002252	53248	0	1	1	53248	1	53248	1	53248	1	0.7	53248	red	blue	1	10	ml	2.7.3	bip	sub-10_ses-02_task-ml_proj-bip_2020-12-15-10-26-21.769886
37	10	2	1	38	stable	1	200	38	sv	red	blue	red	blue	left	right	0.7	0.30000000000000004	6	2	4.199999999999998	0.6000000000000001	1	0	0.7	0.30000000000000004	6	2	4.199999999999998	0.6000000000000001	valid	0.3999091919995408	51200	0	0	1	51200	1	51200	1	51200	1	0.7	51200	red	blue	1	6	ml	2.7.3	bip	sub-10_ses-02_task-ml_proj-bip_2020-12-15-10-26-21.769886
38	10	2	1	39	stable	1	200	39	sv	red	blue	red	blue	left	right	0.7	0.30000000000000004	4	6	2.8	1.8000000000000005	1	0	0.7	0.30000000000000004	4	6	2.8	1.8000000000000005	valid	0.4332360610005708	51200	0	0	1	51200	1	51200	1	53248	0	0.7	51200	red	blue	0	4	ml	2.7.3	bip	sub-10_ses-02_task-ml_proj-bip_2020-12-15-10-26-21.769886
39	10	2	1	40	stable	1	200	40	sv	red	blue	red	blue	left	right	0.7	0.30000000000000004	10	2	7.0	0.6000000000000001	1	0	0.7	0.30000000000000004	10	2	7.0	0.6000000000000001	valid	0.4998803609996685	51200	0	0	1	51200	1	51200	1	51200	1	0.7	51200	red	blue	1	10	ml	2.7.3	bip	sub-10_ses-02_task-ml_proj-bip_2020-12-15-10-26-21.769886
40	10	2	1	41	stable	1	200	41	sv	red	blue	red	blue	left	right	0.7	0.30000000000000004	2	2	1.4	0.6000000000000001	0	1	0.7	0.30000000000000004	2	2	1.4	0.6000000000000001	invalid	0.4498965950006095	51200	0	0	1	51200	1	51200	1	53248	0	0.7	51200	red	blue	1	0	ml	2.7.3	bip	sub-10_ses-02_task-ml_proj-bip_2020-12-15-10-26-21.769886
41	10	2	1	42	stable	1	200	42	sv	blue	red	red	blue	right	left	0.7	0.30000000000000004	2	2	1.4	0.6000000000000001	1	0	0.30000000000000004	0.7	2	2	0.6000000000000001	1.4	valid	0.4665762999993603	53248	0	1	1	53248	1	53248	1	53248	1	0.7	53248	red	blue	0	2	ml	2.7.3	bip	sub-10_ses-02_task-ml_proj-bip_2020-12-15-10-26-21.769886
42	10	2	1	43	stable	1	200	43	sv	red	blue	red	blue	left	right	0.7	0.30000000000000004	2	2	1.4	0.6000000000000001	1	0	0.7	0.30000000000000004	2	2	1.4	0.6000000000000001	valid	0.4665670659996977	51200	0	0	1	51200	1	51200	1	53248	0	0.7	51200	red	blue	1	2	ml	2.7.3	bip	sub-10_ses-02_task-ml_proj-bip_2020-12-15-10-26-21.769886
43	10	2	1	44	stable	1	200	44	sv	blue	red	red	blue	right	left	0.7	0.30000000000000004	4	2	2.8	0.6000000000000001	1	0	0.30000000000000004	0.7	2	4	0.6000000000000001	2.8	valid	0.5332169149987749	53248	0	1	1	53248	1	53248	1	53248	1	0.7	53248	red	blue	1	4	ml	2.7.3	bip	sub-10_ses-02_task-ml_proj-bip_2020-12-15-10-26-21.769886
44	10	2	1	45	stable	1	200	45	sv	blue	red	red	blue	right	left	0.7	0.30000000000000004	2	4	1.4	1.2000000000000002	1	0	0.30000000000000004	0.7	4	2	1.2000000000000002	1.4	valid	0.6498513749993435	53248	0	1	1	53248	1	53248	1	51200	0	0.7	53248	red	blue	0	2	ml	2.7.3	bip	sub-10_ses-02_task-ml_proj-bip_2020-12-15-10-26-21.769886
45	10	2	1	46	stable	1	200	46	sv	blue	red	red	blue	right	left	0.7	0.30000000000000004	2	6	1.4	1.8000000000000005	0	1	0.30000000000000004	0.7	6	2	1.8000000000000005	1.4	invalid	0.5332162380000227	53248	0	1	1	51200	0	53248	1	51200	0	0.7	53248	red	blue	0	0	ml	2.7.3	bip	sub-10_ses-02_task-ml_proj-bip_2020-12-15-10-26-21.769886
46	10	2	1	47	stable	1	200	47	sv	blue	red	red	blue	right	left	0.7	0.30000000000000004	10	2	7.0	0.6000000000000001	0	1	0.30000000000000004	0.7	2	10	0.6000000000000001	7.0	invalid	0.6998336179985927	53248	0	1	1	53248	1	53248	1	53248	1	0.7	53248	red	blue	1	0	ml	2.7.3	bip	sub-10_ses-02_task-ml_proj-bip_2020-12-15-10-26-21.769886
47	10	2	1	48	stable	1	200	48	sv	red	blue	red	blue	left	right	0.7	0.30000000000000004	2	6	1.4	1.8000000000000005	1	0	0.7	0.30000000000000004	2	6	1.4	1.8000000000000005	valid	0.3999090050001541	51200	0	0	1	53248	0	51200	1	53248	0	0.7	51200	red	blue	0	2	ml	2.7.3	bip	sub-10_ses-02_task-ml_proj-bip_2020-12-15-10-26-21.769886
48	10	2	1	49	stable	1	200	49	sv	red	blue	red	blue	left	right	0.7	0.30000000000000004	6	2	4.199999999999998	0.6000000000000001	1	0	0.7	0.30000000000000004	6	2	4.199999999999998	0.6000000000000001	valid	0.4665503140004148	51200	0	0	1	51200	1	51200	1	51200	1	0.7	51200	red	blue	1	6	ml	2.7.3	bip	sub-10_ses-02_task-ml_proj-bip_2020-12-15-10-26-21.769886
49	10	2	1	50	stable	1	200	50	sv	red	blue	red	blue	left	right	0.7	0.30000000000000004	6	6	4.199999999999998	1.8000000000000005	1	0	0.7	0.30000000000000004	6	6	4.199999999999998	1.8000000000000005	valid	0.499882805001107	51200	0	0	1	51200	1	51200	1	53248	0	0.7	51200	red	blue	1	6	ml	2.7.3	bip	sub-10_ses-02_task-ml_proj-bip_2020-12-15-10-26-21.769886
50	10	2	2	51	stable	1	200	51	sv	red	blue	red	blue	left	right	0.7	0.30000000000000004	10	2	7.0	0.6000000000000001	1	0	0.7	0.30000000000000004	10	2	7.0	0.6000000000000001	valid	0.7831323779992092	51200	0	0	1	51200	1	51200	1	51200	1	0.7	51200	red	blue	1	10	ml	2.7.3	bip	sub-10_ses-02_task-ml_proj-bip_2020-12-15-10-26-21.769886
51	10	2	2	52	stable	1	200	52	sv	blue	red	red	blue	right	left	0.7	0.30000000000000004	2	2	1.4	0.6000000000000001	0	1	0.30000000000000004	0.7	2	2	0.6000000000000001	1.4	invalid	0.39992481199988106	53248	0	1	1	53248	1	53248	1	53248	1	0.7	53248	red	blue	0	0	ml	2.7.3	bip	sub-10_ses-02_task-ml_proj-bip_2020-12-15-10-26-21.769886
52	10	2	2	53	stable	1	200	53	sv	red	blue	red	blue	left	right	0.7	0.30000000000000004	6	6	4.199999999999998	1.8000000000000005	0	1	0.7	0.30000000000000004	6	6	4.199999999999998	1.8000000000000005	invalid	0.3999125329992239	51200	0	0	1	51200	1	51200	1	53248	0	0.7	51200	red	blue	1	0	ml	2.7.3	bip	sub-10_ses-02_task-ml_proj-bip_2020-12-15-10-26-21.769886
53	10	2	2	54	stable	1	200	54	sv	blue	red	red	blue	right	left	0.7	0.30000000000000004	2	4	1.4	1.2000000000000002	1	0	0.30000000000000004	0.7	4	2	1.2000000000000002	1.4	valid	0.3665852659996745	51200	0	0	2	53248	0	53248	0	51200	1	0.7	53248	red	blue	0	0	ml	2.7.3	bip	sub-10_ses-02_task-ml_proj-bip_2020-12-15-10-26-21.769886
54	10	2	2	55	stable	1	200	55	sv	red	blue	red	blue	left	right	0.7	0.30000000000000004	6	4	4.199999999999998	1.2000000000000002	1	0	0.7	0.30000000000000004	6	4	4.199999999999998	1.2000000000000002	valid	0.6998247179999453	51200	0	0	1	51200	1	51200	1	51200	1	0.7	51200	red	blue	1	6	ml	2.7.3	bip	sub-10_ses-02_task-ml_proj-bip_2020-12-15-10-26-21.769886
55	10	2	2	56	stable	1	200	56	sv	blue	red	red	blue	right	left	0.7	0.30000000000000004	6	2	4.199999999999998	0.6000000000000001	1	0	0.30000000000000004	0.7	2	6	0.6000000000000001	4.199999999999998	valid	0.5165569460004917	53248	0	1	1	53248	1	53248	1	53248	1	0.7	53248	red	blue	1	6	ml	2.7.3	bip	sub-10_ses-02_task-ml_proj-bip_2020-12-15-10-26-21.769886
56	10	2	2	57	stable	1	200	57	sv	blue	red	red	blue	right	left	0.7	0.30000000000000004	2	4	1.4	1.2000000000000002	0	1	0.30000000000000004	0.7	4	2	1.2000000000000002	1.4	invalid	0.466570895001496	53248	0	1	1	53248	1	53248	1	51200	0	0.7	53248	red	blue	0	0	ml	2.7.3	bip	sub-10_ses-02_task-ml_proj-bip_2020-12-15-10-26-21.769886
57	10	2	2	58	stable	1	200	58	sv	blue	red	red	blue	right	left	0.7	0.30000000000000004	6	6	4.199999999999998	1.8000000000000005	1	0	0.30000000000000004	0.7	6	6	1.8000000000000005	4.199999999999998	valid	0.4998917379998602	53248	0	1	1	53248	1	53248	1	53248	1	0.7	53248	red	blue	0	6	ml	2.7.3	bip	sub-10_ses-02_task-ml_proj-bip_2020-12-15-10-26-21.769886
58	10	2	2	59	stable	1	200	59	sv	blue	red	red	blue	right	left	0.7	0.30000000000000004	6	6	4.199999999999998	1.8000000000000005	1	0	0.30000000000000004	0.7	6	6	1.8000000000000005	4.199999999999998	valid	0.3999480399997992	53248	0	1	1	53248	1	53248	1	53248	1	0.7	53248	red	blue	0	6	ml	2.7.3	bip	sub-10_ses-02_task-ml_proj-bip_2020-12-15-10-26-21.769886
59	10	2	2	60	stable	1	200	60	sv	red	blue	red	blue	left	right	0.7	0.30000000000000004	6	6	4.199999999999998	1.8000000000000005	1	0	0.7	0.30000000000000004	6	6	4.199999999999998	1.8000000000000005	valid	0.5665286500006914	51200	0	0	1	51200	1	51200	1	53248	0	0.7	51200	red	blue	1	6	ml	2.7.3	bip	sub-10_ses-02_task-ml_proj-bip_2020-12-15-10-26-21.769886
60	10	2	2	61	stable	1	200	61	sv	blue	red	red	blue	right	left	0.7	0.30000000000000004	10	2	7.0	0.6000000000000001	1	0	0.30000000000000004	0.7	2	10	0.6000000000000001	7.0	valid	1.0164096070002415	53248	0	1	1	53248	1	53248	1	53248	1	0.7	53248	red	blue	1	10	ml	2.7.3	bip	sub-10_ses-02_task-ml_proj-bip_2020-12-15-10-26-21.769886
61	10	2	2	62	stable	1	200	62	sv	blue	red	red	blue	right	left	0.7	0.30000000000000004	6	2	4.199999999999998	0.6000000000000001	1	0	0.30000000000000004	0.7	2	6	0.6000000000000001	4.199999999999998	valid	0.6498498379987723	53248	0	1	1	53248	1	53248	1	53248	1	0.7	53248	red	blue	1	6	ml	2.7.3	bip	sub-10_ses-02_task-ml_proj-bip_2020-12-15-10-26-21.769886
62	10	2	2	63	stable	1	200	63	sv	red	blue	red	blue	left	right	0.7	0.30000000000000004	2	4	1.4	1.2000000000000002	1	0	0.7	0.30000000000000004	2	4	1.4	1.2000000000000002	valid	0.63317710299998	51200	0	0	1	51200	1	51200	1	53248	0	0.7	51200	red	blue	0	2	ml	2.7.3	bip	sub-10_ses-02_task-ml_proj-bip_2020-12-15-10-26-21.769886
63	10	2	2	64	stable	1	200	64	sv	red	blue	red	blue	left	right	0.7	0.30000000000000004	2	10	1.4	3.0000000000000004	0	1	0.7	0.30000000000000004	2	10	1.4	3.0000000000000004	invalid	0.4665593019999506	51200	0	0	1	53248	0	51200	1	53248	0	0.7	51200	red	blue	0	0	ml	2.7.3	bip	sub-10_ses-02_task-ml_proj-bip_2020-12-15-10-26-21.769886
64	10	2	2	65	stable	1	200	65	sv	blue	red	red	blue	right	left	0.7	0.30000000000000004	6	2	4.199999999999998	0.6000000000000001	0	1	0.30000000000000004	0.7	2	6	0.6000000000000001	4.199999999999998	invalid	0.4998930999990989	53248	0	1	1	53248	1	53248	1	53248	1	0.7	53248	red	blue	1	0	ml	2.7.3	bip	sub-10_ses-02_task-ml_proj-bip_2020-12-15-10-26-21.769886
65	10	2	2	66	stable	1	200	66	sv	red	blue	red	blue	left	right	0.7	0.30000000000000004	6	4	4.199999999999998	1.2000000000000002	1	0	0.7	0.30000000000000004	6	4	4.199999999999998	1.2000000000000002	valid	0.4332413930005714	51200	0	0	1	51200	1	51200	1	51200	1	0.7	51200	red	blue	1	6	ml	2.7.3	bip	sub-10_ses-02_task-ml_proj-bip_2020-12-15-10-26-21.769886
66	10	2	2	67	stable	1	200	67	sv	red	blue	red	blue	left	right	0.7	0.30000000000000004	2	6	1.4	1.8000000000000005	1	0	0.7	0.30000000000000004	2	6	1.4	1.8000000000000005	valid	0.4998618219997297	51200	0	0	1	53248	0	51200	1	53248	0	0.7	51200	red	blue	0	2	ml	2.7.3	bip	sub-10_ses-02_task-ml_proj-bip_2020-12-15-10-26-21.769886
67	10	2	2	68	stable	1	200	68	sv	red	blue	red	blue	left	right	0.7	0.30000000000000004	6	6	4.199999999999998	1.8000000000000005	1	0	0.7	0.30000000000000004	6	6	4.199999999999998	1.8000000000000005	valid	0.4498966289993405	51200	0	0	1	51200	1	51200	1	53248	0	0.7	51200	red	blue	1	6	ml	2.7.3	bip	sub-10_ses-02_task-ml_proj-bip_2020-12-15-10-26-21.769886
68	10	2	2	69	stable	1	200	69	sv	red	blue	red	blue	left	right	0.7	0.30000000000000004	6	2	4.199999999999998	0.6000000000000001	1	0	0.7	0.30000000000000004	6	2	4.199999999999998	0.6000000000000001	valid	0.4665579450011137	51200	0	0	1	51200	1	51200	1	51200	1	0.7	51200	red	blue	1	6	ml	2.7.3	bip	sub-10_ses-02_task-ml_proj-bip_2020-12-15-10-26-21.769886
69	10	2	2	70	stable	1	200	70	sv	red	blue	red	blue	left	right	0.7	0.30000000000000004	2	2	1.4	0.6000000000000001	1	0	0.7	0.30000000000000004	2	2	1.4	0.6000000000000001	valid	0.38324984300015785	51200	0	0	1	51200	1	51200	1	53248	0	0.7	51200	red	blue	1	2	ml	2.7.3	bip	sub-10_ses-02_task-ml_proj-bip_2020-12-15-10-26-21.769886
70	10	2	2	71	stable	1	200	71	sv	blue	red	red	blue	right	left	0.7	0.30000000000000004	6	4	4.199999999999998	1.2000000000000002	1	0	0.30000000000000004	0.7	4	6	1.2000000000000002	4.199999999999998	valid	0.4499113179990673	53248	0	1	1	53248	1	53248	1	53248	1	0.7	53248	red	blue	1	6	ml	2.7.3	bip	sub-10_ses-02_task-ml_proj-bip_2020-12-15-10-26-21.769886
71	10	2	2	72	stable	1	200	72	sv	red	blue	red	blue	left	right	0.7	0.30000000000000004	6	6	4.199999999999998	1.8000000000000005	1	0	0.7	0.30000000000000004	6	6	4.199999999999998	1.8000000000000005	valid	0.6498376460003783	51200	0	0	1	51200	1	51200	1	53248	0	0.7	51200	red	blue	1	6	ml	2.7.3	bip	sub-10_ses-02_task-ml_proj-bip_2020-12-15-10-26-21.769886
72	10	2	2	73	stable	1	200	73	sv	blue	red	red	blue	right	left	0.7	0.30000000000000004	2	6	1.4	1.8000000000000005	0	1	0.30000000000000004	0.7	6	2	1.8000000000000005	1.4	invalid	0.39992029600034573	53248	0	1	1	51200	0	53248	1	51200	0	0.7	53248	red	blue	0	0	ml	2.7.3	bip	sub-10_ses-02_task-ml_proj-bip_2020-12-15-10-26-21.769886
73	10	2	2	74	stable	1	200	74	sv	red	blue	red	blue	left	right	0.7	0.30000000000000004	6	2	4.199999999999998	0.6000000000000001	1	0	0.7	0.30000000000000004	6	2	4.199999999999998	0.6000000000000001	valid	0.5498754090003786	53248	0	1	2	51200	0	51200	0	51200	0	0.7	51200	red	blue	1	0	ml	2.7.3	bip	sub-10_ses-02_task-ml_proj-bip_2020-12-15-10-26-21.769886
74	10	2	2	75	stable	1	200	75	sv	blue	red	red	blue	right	left	0.7	0.30000000000000004	2	4	1.4	1.2000000000000002	1	0	0.30000000000000004	0.7	4	2	1.2000000000000002	1.4	valid	0.3999331380000513	53248	0	1	1	53248	1	53248	1	51200	0	0.7	53248	red	blue	0	2	ml	2.7.3	bip	sub-10_ses-02_task-ml_proj-bip_2020-12-15-10-26-21.769886
75	10	2	2	76	stable	1	200	76	sv	blue	red	red	blue	right	left	0.7	0.30000000000000004	6	2	4.199999999999998	0.6000000000000001	1	0	0.30000000000000004	0.7	2	6	0.6000000000000001	4.199999999999998	valid	0.9997503779995895	53248	0	1	1	53248	1	53248	1	53248	1	0.7	53248	red	blue	1	6	ml	2.7.3	bip	sub-10_ses-02_task-ml_proj-bip_2020-12-15-10-26-21.769886
76	10	2	2	77	stable	1	200	77	sv	red	blue	red	blue	left	right	0.7	0.30000000000000004	10	2	7.0	0.6000000000000001	1	0	0.7	0.30000000000000004	10	2	7.0	0.6000000000000001	valid	0.6998240119992261	51200	0	0	1	51200	1	51200	1	51200	1	0.7	51200	red	blue	1	10	ml	2.7.3	bip	sub-10_ses-02_task-ml_proj-bip_2020-12-15-10-26-21.769886
77	10	2	2	78	stable	1	200	78	sv	red	blue	red	blue	left	right	0.7	0.30000000000000004	2	6	1.4	1.8000000000000005	1	0	0.7	0.30000000000000004	2	6	1.4	1.8000000000000005	valid	0.649839431998771	51200	0	0	1	53248	0	51200	1	53248	0	0.7	51200	red	blue	0	2	ml	2.7.3	bip	sub-10_ses-02_task-ml_proj-bip_2020-12-15-10-26-21.769886
78	10	2	2	79	stable	1	200	79	sv	red	blue	red	blue	left	right	0.7	0.30000000000000004	2	2	1.4	0.6000000000000001	0	1	0.7	0.30000000000000004	2	2	1.4	0.6000000000000001	invalid	0.7498179670001264	51200	0	0	1	51200	1	51200	1	53248	0	0.7	51200	red	blue	1	0	ml	2.7.3	bip	sub-10_ses-02_task-ml_proj-bip_2020-12-15-10-26-21.769886
79	10	2	2	80	stable	1	200	80	sv	red	blue	red	blue	left	right	0.7	0.30000000000000004	2	4	1.4	1.2000000000000002	1	0	0.7	0.30000000000000004	2	4	1.4	1.2000000000000002	valid	0.3332626249994064	51200	0	0	1	51200	1	51200	1	53248	0	0.7	51200	red	blue	0	2	ml	2.7.3	bip	sub-10_ses-02_task-ml_proj-bip_2020-12-15-10-26-21.769886
80	10	2	2	81	stable	1	200	81	sv	blue	red	red	blue	right	left	0.7	0.30000000000000004	6	4	4.199999999999998	1.2000000000000002	0	1	0.30000000000000004	0.7	4	6	1.2000000000000002	4.199999999999998	invalid	0.3832597579985304	53248	0	1	1	53248	1	53248	1	53248	1	0.7	53248	red	blue	1	0	ml	2.7.3	bip	sub-10_ses-02_task-ml_proj-bip_2020-12-15-10-26-21.769886
81	10	2	2	82	stable	1	200	82	sv	red	blue	red	blue	left	right	0.7	0.30000000000000004	10	2	7.0	0.6000000000000001	0	1	0.7	0.30000000000000004	10	2	7.0	0.6000000000000001	invalid	0.4832206770006451	51200	0	0	1	51200	1	51200	1	51200	1	0.7	51200	red	blue	1	0	ml	2.7.3	bip	sub-10_ses-02_task-ml_proj-bip_2020-12-15-10-26-21.769886
82	10	2	2	83	stable	1	200	83	sv	red	blue	red	blue	left	right	0.7	0.30000000000000004	4	6	2.8	1.8000000000000005	1	0	0.7	0.30000000000000004	4	6	2.8	1.8000000000000005	valid	0.5165379409991147	51200	0	0	1	51200	1	51200	1	53248	0	0.7	51200	red	blue	0	4	ml	2.7.3	bip	sub-10_ses-02_task-ml_proj-bip_2020-12-15-10-26-21.769886
83	10	2	2	84	stable	1	200	84	sv	blue	red	red	blue	right	left	0.7	0.30000000000000004	2	10	1.4	3.0000000000000004	0	1	0.30000000000000004	0.7	10	2	3.0000000000000004	1.4	invalid	0.4998933679999027	53248	0	1	1	51200	0	53248	1	51200	0	0.7	53248	red	blue	0	0	ml	2.7.3	bip	sub-10_ses-02_task-ml_proj-bip_2020-12-15-10-26-21.769886
84	10	2	2	85	stable	1	200	85	sv	blue	red	red	blue	right	left	0.7	0.30000000000000004	10	2	7.0	0.6000000000000001	0	1	0.30000000000000004	0.7	2	10	0.6000000000000001	7.0	invalid	0.53322268500051	53248	0	1	1	53248	1	53248	1	53248	1	0.7	53248	red	blue	1	0	ml	2.7.3	bip	sub-10_ses-02_task-ml_proj-bip_2020-12-15-10-26-21.769886
85	10	2	2	86	stable	1	200	86	sv	red	blue	red	blue	left	right	0.7	0.30000000000000004	2	10	1.4	3.0000000000000004	1	0	0.7	0.30000000000000004	2	10	1.4	3.0000000000000004	valid	0.6331655389985826	51200	0	0	1	53248	0	51200	1	53248	0	0.7	51200	red	blue	0	2	ml	2.7.3	bip	sub-10_ses-02_task-ml_proj-bip_2020-12-15-10-26-21.769886
86	10	2	2	87	stable	1	200	87	sv	blue	red	red	blue	right	left	0.7	0.30000000000000004	2	10	1.4	3.0000000000000004	0	1	0.30000000000000004	0.7	10	2	3.0000000000000004	1.4	invalid	0.5998636820004322	53248	0	1	1	51200	0	53248	1	51200	0	0.7	53248	red	blue	0	0	ml	2.7.3	bip	sub-10_ses-02_task-ml_proj-bip_2020-12-15-10-26-21.769886
87	10	2	2	88	stable	1	200	88	sv	blue	red	red	blue	right	left	0.7	0.30000000000000004	2	6	1.4	1.8000000000000005	0	1	0.30000000000000004	0.7	6	2	1.8000000000000005	1.4	invalid	1.4329480329997748	53248	0	1	1	51200	0	53248	1	51200	0	0.7	53248	red	blue	0	0	ml	2.7.3	bip	sub-10_ses-02_task-ml_proj-bip_2020-12-15-10-26-21.769886
88	10	2	2	89	stable	1	200	89	sv	red	blue	red	blue	left	right	0.7	0.30000000000000004	6	4	4.199999999999998	1.2000000000000002	1	0	0.7	0.30000000000000004	6	4	4.199999999999998	1.2000000000000002	valid	0.4665600200005429	51200	0	0	1	51200	1	51200	1	51200	1	0.7	51200	red	blue	1	6	ml	2.7.3	bip	sub-10_ses-02_task-ml_proj-bip_2020-12-15-10-26-21.769886
89	10	2	2	90	stable	1	200	90	sv	blue	red	red	blue	right	left	0.7	0.30000000000000004	2	4	1.4	1.2000000000000002	1	0	0.30000000000000004	0.7	4	2	1.2000000000000002	1.4	valid	0.4499081409994688	53248	0	1	1	53248	1	53248	1	51200	0	0.7	53248	red	blue	0	2	ml	2.7.3	bip	sub-10_ses-02_task-ml_proj-bip_2020-12-15-10-26-21.769886
90	10	2	2	91	stable	1	200	91	sv	blue	red	red	blue	right	left	0.7	0.30000000000000004	2	6	1.4	1.8000000000000005	1	0	0.30000000000000004	0.7	6	2	1.8000000000000005	1.4	valid	0.5498649519995524	53248	0	1	1	51200	0	53248	1	51200	0	0.7	53248	red	blue	0	2	ml	2.7.3	bip	sub-10_ses-02_task-ml_proj-bip_2020-12-15-10-26-21.769886
91	10	2	2	92	stable	1	200	92	sv	blue	red	red	blue	right	left	0.7	0.30000000000000004	2	10	1.4	3.0000000000000004	1	0	0.30000000000000004	0.7	10	2	3.0000000000000004	1.4	valid	0.4998875849996693	53248	0	1	1	51200	0	53248	1	51200	0	0.7	53248	red	blue	0	2	ml	2.7.3	bip	sub-10_ses-02_task-ml_proj-bip_2020-12-15-10-26-21.769886
92	10	2	2	93	stable	1	200	93	sv	blue	red	red	blue	right	left	0.7	0.30000000000000004	6	6	4.199999999999998	1.8000000000000005	1	0	0.30000000000000004	0.7	6	6	1.8000000000000005	4.199999999999998	valid	0.5832044799990399	53248	0	1	1	53248	1	53248	1	53248	1	0.7	53248	red	blue	0	6	ml	2.7.3	bip	sub-10_ses-02_task-ml_proj-bip_2020-12-15-10-26-21.769886
93	10	2	2	94	stable	1	200	94	sv	blue	red	red	blue	right	left	0.7	0.30000000000000004	2	4	1.4	1.2000000000000002	0	1	0.30000000000000004	0.7	4	2	1.2000000000000002	1.4	invalid	0.499891839999691	53248	0	1	1	53248	1	53248	1	51200	0	0.7	53248	red	blue	0	0	ml	2.7.3	bip	sub-10_ses-02_task-ml_proj-bip_2020-12-15-10-26-21.769886
94	10	2	2	95	stable	1	200	95	sv	blue	red	red	blue	right	left	0.7	0.30000000000000004	2	10	1.4	3.0000000000000004	1	0	0.30000000000000004	0.7	10	2	3.0000000000000004	1.4	valid	0.5998611289996916	53248	0	1	1	51200	0	53248	1	51200	0	0.7	53248	red	blue	0	2	ml	2.7.3	bip	sub-10_ses-02_task-ml_proj-bip_2020-12-15-10-26-21.769886
95	10	2	2	96	stable	1	200	96	sv	red	blue	red	blue	left	right	0.7	0.30000000000000004	4	6	2.8	1.8000000000000005	1	0	0.7	0.30000000000000004	4	6	2.8	1.8000000000000005	valid	0.8664426010000171	51200	0	0	1	51200	1	51200	1	53248	0	0.7	51200	red	blue	0	4	ml	2.7.3	bip	sub-10_ses-02_task-ml_proj-bip_2020-12-15-10-26-21.769886
96	10	2	2	97	stable	1	200	97	sv	red	blue	red	blue	left	right	0.7	0.30000000000000004	4	6	2.8	1.8000000000000005	0	1	0.7	0.30000000000000004	4	6	2.8	1.8000000000000005	invalid	0.4665519720001612	51200	0	0	1	51200	1	51200	1	53248	0	0.7	51200	red	blue	0	0	ml	2.7.3	bip	sub-10_ses-02_task-ml_proj-bip_2020-12-15-10-26-21.769886
97	10	2	2	98	stable	1	200	98	sv	red	blue	red	blue	left	right	0.7	0.30000000000000004	2	4	1.4	1.2000000000000002	1	0	0.7	0.30000000000000004	2	4	1.4	1.2000000000000002	valid	0.5332050890010578	51200	0	0	1	51200	1	51200	1	53248	0	0.7	51200	red	blue	0	2	ml	2.7.3	bip	sub-10_ses-02_task-ml_proj-bip_2020-12-15-10-26-21.769886
98	10	2	2	99	stable	1	200	99	sv	blue	red	red	blue	right	left	0.7	0.30000000000000004	10	2	7.0	0.6000000000000001	1	0	0.30000000000000004	0.7	2	10	0.6000000000000001	7.0	valid	0.6831728699999076	53248	0	1	1	53248	1	53248	1	53248	1	0.7	53248	red	blue	1	10	ml	2.7.3	bip	sub-10_ses-02_task-ml_proj-bip_2020-12-15-10-26-21.769886
99	10	2	2	100	stable	1	200	100	sv	red	blue	red	blue	left	right	0.7	0.30000000000000004	2	6	1.4	1.8000000000000005	1	0	0.7	0.30000000000000004	2	6	1.4	1.8000000000000005	valid	0.4499080989990034	51200	0	0	1	53248	0	51200	1	53248	0	0.7	51200	red	blue	0	2	ml	2.7.3	bip	sub-10_ses-02_task-ml_proj-bip_2020-12-15-10-26-21.769886
100	10	2	3	101	stable	1	200	101	sv	blue	red	red	blue	right	left	0.7	0.30000000000000004	2	4	1.4	1.2000000000000002	0	1	0.30000000000000004	0.7	4	2	1.2000000000000002	1.4	invalid	0.8331280410002364	53248	0	1	1	53248	1	53248	1	51200	0	0.7	53248	red	blue	0	0	ml	2.7.3	bip	sub-10_ses-02_task-ml_proj-bip_2020-12-15-10-26-21.769886
101	10	2	3	102	stable	1	200	102	sv	blue	red	red	blue	right	left	0.7	0.30000000000000004	6	4	4.199999999999998	1.2000000000000002	1	0	0.30000000000000004	0.7	4	6	1.2000000000000002	4.199999999999998	valid	0.2832800970008975	51200	0	0	2	53248	0	53248	0	53248	0	0.7	53248	red	blue	1	0	ml	2.7.3	bip	sub-10_ses-02_task-ml_proj-bip_2020-12-15-10-26-21.769886
102	10	2	3	103	stable	1	200	103	sv	red	blue	red	blue	left	right	0.7	0.30000000000000004	4	2	2.8	0.6000000000000001	1	0	0.7	0.30000000000000004	4	2	2.8	0.6000000000000001	valid	0.6165241270009574	53248	0	1	2	51200	0	51200	0	51200	0	0.7	51200	red	blue	1	0	ml	2.7.3	bip	sub-10_ses-02_task-ml_proj-bip_2020-12-15-10-26-21.769886
103	10	2	3	104	stable	1	200	104	sv	blue	red	red	blue	right	left	0.7	0.30000000000000004	2	6	1.4	1.8000000000000005	1	0	0.30000000000000004	0.7	6	2	1.8000000000000005	1.4	valid	0.34992444399904343	51200	0	0	2	51200	1	53248	0	51200	1	0.7	53248	red	blue	0	0	ml	2.7.3	bip	sub-10_ses-02_task-ml_proj-bip_2020-12-15-10-26-21.769886
104	10	2	3	105	stable	1	200	105	sv	red	blue	red	blue	left	right	0.7	0.30000000000000004	4	6	2.8	1.8000000000000005	1	0	0.7	0.30000000000000004	4	6	2.8	1.8000000000000005	valid	0.6165062610016321	51200	0	0	1	51200	1	51200	1	53248	0	0.7	51200	red	blue	0	4	ml	2.7.3	bip	sub-10_ses-02_task-ml_proj-bip_2020-12-15-10-26-21.769886
105	10	2	3	106	stable	1	200	106	sv	blue	red	red	blue	right	left	0.7	0.30000000000000004	2	4	1.4	1.2000000000000002	1	0	0.30000000000000004	0.7	4	2	1.2000000000000002	1.4	valid	0.3832585820000531	53248	0	1	1	53248	1	53248	1	51200	0	0.7	53248	red	blue	0	2	ml	2.7.3	bip	sub-10_ses-02_task-ml_proj-bip_2020-12-15-10-26-21.769886
106	10	2	3	107	stable	1	200	107	sv	red	blue	red	blue	left	right	0.7	0.30000000000000004	4	6	2.8	1.8000000000000005	1	0	0.7	0.30000000000000004	4	6	2.8	1.8000000000000005	valid	0.39992985100070655	51200	0	0	1	51200	1	51200	1	53248	0	0.7	51200	red	blue	0	4	ml	2.7.3	bip	sub-10_ses-02_task-ml_proj-bip_2020-12-15-10-26-21.769886
107	10	2	3	108	stable	1	200	108	sv	red	blue	red	blue	left	right	0.7	0.30000000000000004	2	4	1.4	1.2000000000000002	1	0	0.7	0.30000000000000004	2	4	1.4	1.2000000000000002	valid	0.5665296549996128	51200	0	0	1	51200	1	51200	1	53248	0	0.7	51200	red	blue	0	2	ml	2.7.3	bip	sub-10_ses-02_task-ml_proj-bip_2020-12-15-10-26-21.769886
108	10	2	3	109	stable	1	200	109	sv	blue	red	red	blue	right	left	0.7	0.30000000000000004	2	4	1.4	1.2000000000000002	1	0	0.30000000000000004	0.7	4	2	1.2000000000000002	1.4	valid	0.4998908950001351	53248	0	1	1	53248	1	53248	1	51200	0	0.7	53248	red	blue	0	2	ml	2.7.3	bip	sub-10_ses-02_task-ml_proj-bip_2020-12-15-10-26-21.769886
109	10	2	3	110	stable	1	200	110	sv	blue	red	red	blue	right	left	0.7	0.30000000000000004	2	10	1.4	3.0000000000000004	1	0	0.30000000000000004	0.7	10	2	3.0000000000000004	1.4	valid	0.4665807149995089	53248	0	1	1	51200	0	53248	1	51200	0	0.7	53248	red	blue	0	2	ml	2.7.3	bip	sub-10_ses-02_task-ml_proj-bip_2020-12-15-10-26-21.769886
110	10	2	3	111	stable	1	200	111	sv	blue	red	red	blue	right	left	0.7	0.30000000000000004	4	2	2.8	0.6000000000000001	0	1	0.30000000000000004	0.7	2	4	0.6000000000000001	2.8	invalid	1.3829687230008858	53248	0	1	1	53248	1	53248	1	53248	1	0.7	53248	red	blue	1	0	ml	2.7.3	bip	sub-10_ses-02_task-ml_proj-bip_2020-12-15-10-26-21.769886
111	10	2	3	112	stable	1	200	112	sv	red	blue	red	blue	left	right	0.7	0.30000000000000004	2	10	1.4	3.0000000000000004	0	1	0.7	0.30000000000000004	2	10	1.4	3.0000000000000004	invalid	0.5498651239995525	51200	0	0	1	53248	0	51200	1	53248	0	0.7	51200	red	blue	0	0	ml	2.7.3	bip	sub-10_ses-02_task-ml_proj-bip_2020-12-15-10-26-21.769886
112	10	2	3	113	stable	1	200	113	sv	blue	red	red	blue	right	left	0.7	0.30000000000000004	2	4	1.4	1.2000000000000002	1	0	0.30000000000000004	0.7	4	2	1.2000000000000002	1.4	valid	0.36660241200115706	53248	0	1	1	53248	1	53248	1	51200	0	0.7	53248	red	blue	0	2	ml	2.7.3	bip	sub-10_ses-02_task-ml_proj-bip_2020-12-15-10-26-21.769886
113	10	2	3	114	stable	1	200	114	sv	blue	red	red	blue	right	left	0.7	0.30000000000000004	6	4	4.199999999999998	1.2000000000000002	0	1	0.30000000000000004	0.7	4	6	1.2000000000000002	4.199999999999998	invalid	0.6665101950002281	53248	0	1	1	53248	1	53248	1	53248	1	0.7	53248	red	blue	1	0	ml	2.7.3	bip	sub-10_ses-02_task-ml_proj-bip_2020-12-15-10-26-21.769886
114	10	2	3	115	stable	1	200	115	sv	red	blue	red	blue	left	right	0.7	0.30000000000000004	10	2	7.0	0.6000000000000001	1	0	0.7	0.30000000000000004	10	2	7.0	0.6000000000000001	valid	0.4832150139991427	51200	0	0	1	51200	1	51200	1	51200	1	0.7	51200	red	blue	1	10	ml	2.7.3	bip	sub-10_ses-02_task-ml_proj-bip_2020-12-15-10-26-21.769886
115	10	2	3	116	stable	1	200	116	sv	blue	red	red	blue	right	left	0.7	0.30000000000000004	6	4	4.199999999999998	1.2000000000000002	1	0	0.30000000000000004	0.7	4	6	1.2000000000000002	4.199999999999998	valid	0.8831172399986826	53248	0	1	1	53248	1	53248	1	53248	1	0.7	53248	red	blue	1	6	ml	2.7.3	bip	sub-10_ses-02_task-ml_proj-bip_2020-12-15-10-26-21.769886
116	10	2	3	117	stable	1	200	117	sv	blue	red	red	blue	right	left	0.7	0.30000000000000004	10	2	7.0	0.6000000000000001	0	1	0.30000000000000004	0.7	2	10	0.6000000000000001	7.0	invalid	0.54987449500004	53248	0	1	1	53248	1	53248	1	53248	1	0.7	53248	red	blue	1	0	ml	2.7.3	bip	sub-10_ses-02_task-ml_proj-bip_2020-12-15-10-26-21.769886
117	10	2	3	118	stable	1	200	118	sv	blue	red	red	blue	right	left	0.7	0.30000000000000004	4	2	2.8	0.6000000000000001	1	0	0.30000000000000004	0.7	2	4	0.6000000000000001	2.8	valid	0.3832671780000965	53248	0	1	1	53248	1	53248	1	53248	1	0.7	53248	red	blue	1	4	ml	2.7.3	bip	sub-10_ses-02_task-ml_proj-bip_2020-12-15-10-26-21.769886
118	10	2	3	119	stable	1	200	119	sv	red	blue	red	blue	left	right	0.7	0.30000000000000004	4	2	2.8	0.6000000000000001	0	1	0.7	0.30000000000000004	4	2	2.8	0.6000000000000001	invalid	0.7664737630002492	51200	0	0	1	51200	1	51200	1	51200	1	0.7	51200	red	blue	1	0	ml	2.7.3	bip	sub-10_ses-02_task-ml_proj-bip_2020-12-15-10-26-21.769886
119	10	2	3	120	stable	1	200	120	sv	blue	red	red	blue	right	left	0.7	0.30000000000000004	4	6	2.8	1.8000000000000005	1	0	0.30000000000000004	0.7	6	4	1.8000000000000005	2.8	valid	0.43324215699976776	53248	0	1	1	53248	1	53248	1	51200	0	0.7	53248	red	blue	0	4	ml	2.7.3	bip	sub-10_ses-02_task-ml_proj-bip_2020-12-15-10-26-21.769886
120	10	2	3	121	stable	1	200	121	sv	blue	red	red	blue	right	left	0.7	0.30000000000000004	4	6	2.8	1.8000000000000005	1	0	0.30000000000000004	0.7	6	4	1.8000000000000005	2.8	valid	0.8664476539997851	53248	0	1	1	53248	1	53248	1	51200	0	0.7	53248	red	blue	0	4	ml	2.7.3	bip	sub-10_ses-02_task-ml_proj-bip_2020-12-15-10-26-21.769886
121	10	2	3	122	stable	1	200	122	sv	blue	red	red	blue	right	left	0.7	0.30000000000000004	2	4	1.4	1.2000000000000002	1	0	0.30000000000000004	0.7	4	2	1.2000000000000002	1.4	valid	0.8831048769989138	53248	0	1	1	53248	1	53248	1	51200	0	0.7	53248	red	blue	0	2	ml	2.7.3	bip	sub-10_ses-02_task-ml_proj-bip_2020-12-15-10-26-21.769886
122	10	2	3	123	stable	1	200	123	sv	red	blue	red	blue	left	right	0.7	0.30000000000000004	6	4	4.199999999999998	1.2000000000000002	1	0	0.7	0.30000000000000004	6	4	4.199999999999998	1.2000000000000002	valid	0.9330966480010828	51200	0	0	1	51200	1	51200	1	51200	1	0.7	51200	red	blue	1	6	ml	2.7.3	bip	sub-10_ses-02_task-ml_proj-bip_2020-12-15-10-26-21.769886
123	10	2	3	124	stable	1	200	124	sv	red	blue	red	blue	left	right	0.7	0.30000000000000004	2	10	1.4	3.0000000000000004	0	1	0.7	0.30000000000000004	2	10	1.4	3.0000000000000004	invalid	0.5831905859995459	51200	0	0	1	53248	0	51200	1	53248	0	0.7	51200	red	blue	0	0	ml	2.7.3	bip	sub-10_ses-02_task-ml_proj-bip_2020-12-15-10-26-21.769886
124	10	2	3	125	stable	1	200	125	sv	blue	red	red	blue	right	left	0.7	0.30000000000000004	4	2	2.8	0.6000000000000001	0	1	0.30000000000000004	0.7	2	4	0.6000000000000001	2.8	invalid	0.8497862809999788	53248	0	1	1	53248	1	53248	1	53248	1	0.7	53248	red	blue	1	0	ml	2.7.3	bip	sub-10_ses-02_task-ml_proj-bip_2020-12-15-10-26-21.769886
125	10	2	3	126	stable	1	200	126	sv	red	blue	red	blue	left	right	0.7	0.30000000000000004	10	2	7.0	0.6000000000000001	1	0	0.7	0.30000000000000004	10	2	7.0	0.6000000000000001	valid	0.69982629200058	51200	0	0	1	51200	1	51200	1	51200	1	0.7	51200	red	blue	1	10	ml	2.7.3	bip	sub-10_ses-02_task-ml_proj-bip_2020-12-15-10-26-21.769886
126	10	2	3	127	stable	1	200	127	sv	red	blue	red	blue	left	right	0.7	0.30000000000000004	6	6	4.199999999999998	1.8000000000000005	0	1	0.7	0.30000000000000004	6	6	4.199999999999998	1.8000000000000005	invalid	0.5831927300005191	51200	0	0	1	51200	1	51200	1	53248	0	0.7	51200	red	blue	1	0	ml	2.7.3	bip	sub-10_ses-02_task-ml_proj-bip_2020-12-15-10-26-21.769886
127	10	2	3	128	stable	1	200	128	sv	blue	red	red	blue	right	left	0.7	0.30000000000000004	2	4	1.4	1.2000000000000002	1	0	0.30000000000000004	0.7	4	2	1.2000000000000002	1.4	valid	0.6665099210003973	53248	0	1	1	53248	1	53248	1	51200	0	0.7	53248	red	blue	0	2	ml	2.7.3	bip	sub-10_ses-02_task-ml_proj-bip_2020-12-15-10-26-21.769886
128	10	2	3	129	stable	1	200	129	sv	red	blue	red	blue	left	right	0.7	0.30000000000000004	4	6	2.8	1.8000000000000005	1	0	0.7	0.30000000000000004	4	6	2.8	1.8000000000000005	valid	0.6498389600001246	51200	0	0	1	51200	1	51200	1	53248	0	0.7	51200	red	blue	0	4	ml	2.7.3	bip	sub-10_ses-02_task-ml_proj-bip_2020-12-15-10-26-21.769886
129	10	2	3	130	stable	1	200	130	sv	red	blue	red	blue	left	right	0.7	0.30000000000000004	10	2	7.0	0.6000000000000001	1	0	0.7	0.30000000000000004	10	2	7.0	0.6000000000000001	valid	0.5665201899992098	51200	0	0	1	51200	1	51200	1	51200	1	0.7	51200	red	blue	1	10	ml	2.7.3	bip	sub-10_ses-02_task-ml_proj-bip_2020-12-15-10-26-21.769886
130	10	2	3	131	stable	1	200	131	sv	red	blue	red	blue	left	right	0.7	0.30000000000000004	6	6	4.199999999999998	1.8000000000000005	1	0	0.7	0.30000000000000004	6	6	4.199999999999998	1.8000000000000005	valid	0.5498687060007796	51200	0	0	1	51200	1	51200	1	53248	0	0.7	51200	red	blue	1	6	ml	2.7.3	bip	sub-10_ses-02_task-ml_proj-bip_2020-12-15-10-26-21.769886
131	10	2	3	132	stable	1	200	132	sv	red	blue	red	blue	left	right	0.7	0.30000000000000004	2	10	1.4	3.0000000000000004	0	1	0.7	0.30000000000000004	2	10	1.4	3.0000000000000004	invalid	0.5831972180003504	51200	0	0	1	53248	0	51200	1	53248	0	0.7	51200	red	blue	0	0	ml	2.7.3	bip	sub-10_ses-02_task-ml_proj-bip_2020-12-15-10-26-21.769886
132	10	2	3	133	stable	1	200	133	sv	blue	red	red	blue	right	left	0.7	0.30000000000000004	2	4	1.4	1.2000000000000002	1	0	0.30000000000000004	0.7	4	2	1.2000000000000002	1.4	valid	0.43324385699997947	53248	0	1	1	53248	1	53248	1	51200	0	0.7	53248	red	blue	0	2	ml	2.7.3	bip	sub-10_ses-02_task-ml_proj-bip_2020-12-15-10-26-21.769886
133	10	2	3	134	stable	1	200	134	sv	red	blue	red	blue	left	right	0.7	0.30000000000000004	10	2	7.0	0.6000000000000001	0	1	0.7	0.30000000000000004	10	2	7.0	0.6000000000000001	invalid	0.4498944150000169	51200	0	0	1	51200	1	51200	1	51200	1	0.7	51200	red	blue	1	0	ml	2.7.3	bip	sub-10_ses-02_task-ml_proj-bip_2020-12-15-10-26-21.769886
134	10	2	3	135	stable	1	200	135	sv	blue	red	red	blue	right	left	0.7	0.30000000000000004	4	6	2.8	1.8000000000000005	1	0	0.30000000000000004	0.7	6	4	1.8000000000000005	2.8	valid	0.4332438839992392	53248	0	1	1	53248	1	53248	1	51200	0	0.7	53248	red	blue	0	4	ml	2.7.3	bip	sub-10_ses-02_task-ml_proj-bip_2020-12-15-10-26-21.769886
135	10	2	3	136	stable	1	200	136	sv	red	blue	red	blue	left	right	0.7	0.30000000000000004	2	10	1.4	3.0000000000000004	1	0	0.7	0.30000000000000004	2	10	1.4	3.0000000000000004	valid	0.3999108580010216	51200	0	0	1	53248	0	51200	1	53248	0	0.7	51200	red	blue	0	2	ml	2.7.3	bip	sub-10_ses-02_task-ml_proj-bip_2020-12-15-10-26-21.769886
136	10	2	3	137	stable	1	200	137	sv	blue	red	red	blue	right	left	0.7	0.30000000000000004	4	2	2.8	0.6000000000000001	1	0	0.30000000000000004	0.7	2	4	0.6000000000000001	2.8	valid	1.8495019609999872	53248	0	1	1	53248	1	53248	1	53248	1	0.7	53248	red	blue	1	4	ml	2.7.3	bip	sub-10_ses-02_task-ml_proj-bip_2020-12-15-10-26-21.769886
137	10	2	3	138	stable	1	200	138	sv	red	blue	red	blue	left	right	0.7	0.30000000000000004	2	2	1.4	0.6000000000000001	0	1	0.7	0.30000000000000004	2	2	1.4	0.6000000000000001	invalid	0.5165435890012304	51200	0	0	1	51200	1	51200	1	53248	0	0.7	51200	red	blue	1	0	ml	2.7.3	bip	sub-10_ses-02_task-ml_proj-bip_2020-12-15-10-26-21.769886
138	10	2	3	139	stable	1	200	139	sv	red	blue	red	blue	left	right	0.7	0.30000000000000004	2	2	1.4	0.6000000000000001	0	1	0.7	0.30000000000000004	2	2	1.4	0.6000000000000001	invalid	0.4998896720007906	51200	0	0	1	51200	1	51200	1	53248	0	0.7	51200	red	blue	1	0	ml	2.7.3	bip	sub-10_ses-02_task-ml_proj-bip_2020-12-15-10-26-21.769886
139	10	2	3	140	stable	1	200	140	sv	red	blue	red	blue	left	right	0.7	0.30000000000000004	2	2	1.4	0.6000000000000001	0	1	0.7	0.30000000000000004	2	2	1.4	0.6000000000000001	invalid	0.4498971730008634	51200	0	0	1	51200	1	51200	1	53248	0	0.7	51200	red	blue	1	0	ml	2.7.3	bip	sub-10_ses-02_task-ml_proj-bip_2020-12-15-10-26-21.769886
140	10	2	3	141	stable	1	200	141	sv	red	blue	red	blue	left	right	0.7	0.30000000000000004	4	2	2.8	0.6000000000000001	0	1	0.7	0.30000000000000004	4	2	2.8	0.6000000000000001	invalid	0.5165440830005537	51200	0	0	1	51200	1	51200	1	51200	1	0.7	51200	red	blue	1	0	ml	2.7.3	bip	sub-10_ses-02_task-ml_proj-bip_2020-12-15-10-26-21.769886
141	10	2	3	142	stable	1	200	142	sv	blue	red	red	blue	right	left	0.7	0.30000000000000004	6	4	4.199999999999998	1.2000000000000002	1	0	0.30000000000000004	0.7	4	6	1.2000000000000002	4.199999999999998	valid	0.6998326550001366	53248	0	1	1	53248	1	53248	1	53248	1	0.7	53248	red	blue	1	6	ml	2.7.3	bip	sub-10_ses-02_task-ml_proj-bip_2020-12-15-10-26-21.769886
142	10	2	3	143	stable	1	200	143	sv	blue	red	red	blue	right	left	0.7	0.30000000000000004	6	2	4.199999999999998	0.6000000000000001	1	0	0.30000000000000004	0.7	2	6	0.6000000000000001	4.199999999999998	valid	0.39991919199928816	53248	0	1	1	53248	1	53248	1	53248	1	0.7	53248	red	blue	1	6	ml	2.7.3	bip	sub-10_ses-02_task-ml_proj-bip_2020-12-15-10-26-21.769886
143	10	2	3	144	stable	1	200	144	sv	blue	red	red	blue	right	left	0.7	0.30000000000000004	2	6	1.4	1.8000000000000005	1	0	0.30000000000000004	0.7	6	2	1.8000000000000005	1.4	valid	0.7831377500006056	53248	0	1	1	51200	0	53248	1	51200	0	0.7	53248	red	blue	0	2	ml	2.7.3	bip	sub-10_ses-02_task-ml_proj-bip_2020-12-15-10-26-21.769886
144	10	2	3	145	stable	1	200	145	sv	blue	red	red	blue	right	left	0.7	0.30000000000000004	6	2	4.199999999999998	0.6000000000000001	0	1	0.30000000000000004	0.7	2	6	0.6000000000000001	4.199999999999998	invalid	0.5498797039999772	53248	0	1	1	53248	1	53248	1	53248	1	0.7	53248	red	blue	1	0	ml	2.7.3	bip	sub-10_ses-02_task-ml_proj-bip_2020-12-15-10-26-21.769886
145	10	2	3	146	stable	1	200	146	sv	blue	red	red	blue	right	left	0.7	0.30000000000000004	6	4	4.199999999999998	1.2000000000000002	1	0	0.30000000000000004	0.7	4	6	1.2000000000000002	4.199999999999998	valid	0.5165534000007028	53248	0	1	1	53248	1	53248	1	53248	1	0.7	53248	red	blue	1	6	ml	2.7.3	bip	sub-10_ses-02_task-ml_proj-bip_2020-12-15-10-26-21.769886
146	10	2	3	147	stable	1	200	147	sv	blue	red	red	blue	right	left	0.7	0.30000000000000004	4	6	2.8	1.8000000000000005	0	1	0.30000000000000004	0.7	6	4	1.8000000000000005	2.8	invalid	0.6498539410004014	53248	0	1	1	53248	1	53248	1	51200	0	0.7	53248	red	blue	0	0	ml	2.7.3	bip	sub-10_ses-02_task-ml_proj-bip_2020-12-15-10-26-21.769886
147	10	2	3	148	stable	1	200	148	sv	blue	red	red	blue	right	left	0.7	0.30000000000000004	2	6	1.4	1.8000000000000005	1	0	0.30000000000000004	0.7	6	2	1.8000000000000005	1.4	valid	1.233012279999457	53248	0	1	1	51200	0	53248	1	51200	0	0.7	53248	red	blue	0	2	ml	2.7.3	bip	sub-10_ses-02_task-ml_proj-bip_2020-12-15-10-26-21.769886
148	10	2	3	149	stable	1	200	149	sv	blue	red	red	blue	right	left	0.7	0.30000000000000004	6	6	4.199999999999998	1.8000000000000005	0	1	0.30000000000000004	0.7	6	6	1.8000000000000005	4.199999999999998	invalid	0.6665088949994242	53248	0	1	1	53248	1	53248	1	53248	1	0.7	53248	red	blue	0	0	ml	2.7.3	bip	sub-10_ses-02_task-ml_proj-bip_2020-12-15-10-26-21.769886
149	10	2	3	150	stable	1	200	150	sv	blue	red	red	blue	right	left	0.7	0.30000000000000004	6	2	4.199999999999998	0.6000000000000001	1	0	0.30000000000000004	0.7	2	6	0.6000000000000001	4.199999999999998	valid	1.0330585529991367	51200	0	0	2	53248	0	53248	0	53248	0	0.7	53248	red	blue	1	0	ml	2.7.3	bip	sub-10_ses-02_task-ml_proj-bip_2020-12-15-10-26-21.769886
150	10	2	4	151	stable	1	200	151	sv	blue	red	red	blue	right	left	0.7	0.30000000000000004	6	2	4.199999999999998	0.6000000000000001	1	0	0.30000000000000004	0.7	2	6	0.6000000000000001	4.199999999999998	valid	0.5998664489998191	53248	0	1	1	53248	1	53248	1	53248	1	0.7	53248	red	blue	1	6	ml	2.7.3	bip	sub-10_ses-02_task-ml_proj-bip_2020-12-15-10-26-21.769886
151	10	2	4	152	stable	1	200	152	sv	red	blue	red	blue	left	right	0.7	0.30000000000000004	6	6	4.199999999999998	1.8000000000000005	1	0	0.7	0.30000000000000004	6	6	4.199999999999998	1.8000000000000005	valid	0.5332030739991751	51200	0	0	1	51200	1	51200	1	53248	0	0.7	51200	red	blue	1	6	ml	2.7.3	bip	sub-10_ses-02_task-ml_proj-bip_2020-12-15-10-26-21.769886
152	10	2	4	153	stable	1	200	153	sv	red	blue	red	blue	left	right	0.7	0.30000000000000004	6	4	4.199999999999998	1.2000000000000002	0	1	0.7	0.30000000000000004	6	4	4.199999999999998	1.2000000000000002	invalid	0.5831919450010901	51200	0	0	1	51200	1	51200	1	51200	1	0.7	51200	red	blue	1	0	ml	2.7.3	bip	sub-10_ses-02_task-ml_proj-bip_2020-12-15-10-26-21.769886
153	10	2	4	154	stable	1	200	154	sv	blue	red	red	blue	right	left	0.7	0.30000000000000004	6	2	4.199999999999998	0.6000000000000001	0	1	0.30000000000000004	0.7	2	6	0.6000000000000001	4.199999999999998	invalid	0.39991790099884383	53248	0	1	1	53248	1	53248	1	53248	1	0.7	53248	red	blue	1	0	ml	2.7.3	bip	sub-10_ses-02_task-ml_proj-bip_2020-12-15-10-26-21.769886
154	10	2	4	155	stable	1	200	155	sv	red	blue	red	blue	left	right	0.7	0.30000000000000004	2	10	1.4	3.0000000000000004	1	0	0.7	0.30000000000000004	2	10	1.4	3.0000000000000004	valid	0.4332357340008457	51200	0	0	1	53248	0	51200	1	53248	0	0.7	51200	red	blue	0	2	ml	2.7.3	bip	sub-10_ses-02_task-ml_proj-bip_2020-12-15-10-26-21.769886
155	10	2	4	156	stable	1	200	156	sv	blue	red	red	blue	right	left	0.7	0.30000000000000004	4	6	2.8	1.8000000000000005	0	1	0.30000000000000004	0.7	6	4	1.8000000000000005	2.8	invalid	1.0164027430000715	51200	0	0	2	53248	0	53248	0	51200	1	0.7	53248	red	blue	0	6	ml	2.7.3	bip	sub-10_ses-02_task-ml_proj-bip_2020-12-15-10-26-21.769886
156	10	2	4	157	stable	1	200	157	sv	red	blue	red	blue	left	right	0.7	0.30000000000000004	10	2	7.0	0.6000000000000001	1	0	0.7	0.30000000000000004	10	2	7.0	0.6000000000000001	valid	0.9497520259992598	51200	0	0	1	51200	1	51200	1	51200	1	0.7	51200	red	blue	1	10	ml	2.7.3	bip	sub-10_ses-02_task-ml_proj-bip_2020-12-15-10-26-21.769886
157	10	2	4	158	stable	1	200	158	sv	red	blue	red	blue	left	right	0.7	0.30000000000000004	6	4	4.199999999999998	1.2000000000000002	0	1	0.7	0.30000000000000004	6	4	4.199999999999998	1.2000000000000002	invalid	0.9330914559996016	51200	0	0	1	51200	1	51200	1	51200	1	0.7	51200	red	blue	1	0	ml	2.7.3	bip	sub-10_ses-02_task-ml_proj-bip_2020-12-15-10-26-21.769886
158	10	2	4	159	stable	1	200	159	sv	blue	red	red	blue	right	left	0.7	0.30000000000000004	2	2	1.4	0.6000000000000001	1	0	0.30000000000000004	0.7	2	2	0.6000000000000001	1.4	valid	1.7162135580001632	53248	0	1	1	53248	1	53248	1	53248	1	0.7	53248	red	blue	0	2	ml	2.7.3	bip	sub-10_ses-02_task-ml_proj-bip_2020-12-15-10-26-21.769886
159	10	2	4	160	stable	1	200	160	sv	blue	red	red	blue	right	left	0.7	0.30000000000000004	6	2	4.199999999999998	0.6000000000000001	1	0	0.30000000000000004	0.7	2	6	0.6000000000000001	4.199999999999998	valid	0.6331841790015461	53248	0	1	1	53248	1	53248	1	53248	1	0.7	53248	red	blue	1	6	ml	2.7.3	bip	sub-10_ses-02_task-ml_proj-bip_2020-12-15-10-26-21.769886
160	10	2	4	161	stable	1	200	161	sv	red	blue	red	blue	left	right	0.7	0.30000000000000004	6	2	4.199999999999998	0.6000000000000001	1	0	0.7	0.30000000000000004	6	2	4.199999999999998	0.6000000000000001	valid	0.9664150450007584	51200	0	0	1	51200	1	51200	1	51200	1	0.7	51200	red	blue	1	6	ml	2.7.3	bip	sub-10_ses-02_task-ml_proj-bip_2020-12-15-10-26-21.769886
161	10	2	4	162	stable	1	200	162	sv	red	blue	red	blue	left	right	0.7	0.30000000000000004	4	2	2.8	0.6000000000000001	1	0	0.7	0.30000000000000004	4	2	2.8	0.6000000000000001	valid	0.633184672000425	51200	0	0	1	51200	1	51200	1	51200	1	0.7	51200	red	blue	1	4	ml	2.7.3	bip	sub-10_ses-02_task-ml_proj-bip_2020-12-15-10-26-21.769886
162	10	2	4	163	stable	1	200	163	sv	blue	red	red	blue	right	left	0.7	0.30000000000000004	2	2	1.4	0.6000000000000001	1	0	0.30000000000000004	0.7	2	2	0.6000000000000001	1.4	valid	0.5665289000007759	51200	0	0	2	53248	0	53248	0	53248	0	0.7	53248	red	blue	0	0	ml	2.7.3	bip	sub-10_ses-02_task-ml_proj-bip_2020-12-15-10-26-21.769886
163	10	2	4	164	stable	1	200	164	sv	blue	red	red	blue	right	left	0.7	0.30000000000000004	4	6	2.8	1.8000000000000005	1	0	0.30000000000000004	0.7	6	4	1.8000000000000005	2.8	valid	1.3329834180003672	53248	0	1	1	53248	1	53248	1	51200	0	0.7	53248	red	blue	0	4	ml	2.7.3	bip	sub-10_ses-02_task-ml_proj-bip_2020-12-15-10-26-21.769886
164	10	2	4	165	stable	1	200	165	sv	red	blue	red	blue	left	right	0.7	0.30000000000000004	2	4	1.4	1.2000000000000002	1	0	0.7	0.30000000000000004	2	4	1.4	1.2000000000000002	valid	1.0163924580010644	51200	0	0	1	51200	1	51200	1	53248	0	0.7	51200	red	blue	0	2	ml	2.7.3	bip	sub-10_ses-02_task-ml_proj-bip_2020-12-15-10-26-21.769886
165	10	2	4	166	stable	1	200	166	sv	red	blue	red	blue	left	right	0.7	0.30000000000000004	2	6	1.4	1.8000000000000005	0	1	0.7	0.30000000000000004	2	6	1.4	1.8000000000000005	invalid	0.6331844950000232	51200	0	0	1	53248	0	51200	1	53248	0	0.7	51200	red	blue	0	0	ml	2.7.3	bip	sub-10_ses-02_task-ml_proj-bip_2020-12-15-10-26-21.769886
166	10	2	4	167	stable	1	200	167	sv	red	blue	red	blue	left	right	0.7	0.30000000000000004	2	4	1.4	1.2000000000000002	0	1	0.7	0.30000000000000004	2	4	1.4	1.2000000000000002	invalid	0.4665586060000351	51200	0	0	1	51200	1	51200	1	53248	0	0.7	51200	red	blue	0	0	ml	2.7.3	bip	sub-10_ses-02_task-ml_proj-bip_2020-12-15-10-26-21.769886
167	10	2	4	168	stable	1	200	168	sv	red	blue	red	blue	left	right	0.7	0.30000000000000004	6	2	4.199999999999998	0.6000000000000001	1	0	0.7	0.30000000000000004	6	2	4.199999999999998	0.6000000000000001	valid	0.4998723850003444	51200	0	0	1	51200	1	51200	1	51200	1	0.7	51200	red	blue	1	6	ml	2.7.3	bip	sub-10_ses-02_task-ml_proj-bip_2020-12-15-10-26-21.769886
168	10	2	4	169	stable	1	200	169	sv	blue	red	red	blue	right	left	0.7	0.30000000000000004	4	6	2.8	1.8000000000000005	1	0	0.30000000000000004	0.7	6	4	1.8000000000000005	2.8	valid	0.3832607630010898	53248	0	1	1	53248	1	53248	1	51200	0	0.7	53248	red	blue	0	4	ml	2.7.3	bip	sub-10_ses-02_task-ml_proj-bip_2020-12-15-10-26-21.769886
169	10	2	4	170	stable	1	200	170	sv	blue	red	red	blue	right	left	0.7	0.30000000000000004	2	2	1.4	0.6000000000000001	1	0	0.30000000000000004	0.7	2	2	0.6000000000000001	1.4	valid	0.6165176269987569	53248	0	1	1	53248	1	53248	1	53248	1	0.7	53248	red	blue	0	2	ml	2.7.3	bip	sub-10_ses-02_task-ml_proj-bip_2020-12-15-10-26-21.769886
170	10	2	4	171	stable	1	200	171	sv	red	blue	red	blue	left	right	0.7	0.30000000000000004	2	2	1.4	0.6000000000000001	1	0	0.7	0.30000000000000004	2	2	1.4	0.6000000000000001	valid	0.5831919880001806	51200	0	0	1	51200	1	51200	1	53248	0	0.7	51200	red	blue	1	2	ml	2.7.3	bip	sub-10_ses-02_task-ml_proj-bip_2020-12-15-10-26-21.769886
171	10	2	4	172	stable	1	200	172	sv	blue	red	red	blue	right	left	0.7	0.30000000000000004	6	6	4.199999999999998	1.8000000000000005	1	0	0.30000000000000004	0.7	6	6	1.8000000000000005	4.199999999999998	valid	0.3832608140000957	53248	0	1	1	53248	1	53248	1	53248	1	0.7	53248	red	blue	0	6	ml	2.7.3	bip	sub-10_ses-02_task-ml_proj-bip_2020-12-15-10-26-21.769886
172	10	2	4	173	stable	1	200	173	sv	red	blue	red	blue	left	right	0.7	0.30000000000000004	10	2	7.0	0.6000000000000001	1	0	0.7	0.30000000000000004	10	2	7.0	0.6000000000000001	valid	0.3832483749993117	51200	0	0	1	51200	1	51200	1	51200	1	0.7	51200	red	blue	1	10	ml	2.7.3	bip	sub-10_ses-02_task-ml_proj-bip_2020-12-15-10-26-21.769886
173	10	2	4	174	stable	1	200	174	sv	red	blue	red	blue	left	right	0.7	0.30000000000000004	2	2	1.4	0.6000000000000001	1	0	0.7	0.30000000000000004	2	2	1.4	0.6000000000000001	valid	0.4498950590004824	51200	0	0	1	51200	1	51200	1	53248	0	0.7	51200	red	blue	1	2	ml	2.7.3	bip	sub-10_ses-02_task-ml_proj-bip_2020-12-15-10-26-21.769886
174	10	2	4	175	stable	1	200	175	sv	blue	red	red	blue	right	left	0.7	0.30000000000000004	2	2	1.4	0.6000000000000001	0	1	0.30000000000000004	0.7	2	2	0.6000000000000001	1.4	invalid	0.6331886510015465	53248	0	1	1	53248	1	53248	1	53248	1	0.7	53248	red	blue	0	0	ml	2.7.3	bip	sub-10_ses-02_task-ml_proj-bip_2020-12-15-10-26-21.769886
175	10	2	4	176	stable	1	200	176	sv	blue	red	red	blue	right	left	0.7	0.30000000000000004	2	10	1.4	3.0000000000000004	0	1	0.30000000000000004	0.7	10	2	3.0000000000000004	1.4	invalid	1.0997072549998848	51200	0	0	2	51200	1	53248	0	51200	1	0.7	53248	red	blue	0	10	ml	2.7.3	bip	sub-10_ses-02_task-ml_proj-bip_2020-12-15-10-26-21.769886
176	10	2	4	177	stable	1	200	177	sv	blue	red	red	blue	right	left	0.7	0.30000000000000004	2	10	1.4	3.0000000000000004	1	0	0.30000000000000004	0.7	10	2	3.0000000000000004	1.4	valid	0.5165418390006379	51200	0	0	2	51200	1	53248	0	51200	1	0.7	53248	red	blue	0	0	ml	2.7.3	bip	sub-10_ses-02_task-ml_proj-bip_2020-12-15-10-26-21.769886
177	10	2	4	178	stable	1	200	178	sv	red	blue	red	blue	left	right	0.7	0.30000000000000004	4	6	2.8	1.8000000000000005	1	0	0.7	0.30000000000000004	4	6	2.8	1.8000000000000005	valid	0.8831016170006478	51200	0	0	1	51200	1	51200	1	53248	0	0.7	51200	red	blue	0	4	ml	2.7.3	bip	sub-10_ses-02_task-ml_proj-bip_2020-12-15-10-26-21.769886
178	10	2	4	179	stable	1	200	179	sv	red	blue	red	blue	left	right	0.7	0.30000000000000004	10	2	7.0	0.6000000000000001	1	0	0.7	0.30000000000000004	10	2	7.0	0.6000000000000001	valid	0.949754301000212	51200	0	0	1	51200	1	51200	1	51200	1	0.7	51200	red	blue	1	10	ml	2.7.3	bip	sub-10_ses-02_task-ml_proj-bip_2020-12-15-10-26-21.769886
179	10	2	4	180	stable	1	200	180	sv	red	blue	red	blue	left	right	0.7	0.30000000000000004	6	2	4.199999999999998	0.6000000000000001	1	0	0.7	0.30000000000000004	6	2	4.199999999999998	0.6000000000000001	valid	0.5665318439987459	51200	0	0	1	51200	1	51200	1	51200	1	0.7	51200	red	blue	1	6	ml	2.7.3	bip	sub-10_ses-02_task-ml_proj-bip_2020-12-15-10-26-21.769886
180	10	2	4	181	stable	1	200	181	sv	blue	red	red	blue	right	left	0.7	0.30000000000000004	4	6	2.8	1.8000000000000005	0	1	0.30000000000000004	0.7	6	4	1.8000000000000005	2.8	invalid	1.199678386999949	51200	0	0	2	53248	0	53248	0	51200	1	0.7	53248	red	blue	0	6	ml	2.7.3	bip	sub-10_ses-02_task-ml_proj-bip_2020-12-15-10-26-21.769886
181	10	2	4	182	stable	1	200	182	sv	red	blue	red	blue	left	right	0.7	0.30000000000000004	4	2	2.8	0.6000000000000001	1	0	0.7	0.30000000000000004	4	2	2.8	0.6000000000000001	valid	0.6831648970000971	51200	0	0	1	51200	1	51200	1	51200	1	0.7	51200	red	blue	1	4	ml	2.7.3	bip	sub-10_ses-02_task-ml_proj-bip_2020-12-15-10-26-21.769886
182	10	2	4	183	stable	1	200	183	sv	blue	red	red	blue	right	left	0.7	0.30000000000000004	6	6	4.199999999999998	1.8000000000000005	1	0	0.30000000000000004	0.7	6	6	1.8000000000000005	4.199999999999998	valid	1.3163231510006879	53248	0	1	1	53248	1	53248	1	53248	1	0.7	53248	red	blue	0	6	ml	2.7.3	bip	sub-10_ses-02_task-ml_proj-bip_2020-12-15-10-26-21.769886
183	10	2	4	184	stable	1	200	184	sv	red	blue	red	blue	left	right	0.7	0.30000000000000004	6	2	4.199999999999998	0.6000000000000001	1	0	0.7	0.30000000000000004	6	2	4.199999999999998	0.6000000000000001	valid	0.9497541769997042	51200	0	0	1	51200	1	51200	1	51200	1	0.7	51200	red	blue	1	6	ml	2.7.3	bip	sub-10_ses-02_task-ml_proj-bip_2020-12-15-10-26-21.769886
184	10	2	4	185	stable	1	200	185	sv	red	blue	red	blue	left	right	0.7	0.30000000000000004	4	6	2.8	1.8000000000000005	1	0	0.7	0.30000000000000004	4	6	2.8	1.8000000000000005	valid	0.5165426780004054	51200	0	0	1	51200	1	51200	1	53248	0	0.7	51200	red	blue	0	4	ml	2.7.3	bip	sub-10_ses-02_task-ml_proj-bip_2020-12-15-10-26-21.769886
185	10	2	4	186	stable	1	200	186	sv	red	blue	red	blue	left	right	0.7	0.30000000000000004	6	4	4.199999999999998	1.2000000000000002	1	0	0.7	0.30000000000000004	6	4	4.199999999999998	1.2000000000000002	valid	0.533200838999619	51200	0	0	1	51200	1	51200	1	51200	1	0.7	51200	red	blue	1	6	ml	2.7.3	bip	sub-10_ses-02_task-ml_proj-bip_2020-12-15-10-26-21.769886
186	10	2	4	187	stable	1	200	187	sv	red	blue	red	blue	left	right	0.7	0.30000000000000004	4	6	2.8	1.8000000000000005	0	1	0.7	0.30000000000000004	4	6	2.8	1.8000000000000005	invalid	0.516543472000194	51200	0	0	1	51200	1	51200	1	53248	0	0.7	51200	red	blue	0	0	ml	2.7.3	bip	sub-10_ses-02_task-ml_proj-bip_2020-12-15-10-26-21.769886
187	10	2	4	188	stable	1	200	188	sv	blue	red	red	blue	right	left	0.7	0.30000000000000004	6	6	4.199999999999998	1.8000000000000005	1	0	0.30000000000000004	0.7	6	6	1.8000000000000005	4.199999999999998	valid	0.616527109999879	53248	0	1	1	53248	1	53248	1	53248	1	0.7	53248	red	blue	0	6	ml	2.7.3	bip	sub-10_ses-02_task-ml_proj-bip_2020-12-15-10-26-21.769886
188	10	2	4	189	stable	1	200	189	sv	blue	red	red	blue	right	left	0.7	0.30000000000000004	2	6	1.4	1.8000000000000005	0	1	0.30000000000000004	0.7	6	2	1.8000000000000005	1.4	invalid	0.6665113040016877	53248	0	1	1	51200	0	53248	1	51200	0	0.7	53248	red	blue	0	0	ml	2.7.3	bip	sub-10_ses-02_task-ml_proj-bip_2020-12-15-10-26-21.769886
189	10	2	4	190	stable	1	200	190	sv	red	blue	red	blue	left	right	0.7	0.30000000000000004	2	6	1.4	1.8000000000000005	1	0	0.7	0.30000000000000004	2	6	1.4	1.8000000000000005	valid	0.5665289299995493	51200	0	0	1	53248	0	51200	1	53248	0	0.7	51200	red	blue	0	2	ml	2.7.3	bip	sub-10_ses-02_task-ml_proj-bip_2020-12-15-10-26-21.769886
190	10	2	4	191	stable	1	200	191	sv	red	blue	red	blue	left	right	0.7	0.30000000000000004	6	4	4.199999999999998	1.2000000000000002	1	0	0.7	0.30000000000000004	6	4	4.199999999999998	1.2000000000000002	valid	0.5165395329986495	51200	0	0	1	51200	1	51200	1	51200	1	0.7	51200	red	blue	1	6	ml	2.7.3	bip	sub-10_ses-02_task-ml_proj-bip_2020-12-15-10-26-21.769886
191	10	2	4	192	stable	1	200	192	sv	red	blue	red	blue	left	right	0.7	0.30000000000000004	2	4	1.4	1.2000000000000002	1	0	0.7	0.30000000000000004	2	4	1.4	1.2000000000000002	valid	0.6165155939997929	51200	0	0	1	51200	1	51200	1	53248	0	0.7	51200	red	blue	0	2	ml	2.7.3	bip	sub-10_ses-02_task-ml_proj-bip_2020-12-15-10-26-21.769886
192	10	2	4	193	stable	1	200	193	sv	blue	red	red	blue	right	left	0.7	0.30000000000000004	4	6	2.8	1.8000000000000005	1	0	0.30000000000000004	0.7	6	4	1.8000000000000005	2.8	valid	0.4665691139998671	53248	0	1	1	53248	1	53248	1	51200	0	0.7	53248	red	blue	0	4	ml	2.7.3	bip	sub-10_ses-02_task-ml_proj-bip_2020-12-15-10-26-21.769886
193	10	2	4	194	stable	1	200	194	sv	red	blue	red	blue	left	right	0.7	0.30000000000000004	6	4	4.199999999999998	1.2000000000000002	1	0	0.7	0.30000000000000004	6	4	4.199999999999998	1.2000000000000002	valid	0.5331989810001687	51200	0	0	1	51200	1	51200	1	51200	1	0.7	51200	red	blue	1	6	ml	2.7.3	bip	sub-10_ses-02_task-ml_proj-bip_2020-12-15-10-26-21.769886
194	10	2	4	195	stable	1	200	195	sv	blue	red	red	blue	right	left	0.7	0.30000000000000004	6	4	4.199999999999998	1.2000000000000002	1	0	0.30000000000000004	0.7	4	6	1.2000000000000002	4.199999999999998	valid	0.4665611930013256	53248	0	1	1	53248	1	53248	1	53248	1	0.7	53248	red	blue	1	6	ml	2.7.3	bip	sub-10_ses-02_task-ml_proj-bip_2020-12-15-10-26-21.769886
195	10	2	4	196	stable	1	200	196	sv	blue	red	red	blue	right	left	0.7	0.30000000000000004	4	2	2.8	0.6000000000000001	1	0	0.30000000000000004	0.7	2	4	0.6000000000000001	2.8	valid	0.5665403399998468	53248	0	1	1	53248	1	53248	1	53248	1	0.7	53248	red	blue	1	4	ml	2.7.3	bip	sub-10_ses-02_task-ml_proj-bip_2020-12-15-10-26-21.769886
196	10	2	4	197	stable	1	200	197	sv	red	blue	red	blue	left	right	0.7	0.30000000000000004	2	2	1.4	0.6000000000000001	1	0	0.7	0.30000000000000004	2	2	1.4	0.6000000000000001	valid	0.5831914009995671	51200	0	0	1	51200	1	51200	1	53248	0	0.7	51200	red	blue	1	2	ml	2.7.3	bip	sub-10_ses-02_task-ml_proj-bip_2020-12-15-10-26-21.769886
197	10	2	4	198	stable	1	200	198	sv	red	blue	red	blue	left	right	0.7	0.30000000000000004	2	2	1.4	0.6000000000000001	0	1	0.7	0.30000000000000004	2	2	1.4	0.6000000000000001	invalid	0.5332047190004232	51200	0	0	1	51200	1	51200	1	53248	0	0.7	51200	red	blue	1	0	ml	2.7.3	bip	sub-10_ses-02_task-ml_proj-bip_2020-12-15-10-26-21.769886
198	10	2	4	199	stable	1	200	199	sv	red	blue	red	blue	left	right	0.7	0.30000000000000004	2	10	1.4	3.0000000000000004	0	1	0.7	0.30000000000000004	2	10	1.4	3.0000000000000004	invalid	1.8328488460010703	53248	0	1	2	53248	1	51200	0	53248	1	0.7	51200	red	blue	0	10	ml	2.7.3	bip	sub-10_ses-02_task-ml_proj-bip_2020-12-15-10-26-21.769886
199	10	2	4	200	stable	1	200	200	sv	red	blue	red	blue	left	right	0.7	0.30000000000000004	10	2	7.0	0.6000000000000001	0	1	0.7	0.30000000000000004	10	2	7.0	0.6000000000000001	invalid	0.6831705820004572	51200	0	0	1	51200	1	51200	1	51200	1	0.7	51200	red	blue	1	0	ml	2.7.3	bip	sub-10_ses-02_task-ml_proj-bip_2020-12-15-10-26-21.769886
200	10	2	5	201	volatile	2	20	1	sv	red	blue	red	blue	left	right	0.30000000000000004	0.7	4	2	1.2000000000000002	1.4	0	1	0.30000000000000004	0.7	4	2	1.2000000000000002	1.4	valid	0.6165200779996667	51200	0	0	1	53248	0	53248	0	51200	1	0.7	53248	blue	red	0	0	ml	2.7.3	bip	sub-10_ses-02_task-ml_proj-bip_2020-12-15-10-26-21.769886
201	10	2	5	202	volatile	2	20	2	sv	blue	red	red	blue	right	left	0.30000000000000004	0.7	6	6	1.8000000000000005	4.199999999999998	0	1	0.7	0.30000000000000004	6	6	4.199999999999998	1.8000000000000005	valid	0.5165470689989888	53248	0	1	1	51200	0	51200	0	53248	1	0.7	51200	blue	red	1	0	ml	2.7.3	bip	sub-10_ses-02_task-ml_proj-bip_2020-12-15-10-26-21.769886
202	10	2	5	203	volatile	2	20	3	sv	red	blue	red	blue	left	right	0.30000000000000004	0.7	4	6	1.2000000000000002	4.199999999999998	0	1	0.30000000000000004	0.7	4	6	1.2000000000000002	4.199999999999998	valid	0.41657436700006656	51200	0	0	1	53248	0	53248	0	53248	0	0.7	53248	blue	red	1	0	ml	2.7.3	bip	sub-10_ses-02_task-ml_proj-bip_2020-12-15-10-26-21.769886
203	10	2	5	204	volatile	2	20	4	sv	blue	red	red	blue	right	left	0.30000000000000004	0.7	2	2	0.6000000000000001	1.4	0	1	0.7	0.30000000000000004	2	2	1.4	0.6000000000000001	valid	0.4165728829993896	51200	0	0	2	51200	1	51200	1	53248	0	0.7	51200	blue	red	1	2	ml	2.7.3	bip	sub-10_ses-02_task-ml_proj-bip_2020-12-15-10-26-21.769886
204	10	2	5	205	volatile	2	20	5	sv	blue	red	red	blue	right	left	0.30000000000000004	0.7	4	6	1.2000000000000002	4.199999999999998	1	0	0.7	0.30000000000000004	6	4	4.199999999999998	1.2000000000000002	invalid	0.4832257150010264	51200	0	0	2	51200	1	51200	1	51200	1	0.7	51200	blue	red	1	0	ml	2.7.3	bip	sub-10_ses-02_task-ml_proj-bip_2020-12-15-10-26-21.769886
205	10	2	5	206	volatile	2	20	6	sv	blue	red	red	blue	right	left	0.30000000000000004	0.7	2	10	0.6000000000000001	7.0	0	1	0.7	0.30000000000000004	10	2	7.0	0.6000000000000001	valid	0.4665608409995912	51200	0	0	2	51200	1	51200	1	51200	1	0.7	51200	blue	red	1	10	ml	2.7.3	bip	sub-10_ses-02_task-ml_proj-bip_2020-12-15-10-26-21.769886
206	10	2	5	207	volatile	2	20	7	sv	red	blue	red	blue	left	right	0.30000000000000004	0.7	4	6	1.2000000000000002	4.199999999999998	1	0	0.30000000000000004	0.7	4	6	1.2000000000000002	4.199999999999998	invalid	0.4665704469989578	53248	0	1	2	53248	1	53248	1	53248	1	0.7	53248	blue	red	1	0	ml	2.7.3	bip	sub-10_ses-02_task-ml_proj-bip_2020-12-15-10-26-21.769886
207	10	2	5	208	volatile	2	20	8	sv	blue	red	red	blue	right	left	0.30000000000000004	0.7	6	2	1.8000000000000005	1.4	0	1	0.7	0.30000000000000004	2	6	1.4	1.8000000000000005	valid	0.7164961399994354	53248	0	1	1	53248	1	51200	0	53248	1	0.7	51200	blue	red	0	0	ml	2.7.3	bip	sub-10_ses-02_task-ml_proj-bip_2020-12-15-10-26-21.769886
208	10	2	5	209	volatile	2	20	9	sv	red	blue	red	blue	left	right	0.30000000000000004	0.7	10	2	3.0000000000000004	1.4	0	1	0.30000000000000004	0.7	10	2	3.0000000000000004	1.4	valid	0.433233977000782	51200	0	0	1	51200	1	53248	0	51200	1	0.7	53248	blue	red	0	0	ml	2.7.3	bip	sub-10_ses-02_task-ml_proj-bip_2020-12-15-10-26-21.769886
209	10	2	5	210	volatile	2	20	10	sv	red	blue	red	blue	left	right	0.30000000000000004	0.7	2	2	0.6000000000000001	1.4	0	1	0.30000000000000004	0.7	2	2	0.6000000000000001	1.4	valid	0.5998582149986761	53248	0	1	2	53248	1	53248	1	53248	1	0.7	53248	blue	red	0	2	ml	2.7.3	bip	sub-10_ses-02_task-ml_proj-bip_2020-12-15-10-26-21.769886
210	10	2	5	211	volatile	2	20	11	sv	blue	red	red	blue	right	left	0.30000000000000004	0.7	6	2	1.8000000000000005	1.4	0	1	0.7	0.30000000000000004	2	6	1.4	1.8000000000000005	valid	0.4665430519999063	51200	0	0	2	53248	0	51200	1	53248	0	0.7	51200	blue	red	0	2	ml	2.7.3	bip	sub-10_ses-02_task-ml_proj-bip_2020-12-15-10-26-21.769886
211	10	2	5	212	volatile	2	20	12	sv	blue	red	red	blue	right	left	0.30000000000000004	0.7	6	6	1.8000000000000005	4.199999999999998	1	0	0.7	0.30000000000000004	6	6	4.199999999999998	1.8000000000000005	invalid	0.6998258040002838	51200	0	0	2	51200	1	51200	1	53248	0	0.7	51200	blue	red	1	0	ml	2.7.3	bip	sub-10_ses-02_task-ml_proj-bip_2020-12-15-10-26-21.769886
212	10	2	5	213	volatile	2	20	13	sv	blue	red	red	blue	right	left	0.30000000000000004	0.7	2	4	0.6000000000000001	2.8	0	1	0.7	0.30000000000000004	4	2	2.8	0.6000000000000001	valid	0.3499244169997837	51200	0	0	2	51200	1	51200	1	51200	1	0.7	51200	blue	red	1	4	ml	2.7.3	bip	sub-10_ses-02_task-ml_proj-bip_2020-12-15-10-26-21.769886
213	10	2	5	214	volatile	2	20	14	sv	red	blue	red	blue	left	right	0.30000000000000004	0.7	2	10	0.6000000000000001	7.0	0	1	0.30000000000000004	0.7	2	10	0.6000000000000001	7.0	valid	0.5998622389997763	53248	0	1	2	53248	1	53248	1	53248	1	0.7	53248	blue	red	1	10	ml	2.7.3	bip	sub-10_ses-02_task-ml_proj-bip_2020-12-15-10-26-21.769886
214	10	2	5	215	volatile	2	20	15	sv	blue	red	red	blue	right	left	0.30000000000000004	0.7	10	2	3.0000000000000004	1.4	1	0	0.7	0.30000000000000004	2	10	1.4	3.0000000000000004	invalid	0.39990866299922345	51200	0	0	2	53248	0	51200	1	53248	0	0.7	51200	blue	red	0	0	ml	2.7.3	bip	sub-10_ses-02_task-ml_proj-bip_2020-12-15-10-26-21.769886
215	10	2	5	216	volatile	2	20	16	sv	blue	red	red	blue	right	left	0.30000000000000004	0.7	2	6	0.6000000000000001	4.199999999999998	0	1	0.7	0.30000000000000004	6	2	4.199999999999998	0.6000000000000001	valid	0.3499276740003552	51200	0	0	2	51200	1	51200	1	51200	1	0.7	51200	blue	red	1	6	ml	2.7.3	bip	sub-10_ses-02_task-ml_proj-bip_2020-12-15-10-26-21.769886
216	10	2	5	217	volatile	2	20	17	sv	red	blue	red	blue	left	right	0.30000000000000004	0.7	2	4	0.6000000000000001	2.8	1	0	0.30000000000000004	0.7	2	4	0.6000000000000001	2.8	invalid	0.5165564609997091	53248	0	1	2	53248	1	53248	1	53248	1	0.7	53248	blue	red	1	0	ml	2.7.3	bip	sub-10_ses-02_task-ml_proj-bip_2020-12-15-10-26-21.769886
217	10	2	5	218	volatile	2	20	18	sv	red	blue	red	blue	left	right	0.30000000000000004	0.7	2	4	0.6000000000000001	2.8	0	1	0.30000000000000004	0.7	2	4	0.6000000000000001	2.8	valid	0.4499069410012453	53248	0	1	2	53248	1	53248	1	53248	1	0.7	53248	blue	red	1	4	ml	2.7.3	bip	sub-10_ses-02_task-ml_proj-bip_2020-12-15-10-26-21.769886
218	10	2	5	219	volatile	2	20	19	sv	red	blue	red	blue	left	right	0.30000000000000004	0.7	6	4	1.8000000000000005	2.8	0	1	0.30000000000000004	0.7	6	4	1.8000000000000005	2.8	valid	0.4832309180001175	53248	0	1	2	53248	1	53248	1	51200	0	0.7	53248	blue	red	0	4	ml	2.7.3	bip	sub-10_ses-02_task-ml_proj-bip_2020-12-15-10-26-21.769886
219	10	2	5	220	volatile	2	20	20	sv	red	blue	red	blue	left	right	0.30000000000000004	0.7	6	2	1.8000000000000005	1.4	1	0	0.30000000000000004	0.7	6	2	1.8000000000000005	1.4	invalid	0.8997736760011321	53248	0	1	2	51200	0	53248	1	51200	0	0.7	53248	blue	red	0	0	ml	2.7.3	bip	sub-10_ses-02_task-ml_proj-bip_2020-12-15-10-26-21.769886
220	10	2	5	221	volatile	3	40	1	sv	blue	red	red	blue	right	left	0.7	0.30000000000000004	6	4	4.199999999999998	1.2000000000000002	1	0	0.30000000000000004	0.7	4	6	1.2000000000000002	4.199999999999998	valid	0.5665283340003953	51200	0	0	2	53248	0	53248	0	53248	0	0.7	53248	red	blue	1	0	ml	2.7.3	bip	sub-10_ses-02_task-ml_proj-bip_2020-12-15-10-26-21.769886
221	10	2	5	222	volatile	3	40	2	sv	red	blue	red	blue	left	right	0.7	0.30000000000000004	4	6	2.8	1.8000000000000005	1	0	0.7	0.30000000000000004	4	6	2.8	1.8000000000000005	valid	0.8164672359998804	53248	0	1	2	51200	0	51200	0	53248	1	0.7	51200	red	blue	0	0	ml	2.7.3	bip	sub-10_ses-02_task-ml_proj-bip_2020-12-15-10-26-21.769886
222	10	2	5	223	volatile	3	40	3	sv	red	blue	red	blue	left	right	0.7	0.30000000000000004	4	2	2.8	0.6000000000000001	0	1	0.7	0.30000000000000004	4	2	2.8	0.6000000000000001	invalid	0.38324638700032665	51200	0	0	1	51200	1	51200	1	51200	1	0.7	51200	red	blue	1	0	ml	2.7.3	bip	sub-10_ses-02_task-ml_proj-bip_2020-12-15-10-26-21.769886
223	10	2	5	224	volatile	3	40	4	sv	blue	red	red	blue	right	left	0.7	0.30000000000000004	4	6	2.8	1.8000000000000005	1	0	0.30000000000000004	0.7	6	4	1.8000000000000005	2.8	valid	0.9497505529998308	51200	0	0	2	53248	0	53248	0	51200	1	0.7	53248	red	blue	0	0	ml	2.7.3	bip	sub-10_ses-02_task-ml_proj-bip_2020-12-15-10-26-21.769886
224	10	2	5	225	volatile	3	40	5	sv	blue	red	red	blue	right	left	0.7	0.30000000000000004	10	2	7.0	0.6000000000000001	0	1	0.30000000000000004	0.7	2	10	0.6000000000000001	7.0	invalid	0.5498857769998722	53248	0	1	1	53248	1	53248	1	53248	1	0.7	53248	red	blue	1	0	ml	2.7.3	bip	sub-10_ses-02_task-ml_proj-bip_2020-12-15-10-26-21.769886
225	10	2	5	226	volatile	3	40	6	sv	red	blue	red	blue	left	right	0.7	0.30000000000000004	6	4	4.199999999999998	1.2000000000000002	1	0	0.7	0.30000000000000004	6	4	4.199999999999998	1.2000000000000002	valid	0.4665658939993591	51200	0	0	1	51200	1	51200	1	51200	1	0.7	51200	red	blue	1	6	ml	2.7.3	bip	sub-10_ses-02_task-ml_proj-bip_2020-12-15-10-26-21.769886
226	10	2	5	227	volatile	3	40	7	sv	blue	red	red	blue	right	left	0.7	0.30000000000000004	6	6	4.199999999999998	1.8000000000000005	1	0	0.30000000000000004	0.7	6	6	1.8000000000000005	4.199999999999998	valid	0.4832312219987216	53248	0	1	1	53248	1	53248	1	53248	1	0.7	53248	red	blue	0	6	ml	2.7.3	bip	sub-10_ses-02_task-ml_proj-bip_2020-12-15-10-26-21.769886
227	10	2	5	228	volatile	3	40	8	sv	red	blue	red	blue	left	right	0.7	0.30000000000000004	6	2	4.199999999999998	0.6000000000000001	0	1	0.7	0.30000000000000004	6	2	4.199999999999998	0.6000000000000001	invalid	0.39990571800080943	51200	0	0	1	51200	1	51200	1	51200	1	0.7	51200	red	blue	1	0	ml	2.7.3	bip	sub-10_ses-02_task-ml_proj-bip_2020-12-15-10-26-21.769886
228	10	2	5	229	volatile	3	40	9	sv	blue	red	red	blue	right	left	0.7	0.30000000000000004	2	6	1.4	1.8000000000000005	0	1	0.30000000000000004	0.7	6	2	1.8000000000000005	1.4	invalid	0.7164972859991394	53248	0	1	1	51200	0	53248	1	51200	0	0.7	53248	red	blue	0	0	ml	2.7.3	bip	sub-10_ses-02_task-ml_proj-bip_2020-12-15-10-26-21.769886
229	10	2	5	230	volatile	3	40	10	sv	blue	red	red	blue	right	left	0.7	0.30000000000000004	2	6	1.4	1.8000000000000005	1	0	0.30000000000000004	0.7	6	2	1.8000000000000005	1.4	valid	0.4332444280007621	53248	0	1	1	51200	0	53248	1	51200	0	0.7	53248	red	blue	0	2	ml	2.7.3	bip	sub-10_ses-02_task-ml_proj-bip_2020-12-15-10-26-21.769886
230	10	2	5	231	volatile	3	40	11	sv	blue	red	red	blue	right	left	0.7	0.30000000000000004	2	2	1.4	0.6000000000000001	1	0	0.30000000000000004	0.7	2	2	0.6000000000000001	1.4	valid	0.7998232370009646	53248	0	1	1	53248	1	53248	1	53248	1	0.7	53248	red	blue	0	2	ml	2.7.3	bip	sub-10_ses-02_task-ml_proj-bip_2020-12-15-10-26-21.769886
231	10	2	5	232	volatile	3	40	12	sv	red	blue	red	blue	left	right	0.7	0.30000000000000004	6	6	4.199999999999998	1.8000000000000005	1	0	0.7	0.30000000000000004	6	6	4.199999999999998	1.8000000000000005	valid	0.6498519650012895	51200	0	0	1	51200	1	51200	1	53248	0	0.7	51200	red	blue	1	6	ml	2.7.3	bip	sub-10_ses-02_task-ml_proj-bip_2020-12-15-10-26-21.769886
232	10	2	5	233	volatile	3	40	13	sv	red	blue	red	blue	left	right	0.7	0.30000000000000004	2	2	1.4	0.6000000000000001	1	0	0.7	0.30000000000000004	2	2	1.4	0.6000000000000001	valid	0.5831932019991655	51200	0	0	1	51200	1	51200	1	53248	0	0.7	51200	red	blue	1	2	ml	2.7.3	bip	sub-10_ses-02_task-ml_proj-bip_2020-12-15-10-26-21.769886
233	10	2	5	234	volatile	3	40	14	sv	red	blue	red	blue	left	right	0.7	0.30000000000000004	2	4	1.4	1.2000000000000002	1	0	0.7	0.30000000000000004	2	4	1.4	1.2000000000000002	valid	0.6331746030009526	51200	0	0	1	51200	1	51200	1	53248	0	0.7	51200	red	blue	0	2	ml	2.7.3	bip	sub-10_ses-02_task-ml_proj-bip_2020-12-15-10-26-21.769886
234	10	2	5	235	volatile	3	40	15	sv	blue	red	red	blue	right	left	0.7	0.30000000000000004	2	2	1.4	0.6000000000000001	1	0	0.30000000000000004	0.7	2	2	0.6000000000000001	1.4	valid	0.6331931090007856	53248	0	1	1	53248	1	53248	1	53248	1	0.7	53248	red	blue	0	2	ml	2.7.3	bip	sub-10_ses-02_task-ml_proj-bip_2020-12-15-10-26-21.769886
235	10	2	5	236	volatile	3	40	16	sv	blue	red	red	blue	right	left	0.7	0.30000000000000004	6	2	4.199999999999998	0.6000000000000001	1	0	0.30000000000000004	0.7	2	6	0.6000000000000001	4.199999999999998	valid	0.549886795999555	53248	0	1	1	53248	1	53248	1	53248	1	0.7	53248	red	blue	1	6	ml	2.7.3	bip	sub-10_ses-02_task-ml_proj-bip_2020-12-15-10-26-21.769886
236	10	2	5	237	volatile	3	40	17	sv	blue	red	red	blue	right	left	0.7	0.30000000000000004	4	2	2.8	0.6000000000000001	1	0	0.30000000000000004	0.7	2	4	0.6000000000000001	2.8	valid	0.8831134840002051	53248	0	1	1	53248	1	53248	1	53248	1	0.7	53248	red	blue	1	4	ml	2.7.3	bip	sub-10_ses-02_task-ml_proj-bip_2020-12-15-10-26-21.769886
237	10	2	5	238	volatile	3	40	18	sv	red	blue	red	blue	left	right	0.7	0.30000000000000004	10	2	7.0	0.6000000000000001	1	0	0.7	0.30000000000000004	10	2	7.0	0.6000000000000001	valid	0.9164204649987368	51200	0	0	1	51200	1	51200	1	51200	1	0.7	51200	red	blue	1	10	ml	2.7.3	bip	sub-10_ses-02_task-ml_proj-bip_2020-12-15-10-26-21.769886
238	10	2	5	239	volatile	3	40	19	sv	red	blue	red	blue	left	right	0.7	0.30000000000000004	6	6	4.199999999999998	1.8000000000000005	1	0	0.7	0.30000000000000004	6	6	4.199999999999998	1.8000000000000005	valid	0.5665283700000145	51200	0	0	1	51200	1	51200	1	53248	0	0.7	51200	red	blue	1	6	ml	2.7.3	bip	sub-10_ses-02_task-ml_proj-bip_2020-12-15-10-26-21.769886
239	10	2	5	240	volatile	3	40	20	sv	blue	red	red	blue	right	left	0.7	0.30000000000000004	2	10	1.4	3.0000000000000004	1	0	0.30000000000000004	0.7	10	2	3.0000000000000004	1.4	valid	0.4665723779999098	53248	0	1	1	51200	0	53248	1	51200	0	0.7	53248	red	blue	0	2	ml	2.7.3	bip	sub-10_ses-02_task-ml_proj-bip_2020-12-15-10-26-21.769886
240	10	2	5	241	volatile	3	40	21	sv	red	blue	red	blue	left	right	0.7	0.30000000000000004	2	10	1.4	3.0000000000000004	1	0	0.7	0.30000000000000004	2	10	1.4	3.0000000000000004	valid	0.5165423590005958	51200	0	0	1	53248	0	51200	1	53248	0	0.7	51200	red	blue	0	2	ml	2.7.3	bip	sub-10_ses-02_task-ml_proj-bip_2020-12-15-10-26-21.769886
241	10	2	5	242	volatile	3	40	22	sv	blue	red	red	blue	right	left	0.7	0.30000000000000004	4	6	2.8	1.8000000000000005	1	0	0.30000000000000004	0.7	6	4	1.8000000000000005	2.8	valid	0.7164940530001331	53248	0	1	1	53248	1	53248	1	51200	0	0.7	53248	red	blue	0	4	ml	2.7.3	bip	sub-10_ses-02_task-ml_proj-bip_2020-12-15-10-26-21.769886
242	10	2	5	243	volatile	3	40	23	sv	red	blue	red	blue	left	right	0.7	0.30000000000000004	6	2	4.199999999999998	0.6000000000000001	1	0	0.7	0.30000000000000004	6	2	4.199999999999998	0.6000000000000001	valid	0.6331775179987744	51200	0	0	1	51200	1	51200	1	51200	1	0.7	51200	red	blue	1	6	ml	2.7.3	bip	sub-10_ses-02_task-ml_proj-bip_2020-12-15-10-26-21.769886
243	10	2	5	244	volatile	3	40	24	sv	blue	red	red	blue	right	left	0.7	0.30000000000000004	4	2	2.8	0.6000000000000001	0	1	0.30000000000000004	0.7	2	4	0.6000000000000001	2.8	invalid	0.8164596400001756	53248	0	1	1	53248	1	53248	1	53248	1	0.7	53248	red	blue	1	0	ml	2.7.3	bip	sub-10_ses-02_task-ml_proj-bip_2020-12-15-10-26-21.769886
244	10	2	5	245	volatile	3	40	25	sv	red	blue	red	blue	left	right	0.7	0.30000000000000004	6	6	4.199999999999998	1.8000000000000005	0	1	0.7	0.30000000000000004	6	6	4.199999999999998	1.8000000000000005	invalid	0.483218349998424	51200	0	0	1	51200	1	51200	1	53248	0	0.7	51200	red	blue	1	0	ml	2.7.3	bip	sub-10_ses-02_task-ml_proj-bip_2020-12-15-10-26-21.769886
245	10	2	5	246	volatile	3	40	26	sv	blue	red	red	blue	right	left	0.7	0.30000000000000004	2	10	1.4	3.0000000000000004	1	0	0.30000000000000004	0.7	10	2	3.0000000000000004	1.4	valid	0.4332431570001063	53248	0	1	1	51200	0	53248	1	51200	0	0.7	53248	red	blue	0	2	ml	2.7.3	bip	sub-10_ses-02_task-ml_proj-bip_2020-12-15-10-26-21.769886
246	10	2	5	247	volatile	3	40	27	sv	red	blue	red	blue	left	right	0.7	0.30000000000000004	4	2	2.8	0.6000000000000001	0	1	0.7	0.30000000000000004	4	2	2.8	0.6000000000000001	invalid	0.4665646280009241	51200	0	0	1	51200	1	51200	1	51200	1	0.7	51200	red	blue	1	0	ml	2.7.3	bip	sub-10_ses-02_task-ml_proj-bip_2020-12-15-10-26-21.769886
247	10	2	5	248	volatile	3	40	28	sv	red	blue	red	blue	left	right	0.7	0.30000000000000004	6	4	4.199999999999998	1.2000000000000002	1	0	0.7	0.30000000000000004	6	4	4.199999999999998	1.2000000000000002	valid	0.5165426829989883	51200	0	0	1	51200	1	51200	1	51200	1	0.7	51200	red	blue	1	6	ml	2.7.3	bip	sub-10_ses-02_task-ml_proj-bip_2020-12-15-10-26-21.769886
248	10	2	5	249	volatile	3	40	29	sv	red	blue	red	blue	left	right	0.7	0.30000000000000004	4	2	2.8	0.6000000000000001	1	0	0.7	0.30000000000000004	4	2	2.8	0.6000000000000001	valid	0.6331769550015451	51200	0	0	1	51200	1	51200	1	51200	1	0.7	51200	red	blue	1	4	ml	2.7.3	bip	sub-10_ses-02_task-ml_proj-bip_2020-12-15-10-26-21.769886
249	10	2	5	250	volatile	3	40	30	sv	red	blue	red	blue	left	right	0.7	0.30000000000000004	2	6	1.4	1.8000000000000005	1	0	0.7	0.30000000000000004	2	6	1.4	1.8000000000000005	valid	0.4165714820010179	51200	0	0	1	53248	0	51200	1	53248	0	0.7	51200	red	blue	0	2	ml	2.7.3	bip	sub-10_ses-02_task-ml_proj-bip_2020-12-15-10-26-21.769886
250	10	2	6	251	volatile	3	40	31	sv	red	blue	red	blue	left	right	0.7	0.30000000000000004	4	6	2.8	1.8000000000000005	0	1	0.7	0.30000000000000004	4	6	2.8	1.8000000000000005	invalid	1.1330539529990349	53248	0	1	2	51200	0	51200	0	53248	1	0.7	51200	red	blue	0	6	ml	2.7.3	bip	sub-10_ses-02_task-ml_proj-bip_2020-12-15-10-26-21.769886
251	10	2	6	252	volatile	3	40	32	sv	red	blue	red	blue	left	right	0.7	0.30000000000000004	4	6	2.8	1.8000000000000005	1	0	0.7	0.30000000000000004	4	6	2.8	1.8000000000000005	valid	0.38326102199971507	53248	0	1	2	51200	0	51200	0	53248	1	0.7	51200	red	blue	0	0	ml	2.7.3	bip	sub-10_ses-02_task-ml_proj-bip_2020-12-15-10-26-21.769886
252	10	2	6	253	volatile	3	40	33	sv	red	blue	red	blue	left	right	0.7	0.30000000000000004	10	2	7.0	0.6000000000000001	0	1	0.7	0.30000000000000004	10	2	7.0	0.6000000000000001	invalid	0.3832582059985725	53248	0	1	2	51200	0	51200	0	51200	0	0.7	51200	red	blue	1	2	ml	2.7.3	bip	sub-10_ses-02_task-ml_proj-bip_2020-12-15-10-26-21.769886
253	10	2	6	254	volatile	3	40	34	sv	blue	red	red	blue	right	left	0.7	0.30000000000000004	2	4	1.4	1.2000000000000002	1	0	0.30000000000000004	0.7	4	2	1.2000000000000002	1.4	valid	0.6331824640001287	51200	0	0	2	53248	0	53248	0	51200	1	0.7	53248	red	blue	0	0	ml	2.7.3	bip	sub-10_ses-02_task-ml_proj-bip_2020-12-15-10-26-21.769886
254	10	2	6	255	volatile	3	40	35	sv	blue	red	red	blue	right	left	0.7	0.30000000000000004	2	2	1.4	0.6000000000000001	0	1	0.30000000000000004	0.7	2	2	0.6000000000000001	1.4	invalid	1.033059258999856	51200	0	0	2	53248	0	53248	0	53248	0	0.7	53248	red	blue	0	2	ml	2.7.3	bip	sub-10_ses-02_task-ml_proj-bip_2020-12-15-10-26-21.769886
255	10	2	6	256	volatile	3	40	36	sv	blue	red	red	blue	right	left	0.7	0.30000000000000004	10	2	7.0	0.6000000000000001	1	0	0.30000000000000004	0.7	2	10	0.6000000000000001	7.0	valid	0.4998836680006207	51200	0	0	2	53248	0	53248	0	53248	0	0.7	53248	red	blue	1	0	ml	2.7.3	bip	sub-10_ses-02_task-ml_proj-bip_2020-12-15-10-26-21.769886
256	10	2	6	257	volatile	3	40	37	sv	blue	red	red	blue	right	left	0.7	0.30000000000000004	6	2	4.199999999999998	0.6000000000000001	0	1	0.30000000000000004	0.7	2	6	0.6000000000000001	4.199999999999998	invalid	0.483250653000141	51200	0	0	2	53248	0	53248	0	53248	0	0.7	53248	red	blue	1	2	ml	2.7.3	bip	sub-10_ses-02_task-ml_proj-bip_2020-12-15-10-26-21.769886
257	10	2	6	258	volatile	3	40	38	sv	blue	red	red	blue	right	left	0.7	0.30000000000000004	10	2	7.0	0.6000000000000001	1	0	0.30000000000000004	0.7	2	10	0.6000000000000001	7.0	valid	1.0330710409998574	53248	0	1	1	53248	1	53248	1	53248	1	0.7	53248	red	blue	1	10	ml	2.7.3	bip	sub-10_ses-02_task-ml_proj-bip_2020-12-15-10-26-21.769886
258	10	2	6	259	volatile	3	40	39	sv	blue	red	red	blue	right	left	0.7	0.30000000000000004	4	2	2.8	0.6000000000000001	0	1	0.30000000000000004	0.7	2	4	0.6000000000000001	2.8	invalid	0.39991093600110617	51200	0	0	2	53248	0	53248	0	53248	0	0.7	53248	red	blue	1	2	ml	2.7.3	bip	sub-10_ses-02_task-ml_proj-bip_2020-12-15-10-26-21.769886
259	10	2	6	260	volatile	3	40	40	sv	red	blue	red	blue	left	right	0.7	0.30000000000000004	2	6	1.4	1.8000000000000005	1	0	0.7	0.30000000000000004	2	6	1.4	1.8000000000000005	valid	0.44990762999987055	53248	0	1	2	53248	1	51200	0	53248	1	0.7	51200	red	blue	0	0	ml	2.7.3	bip	sub-10_ses-02_task-ml_proj-bip_2020-12-15-10-26-21.769886
260	10	2	6	261	volatile	4	20	1	sv	red	blue	red	blue	left	right	0.30000000000000004	0.7	2	10	0.6000000000000001	7.0	0	1	0.30000000000000004	0.7	2	10	0.6000000000000001	7.0	valid	0.8331190480002988	51200	0	0	1	53248	0	53248	0	53248	0	0.7	53248	blue	red	1	0	ml	2.7.3	bip	sub-10_ses-02_task-ml_proj-bip_2020-12-15-10-26-21.769886
261	10	2	6	262	volatile	4	20	2	sv	red	blue	red	blue	left	right	0.30000000000000004	0.7	6	6	1.8000000000000005	4.199999999999998	0	1	0.30000000000000004	0.7	6	6	1.8000000000000005	4.199999999999998	valid	0.3499369189994468	53248	0	1	2	53248	1	53248	1	53248	1	0.7	53248	blue	red	0	6	ml	2.7.3	bip	sub-10_ses-02_task-ml_proj-bip_2020-12-15-10-26-21.769886
262	10	2	6	263	volatile	4	20	3	sv	red	blue	red	blue	left	right	0.30000000000000004	0.7	6	6	1.8000000000000005	4.199999999999998	1	0	0.30000000000000004	0.7	6	6	1.8000000000000005	4.199999999999998	invalid	0.4332379110001057	51200	0	0	1	53248	0	53248	0	53248	0	0.7	53248	blue	red	0	6	ml	2.7.3	bip	sub-10_ses-02_task-ml_proj-bip_2020-12-15-10-26-21.769886
263	10	2	6	264	volatile	4	20	4	sv	blue	red	red	blue	right	left	0.30000000000000004	0.7	2	4	0.6000000000000001	2.8	1	0	0.7	0.30000000000000004	4	2	2.8	0.6000000000000001	invalid	1.1996806489987648	51200	0	0	2	51200	1	51200	1	51200	1	0.7	51200	blue	red	1	0	ml	2.7.3	bip	sub-10_ses-02_task-ml_proj-bip_2020-12-15-10-26-21.769886
264	10	2	6	265	volatile	4	20	5	sv	red	blue	red	blue	left	right	0.30000000000000004	0.7	2	4	0.6000000000000001	2.8	0	1	0.30000000000000004	0.7	2	4	0.6000000000000001	2.8	valid	1.0497353810005734	53248	0	1	2	53248	1	53248	1	53248	1	0.7	53248	blue	red	1	4	ml	2.7.3	bip	sub-10_ses-02_task-ml_proj-bip_2020-12-15-10-26-21.769886
265	10	2	6	266	volatile	4	20	6	sv	blue	red	red	blue	right	left	0.30000000000000004	0.7	4	6	1.2000000000000002	4.199999999999998	0	1	0.7	0.30000000000000004	6	4	4.199999999999998	1.2000000000000002	valid	0.9497645259998536	53248	0	1	1	51200	0	51200	0	51200	0	0.7	51200	blue	red	1	0	ml	2.7.3	bip	sub-10_ses-02_task-ml_proj-bip_2020-12-15-10-26-21.769886
266	10	2	6	267	volatile	4	20	7	sv	blue	red	red	blue	right	left	0.30000000000000004	0.7	4	6	1.2000000000000002	4.199999999999998	0	1	0.7	0.30000000000000004	6	4	4.199999999999998	1.2000000000000002	valid	0.4499059549998492	53248	0	1	1	51200	0	51200	0	51200	0	0.7	51200	blue	red	1	0	ml	2.7.3	bip	sub-10_ses-02_task-ml_proj-bip_2020-12-15-10-26-21.769886
267	10	2	6	268	volatile	4	20	8	sv	blue	red	red	blue	right	left	0.30000000000000004	0.7	6	4	1.8000000000000005	2.8	0	1	0.7	0.30000000000000004	4	6	2.8	1.8000000000000005	valid	0.4665675390006072	53248	0	1	1	51200	0	51200	0	53248	1	0.7	51200	blue	red	0	0	ml	2.7.3	bip	sub-10_ses-02_task-ml_proj-bip_2020-12-15-10-26-21.769886
268	10	2	6	269	volatile	4	20	9	sv	red	blue	red	blue	left	right	0.30000000000000004	0.7	10	2	3.0000000000000004	1.4	0	1	0.30000000000000004	0.7	10	2	3.0000000000000004	1.4	valid	0.5498784289993637	53248	0	1	2	51200	0	53248	1	51200	0	0.7	53248	blue	red	0	2	ml	2.7.3	bip	sub-10_ses-02_task-ml_proj-bip_2020-12-15-10-26-21.769886
269	10	2	6	270	volatile	4	20	10	sv	blue	red	red	blue	right	left	0.30000000000000004	0.7	10	2	3.0000000000000004	1.4	0	1	0.7	0.30000000000000004	2	10	1.4	3.0000000000000004	valid	0.5498675509988971	51200	0	0	2	53248	0	51200	1	53248	0	0.7	51200	blue	red	0	2	ml	2.7.3	bip	sub-10_ses-02_task-ml_proj-bip_2020-12-15-10-26-21.769886
270	10	2	6	271	volatile	4	20	11	sv	red	blue	red	blue	left	right	0.30000000000000004	0.7	4	6	1.2000000000000002	4.199999999999998	0	1	0.30000000000000004	0.7	4	6	1.2000000000000002	4.199999999999998	valid	0.8331286640004691	53248	0	1	2	53248	1	53248	1	53248	1	0.7	53248	blue	red	1	6	ml	2.7.3	bip	sub-10_ses-02_task-ml_proj-bip_2020-12-15-10-26-21.769886
271	10	2	6	272	volatile	4	20	12	sv	red	blue	red	blue	left	right	0.30000000000000004	0.7	2	6	0.6000000000000001	4.199999999999998	0	1	0.30000000000000004	0.7	2	6	0.6000000000000001	4.199999999999998	valid	0.5165533459985454	53248	0	1	2	53248	1	53248	1	53248	1	0.7	53248	blue	red	1	6	ml	2.7.3	bip	sub-10_ses-02_task-ml_proj-bip_2020-12-15-10-26-21.769886
272	10	2	6	273	volatile	4	20	13	sv	red	blue	red	blue	left	right	0.30000000000000004	0.7	2	2	0.6000000000000001	1.4	0	1	0.30000000000000004	0.7	2	2	0.6000000000000001	1.4	valid	0.5165660140010004	53248	0	1	2	53248	1	53248	1	53248	1	0.7	53248	blue	red	0	2	ml	2.7.3	bip	sub-10_ses-02_task-ml_proj-bip_2020-12-15-10-26-21.769886
273	10	2	6	274	volatile	4	20	14	sv	blue	red	red	blue	right	left	0.30000000000000004	0.7	2	2	0.6000000000000001	1.4	1	0	0.7	0.30000000000000004	2	2	1.4	0.6000000000000001	invalid	0.4998831929988228	51200	0	0	2	51200	1	51200	1	53248	0	0.7	51200	blue	red	1	0	ml	2.7.3	bip	sub-10_ses-02_task-ml_proj-bip_2020-12-15-10-26-21.769886
274	10	2	6	275	volatile	4	20	15	sv	blue	red	red	blue	right	left	0.30000000000000004	0.7	4	2	1.2000000000000002	1.4	1	0	0.7	0.30000000000000004	2	4	1.4	1.2000000000000002	invalid	1.1330308099986723	51200	0	0	2	51200	1	51200	1	53248	0	0.7	51200	blue	red	0	0	ml	2.7.3	bip	sub-10_ses-02_task-ml_proj-bip_2020-12-15-10-26-21.769886
275	10	2	6	276	volatile	4	20	16	sv	red	blue	red	blue	left	right	0.30000000000000004	0.7	4	2	1.2000000000000002	1.4	1	0	0.30000000000000004	0.7	4	2	1.2000000000000002	1.4	invalid	0.4665716469990002	53248	0	1	2	53248	1	53248	1	51200	0	0.7	53248	blue	red	0	0	ml	2.7.3	bip	sub-10_ses-02_task-ml_proj-bip_2020-12-15-10-26-21.769886
276	10	2	6	277	volatile	4	20	17	sv	blue	red	red	blue	right	left	0.30000000000000004	0.7	6	2	1.8000000000000005	1.4	0	1	0.7	0.30000000000000004	2	6	1.4	1.8000000000000005	valid	0.41658320300120977	53248	0	1	1	53248	1	51200	0	53248	1	0.7	51200	blue	red	0	0	ml	2.7.3	bip	sub-10_ses-02_task-ml_proj-bip_2020-12-15-10-26-21.769886
277	10	2	6	278	volatile	4	20	18	sv	red	blue	red	blue	left	right	0.30000000000000004	0.7	6	2	1.8000000000000005	1.4	1	0	0.30000000000000004	0.7	6	2	1.8000000000000005	1.4	invalid	0.4332360819989845	51200	0	0	1	51200	1	53248	0	51200	1	0.7	53248	blue	red	0	6	ml	2.7.3	bip	sub-10_ses-02_task-ml_proj-bip_2020-12-15-10-26-21.769886
278	10	2	6	279	volatile	4	20	19	sv	blue	red	red	blue	right	left	0.30000000000000004	0.7	2	6	0.6000000000000001	4.199999999999998	0	1	0.7	0.30000000000000004	6	2	4.199999999999998	0.6000000000000001	valid	0.5998643200000515	53248	0	1	1	51200	0	51200	0	51200	0	0.7	51200	blue	red	1	0	ml	2.7.3	bip	sub-10_ses-02_task-ml_proj-bip_2020-12-15-10-26-21.769886
279	10	2	6	280	volatile	4	20	20	sv	blue	red	red	blue	right	left	0.30000000000000004	0.7	2	10	0.6000000000000001	7.0	0	1	0.7	0.30000000000000004	10	2	7.0	0.6000000000000001	valid	0.5998638290002418	53248	0	1	1	51200	0	51200	0	51200	0	0.7	51200	blue	red	1	0	ml	2.7.3	bip	sub-10_ses-02_task-ml_proj-bip_2020-12-15-10-26-21.769886
280	10	2	6	281	volatile	5	20	1	sv	blue	red	red	blue	right	left	0.7	0.30000000000000004	6	2	4.199999999999998	0.6000000000000001	1	0	0.30000000000000004	0.7	2	6	0.6000000000000001	4.199999999999998	valid	0.6831736309995904	53248	0	1	1	53248	1	53248	1	53248	1	0.7	53248	red	blue	1	6	ml	2.7.3	bip	sub-10_ses-02_task-ml_proj-bip_2020-12-15-10-26-21.769886
281	10	2	6	282	volatile	5	20	2	sv	blue	red	red	blue	right	left	0.7	0.30000000000000004	2	6	1.4	1.8000000000000005	1	0	0.30000000000000004	0.7	6	2	1.8000000000000005	1.4	valid	0.6165201389994763	53248	0	1	1	51200	0	53248	1	51200	0	0.7	53248	red	blue	0	2	ml	2.7.3	bip	sub-10_ses-02_task-ml_proj-bip_2020-12-15-10-26-21.769886
282	10	2	6	283	volatile	5	20	3	sv	red	blue	red	blue	left	right	0.7	0.30000000000000004	2	10	1.4	3.0000000000000004	0	1	0.7	0.30000000000000004	2	10	1.4	3.0000000000000004	invalid	0.549868197998876	51200	0	0	1	53248	0	51200	1	53248	0	0.7	51200	red	blue	0	0	ml	2.7.3	bip	sub-10_ses-02_task-ml_proj-bip_2020-12-15-10-26-21.769886
283	10	2	6	284	volatile	5	20	4	sv	red	blue	red	blue	left	right	0.7	0.30000000000000004	4	2	2.8	0.6000000000000001	1	0	0.7	0.30000000000000004	4	2	2.8	0.6000000000000001	valid	1.0330694670010416	53248	0	1	2	51200	0	51200	0	51200	0	0.7	51200	red	blue	1	0	ml	2.7.3	bip	sub-10_ses-02_task-ml_proj-bip_2020-12-15-10-26-21.769886
284	10	2	6	285	volatile	5	20	5	sv	red	blue	red	blue	left	right	0.7	0.30000000000000004	2	2	1.4	0.6000000000000001	1	0	0.7	0.30000000000000004	2	2	1.4	0.6000000000000001	valid	0.4498952159992768	51200	0	0	1	51200	1	51200	1	53248	0	0.7	51200	red	blue	1	2	ml	2.7.3	bip	sub-10_ses-02_task-ml_proj-bip_2020-12-15-10-26-21.769886
285	10	2	6	286	volatile	5	20	6	sv	red	blue	red	blue	left	right	0.7	0.30000000000000004	10	2	7.0	0.6000000000000001	0	1	0.7	0.30000000000000004	10	2	7.0	0.6000000000000001	invalid	0.6331756949984992	51200	0	0	1	51200	1	51200	1	51200	1	0.7	51200	red	blue	1	0	ml	2.7.3	bip	sub-10_ses-02_task-ml_proj-bip_2020-12-15-10-26-21.769886
286	10	2	6	287	volatile	5	20	7	sv	red	blue	red	blue	left	right	0.7	0.30000000000000004	10	2	7.0	0.6000000000000001	1	0	0.7	0.30000000000000004	10	2	7.0	0.6000000000000001	valid	0.4332309430010355	51200	0	0	1	51200	1	51200	1	51200	1	0.7	51200	red	blue	1	10	ml	2.7.3	bip	sub-10_ses-02_task-ml_proj-bip_2020-12-15-10-26-21.769886
287	10	2	6	288	volatile	5	20	8	sv	red	blue	red	blue	left	right	0.7	0.30000000000000004	2	4	1.4	1.2000000000000002	1	0	0.7	0.30000000000000004	2	4	1.4	1.2000000000000002	valid	0.6998187819990562	51200	0	0	1	51200	1	51200	1	53248	0	0.7	51200	red	blue	0	2	ml	2.7.3	bip	sub-10_ses-02_task-ml_proj-bip_2020-12-15-10-26-21.769886
288	10	2	6	289	volatile	5	20	9	sv	blue	red	red	blue	right	left	0.7	0.30000000000000004	6	4	4.199999999999998	1.2000000000000002	0	1	0.30000000000000004	0.7	4	6	1.2000000000000002	4.199999999999998	invalid	0.583207791998575	53248	0	1	1	53248	1	53248	1	53248	1	0.7	53248	red	blue	1	0	ml	2.7.3	bip	sub-10_ses-02_task-ml_proj-bip_2020-12-15-10-26-21.769886
289	10	2	6	290	volatile	5	20	10	sv	blue	red	red	blue	right	left	0.7	0.30000000000000004	2	2	1.4	0.6000000000000001	0	1	0.30000000000000004	0.7	2	2	0.6000000000000001	1.4	invalid	0.5165549450011895	53248	0	1	1	53248	1	53248	1	53248	1	0.7	53248	red	blue	0	0	ml	2.7.3	bip	sub-10_ses-02_task-ml_proj-bip_2020-12-15-10-26-21.769886
290	10	2	6	291	volatile	5	20	11	sv	blue	red	red	blue	right	left	0.7	0.30000000000000004	4	2	2.8	0.6000000000000001	1	0	0.30000000000000004	0.7	2	4	0.6000000000000001	2.8	valid	0.41658238499985606	53248	0	1	1	53248	1	53248	1	53248	1	0.7	53248	red	blue	1	4	ml	2.7.3	bip	sub-10_ses-02_task-ml_proj-bip_2020-12-15-10-26-21.769886
291	10	2	6	292	volatile	5	20	12	sv	red	blue	red	blue	left	right	0.7	0.30000000000000004	6	4	4.199999999999998	1.2000000000000002	0	1	0.7	0.30000000000000004	6	4	4.199999999999998	1.2000000000000002	invalid	0.4832272610001382	51200	0	0	1	51200	1	51200	1	51200	1	0.7	51200	red	blue	1	0	ml	2.7.3	bip	sub-10_ses-02_task-ml_proj-bip_2020-12-15-10-26-21.769886
292	10	2	6	293	volatile	5	20	13	sv	blue	red	red	blue	right	left	0.7	0.30000000000000004	2	4	1.4	1.2000000000000002	1	0	0.30000000000000004	0.7	4	2	1.2000000000000002	1.4	valid	0.7498075929997867	51200	0	0	2	53248	0	53248	0	51200	1	0.7	53248	red	blue	0	0	ml	2.7.3	bip	sub-10_ses-02_task-ml_proj-bip_2020-12-15-10-26-21.769886
293	10	2	6	294	volatile	5	20	14	sv	red	blue	red	blue	left	right	0.7	0.30000000000000004	4	6	2.8	1.8000000000000005	1	0	0.7	0.30000000000000004	4	6	2.8	1.8000000000000005	valid	0.4165723000005528	51200	0	0	1	51200	1	51200	1	53248	0	0.7	51200	red	blue	0	4	ml	2.7.3	bip	sub-10_ses-02_task-ml_proj-bip_2020-12-15-10-26-21.769886
294	10	2	6	295	volatile	5	20	15	sv	red	blue	red	blue	left	right	0.7	0.30000000000000004	2	10	1.4	3.0000000000000004	1	0	0.7	0.30000000000000004	2	10	1.4	3.0000000000000004	valid	0.8831123740001203	53248	0	1	2	53248	1	51200	0	53248	1	0.7	51200	red	blue	0	0	ml	2.7.3	bip	sub-10_ses-02_task-ml_proj-bip_2020-12-15-10-26-21.769886
295	10	2	6	296	volatile	5	20	16	sv	blue	red	red	blue	right	left	0.7	0.30000000000000004	6	2	4.199999999999998	0.6000000000000001	1	0	0.30000000000000004	0.7	2	6	0.6000000000000001	4.199999999999998	valid	0.4665495690005628	51200	0	0	2	53248	0	53248	0	53248	0	0.7	53248	red	blue	1	0	ml	2.7.3	bip	sub-10_ses-02_task-ml_proj-bip_2020-12-15-10-26-21.769886
296	10	2	6	297	volatile	5	20	17	sv	blue	red	red	blue	right	left	0.7	0.30000000000000004	2	6	1.4	1.8000000000000005	1	0	0.30000000000000004	0.7	6	2	1.8000000000000005	1.4	valid	0.5998660620007286	53248	0	1	1	51200	0	53248	1	51200	0	0.7	53248	red	blue	0	2	ml	2.7.3	bip	sub-10_ses-02_task-ml_proj-bip_2020-12-15-10-26-21.769886
297	10	2	6	298	volatile	5	20	18	sv	blue	red	red	blue	right	left	0.7	0.30000000000000004	4	6	2.8	1.8000000000000005	0	1	0.30000000000000004	0.7	6	4	1.8000000000000005	2.8	invalid	0.6165188689992647	51200	0	0	2	53248	0	53248	0	51200	1	0.7	53248	red	blue	0	6	ml	2.7.3	bip	sub-10_ses-02_task-ml_proj-bip_2020-12-15-10-26-21.769886
