Unnamed: 0	sub_id	ses_id	block_no	trial_no	phase_type	phase_no	phase_length	trialInPhase_no	phase_type_order	color_left	color_right	color1	color2	position1	position2	prob1	prob2	mag1	mag2	ev1	ev2	outcome1	outcome2	prob_left	prob_right	mag_left	mag_right	ev_left	ev_right	reward_validity	resp_time	resp_key	timeout	choice_side	choice	ev_corr_resp	ev_correct	prob_corr_resp	prob_correct	mag_corr_resp	mag_correct	high_prob	high_prob_side	high_prob_color	low_prob_color	no_brain	reward	name	version	proj_id	logFileID
0	8	2	1	1	volatile	1	40	1	vs	red	blue	blue	red	right	left	0.7	0.30000000000000004	6	2	4.199999999999998	0.6000000000000001	0	1	0.30000000000000004	0.7	2	6	0.6000000000000001	4.199999999999998	invalid	1.1496986350002771	53248	0	1	1	53248	1	53248	1	53248	1	0.7	53248	blue	red	1	0	ml	2.7.3	bip	sub-08_ses-02_task-ml_proj-bip_2020-12-01-10-03-08.126911
1	8	2	1	2	volatile	1	40	2	vs	blue	red	blue	red	left	right	0.7	0.30000000000000004	4	2	2.8	0.6000000000000001	0	1	0.7	0.30000000000000004	4	2	2.8	0.6000000000000001	invalid	0.8164678739994997	53248	0	1	2	51200	0	51200	0	51200	0	0.7	51200	blue	red	1	2	ml	2.7.3	bip	sub-08_ses-02_task-ml_proj-bip_2020-12-01-10-03-08.126911
2	8	2	1	3	volatile	1	40	3	vs	red	blue	blue	red	right	left	0.7	0.30000000000000004	6	6	4.199999999999998	1.8000000000000005	1	0	0.30000000000000004	0.7	6	6	1.8000000000000005	4.199999999999998	valid	0.43323554400012654	51200	0	0	2	53248	0	53248	0	53248	0	0.7	53248	blue	red	0	0	ml	2.7.3	bip	sub-08_ses-02_task-ml_proj-bip_2020-12-01-10-03-08.126911
3	8	2	1	4	volatile	1	40	4	vs	red	blue	blue	red	right	left	0.7	0.30000000000000004	10	2	7.0	0.6000000000000001	1	0	0.30000000000000004	0.7	2	10	0.6000000000000001	7.0	valid	0.5498760979999133	53248	0	1	1	53248	1	53248	1	53248	1	0.7	53248	blue	red	1	10	ml	2.7.3	bip	sub-08_ses-02_task-ml_proj-bip_2020-12-01-10-03-08.126911
4	8	2	1	5	volatile	1	40	5	vs	red	blue	blue	red	right	left	0.7	0.30000000000000004	6	2	4.199999999999998	0.6000000000000001	1	0	0.30000000000000004	0.7	2	6	0.6000000000000001	4.199999999999998	valid	0.7831439179999506	53248	0	1	1	53248	1	53248	1	53248	1	0.7	53248	blue	red	1	6	ml	2.7.3	bip	sub-08_ses-02_task-ml_proj-bip_2020-12-01-10-03-08.126911
5	8	2	1	6	volatile	1	40	6	vs	red	blue	blue	red	right	left	0.7	0.30000000000000004	2	4	1.4	1.2000000000000002	0	1	0.30000000000000004	0.7	4	2	1.2000000000000002	1.4	invalid	0.6831745700001193	53248	0	1	1	53248	1	53248	1	51200	0	0.7	53248	blue	red	0	0	ml	2.7.3	bip	sub-08_ses-02_task-ml_proj-bip_2020-12-01-10-03-08.126911
6	8	2	1	7	volatile	1	40	7	vs	blue	red	blue	red	left	right	0.7	0.30000000000000004	6	2	4.199999999999998	0.6000000000000001	1	0	0.7	0.30000000000000004	6	2	4.199999999999998	0.6000000000000001	valid	0.5665373330002694	53248	0	1	2	51200	0	51200	0	51200	0	0.7	51200	blue	red	1	0	ml	2.7.3	bip	sub-08_ses-02_task-ml_proj-bip_2020-12-01-10-03-08.126911
7	8	2	1	8	volatile	1	40	8	vs	blue	red	blue	red	left	right	0.7	0.30000000000000004	6	6	4.199999999999998	1.8000000000000005	1	0	0.7	0.30000000000000004	6	6	4.199999999999998	1.8000000000000005	valid	0.4832190199995239	51200	0	0	1	51200	1	51200	1	53248	0	0.7	51200	blue	red	1	6	ml	2.7.3	bip	sub-08_ses-02_task-ml_proj-bip_2020-12-01-10-03-08.126911
8	8	2	1	9	volatile	1	40	9	vs	red	blue	blue	red	right	left	0.7	0.30000000000000004	6	6	4.199999999999998	1.8000000000000005	1	0	0.30000000000000004	0.7	6	6	1.8000000000000005	4.199999999999998	valid	0.4165862009995181	53248	0	1	1	53248	1	53248	1	53248	1	0.7	53248	blue	red	0	6	ml	2.7.3	bip	sub-08_ses-02_task-ml_proj-bip_2020-12-01-10-03-08.126911
9	8	2	1	10	volatile	1	40	10	vs	blue	red	blue	red	left	right	0.7	0.30000000000000004	4	6	2.8	1.8000000000000005	1	0	0.7	0.30000000000000004	4	6	2.8	1.8000000000000005	valid	0.4332344710001053	51200	0	0	1	51200	1	51200	1	53248	0	0.7	51200	blue	red	0	4	ml	2.7.3	bip	sub-08_ses-02_task-ml_proj-bip_2020-12-01-10-03-08.126911
10	8	2	1	11	volatile	1	40	11	vs	red	blue	blue	red	right	left	0.7	0.30000000000000004	2	2	1.4	0.6000000000000001	1	0	0.30000000000000004	0.7	2	2	0.6000000000000001	1.4	valid	0.7331580090003627	53248	0	1	1	53248	1	53248	1	53248	1	0.7	53248	blue	red	0	2	ml	2.7.3	bip	sub-08_ses-02_task-ml_proj-bip_2020-12-01-10-03-08.126911
11	8	2	1	12	volatile	1	40	12	vs	blue	red	blue	red	left	right	0.7	0.30000000000000004	2	4	1.4	1.2000000000000002	0	1	0.7	0.30000000000000004	2	4	1.4	1.2000000000000002	invalid	0.7831305990002875	51200	0	0	1	51200	1	51200	1	53248	0	0.7	51200	blue	red	0	0	ml	2.7.3	bip	sub-08_ses-02_task-ml_proj-bip_2020-12-01-10-03-08.126911
12	8	2	1	13	volatile	1	40	13	vs	blue	red	blue	red	left	right	0.7	0.30000000000000004	6	4	4.199999999999998	1.2000000000000002	1	0	0.7	0.30000000000000004	6	4	4.199999999999998	1.2000000000000002	valid	0.9664222419996804	53248	0	1	2	51200	0	51200	0	51200	0	0.7	51200	blue	red	1	0	ml	2.7.3	bip	sub-08_ses-02_task-ml_proj-bip_2020-12-01-10-03-08.126911
13	8	2	1	14	volatile	1	40	14	vs	red	blue	blue	red	right	left	0.7	0.30000000000000004	2	2	1.4	0.6000000000000001	0	1	0.30000000000000004	0.7	2	2	0.6000000000000001	1.4	invalid	1.0497513250002155	53248	0	1	1	53248	1	53248	1	53248	1	0.7	53248	blue	red	0	0	ml	2.7.3	bip	sub-08_ses-02_task-ml_proj-bip_2020-12-01-10-03-08.126911
14	8	2	1	15	volatile	1	40	15	vs	blue	red	blue	red	left	right	0.7	0.30000000000000004	10	2	7.0	0.6000000000000001	0	1	0.7	0.30000000000000004	10	2	7.0	0.6000000000000001	invalid	1.049722341999768	51200	0	0	1	51200	1	51200	1	51200	1	0.7	51200	blue	red	1	0	ml	2.7.3	bip	sub-08_ses-02_task-ml_proj-bip_2020-12-01-10-03-08.126911
15	8	2	1	16	volatile	1	40	16	vs	blue	red	blue	red	left	right	0.7	0.30000000000000004	2	10	1.4	3.0000000000000004	1	0	0.7	0.30000000000000004	2	10	1.4	3.0000000000000004	valid	0.4165779550003208	53248	0	1	2	53248	1	51200	0	53248	1	0.7	51200	blue	red	0	0	ml	2.7.3	bip	sub-08_ses-02_task-ml_proj-bip_2020-12-01-10-03-08.126911
16	8	2	1	17	volatile	1	40	17	vs	red	blue	blue	red	right	left	0.7	0.30000000000000004	10	2	7.0	0.6000000000000001	1	0	0.30000000000000004	0.7	2	10	0.6000000000000001	7.0	valid	0.983081972999571	53248	0	1	1	53248	1	53248	1	53248	1	0.7	53248	blue	red	1	10	ml	2.7.3	bip	sub-08_ses-02_task-ml_proj-bip_2020-12-01-10-03-08.126911
17	8	2	1	18	volatile	1	40	18	vs	blue	red	blue	red	left	right	0.7	0.30000000000000004	6	6	4.199999999999998	1.8000000000000005	0	1	0.7	0.30000000000000004	6	6	4.199999999999998	1.8000000000000005	invalid	0.999736804999884	51200	0	0	1	51200	1	51200	1	53248	0	0.7	51200	blue	red	1	0	ml	2.7.3	bip	sub-08_ses-02_task-ml_proj-bip_2020-12-01-10-03-08.126911
18	8	2	1	19	volatile	1	40	19	vs	blue	red	blue	red	left	right	0.7	0.30000000000000004	6	2	4.199999999999998	0.6000000000000001	1	0	0.7	0.30000000000000004	6	2	4.199999999999998	0.6000000000000001	valid	0.7164969460000066	53248	0	1	2	51200	0	51200	0	51200	0	0.7	51200	blue	red	1	0	ml	2.7.3	bip	sub-08_ses-02_task-ml_proj-bip_2020-12-01-10-03-08.126911
19	8	2	1	20	volatile	1	40	20	vs	blue	red	blue	red	left	right	0.7	0.30000000000000004	4	2	2.8	0.6000000000000001	1	0	0.7	0.30000000000000004	4	2	2.8	0.6000000000000001	valid	0.4665550659992732	51200	0	0	1	51200	1	51200	1	51200	1	0.7	51200	blue	red	1	4	ml	2.7.3	bip	sub-08_ses-02_task-ml_proj-bip_2020-12-01-10-03-08.126911
20	8	2	1	21	volatile	1	40	21	vs	red	blue	blue	red	right	left	0.7	0.30000000000000004	2	6	1.4	1.8000000000000005	1	0	0.30000000000000004	0.7	6	2	1.8000000000000005	1.4	valid	0.8331224380008281	53248	0	1	1	51200	0	53248	1	51200	0	0.7	53248	blue	red	0	2	ml	2.7.3	bip	sub-08_ses-02_task-ml_proj-bip_2020-12-01-10-03-08.126911
21	8	2	1	22	volatile	1	40	22	vs	red	blue	blue	red	right	left	0.7	0.30000000000000004	2	6	1.4	1.8000000000000005	1	0	0.30000000000000004	0.7	6	2	1.8000000000000005	1.4	valid	0.9331071950000478	53248	0	1	1	51200	0	53248	1	51200	0	0.7	53248	blue	red	0	2	ml	2.7.3	bip	sub-08_ses-02_task-ml_proj-bip_2020-12-01-10-03-08.126911
22	8	2	1	23	volatile	1	40	23	vs	red	blue	blue	red	right	left	0.7	0.30000000000000004	2	10	1.4	3.0000000000000004	0	1	0.30000000000000004	0.7	10	2	3.0000000000000004	1.4	invalid	1.266329233999386	51200	0	0	2	51200	1	53248	0	51200	1	0.7	53248	blue	red	0	10	ml	2.7.3	bip	sub-08_ses-02_task-ml_proj-bip_2020-12-01-10-03-08.126911
23	8	2	1	24	volatile	1	40	24	vs	blue	red	blue	red	left	right	0.7	0.30000000000000004	2	6	1.4	1.8000000000000005	1	0	0.7	0.30000000000000004	2	6	1.4	1.8000000000000005	valid	0.6831733330000134	53248	0	1	2	53248	1	51200	0	53248	1	0.7	51200	blue	red	0	0	ml	2.7.3	bip	sub-08_ses-02_task-ml_proj-bip_2020-12-01-10-03-08.126911
24	8	2	1	25	volatile	1	40	25	vs	blue	red	blue	red	left	right	0.7	0.30000000000000004	6	4	4.199999999999998	1.2000000000000002	0	1	0.7	0.30000000000000004	6	4	4.199999999999998	1.2000000000000002	invalid	0.516543843999898	51200	0	0	1	51200	1	51200	1	51200	1	0.7	51200	blue	red	1	0	ml	2.7.3	bip	sub-08_ses-02_task-ml_proj-bip_2020-12-01-10-03-08.126911
25	8	2	1	26	volatile	1	40	26	vs	red	blue	blue	red	right	left	0.7	0.30000000000000004	4	2	2.8	0.6000000000000001	0	1	0.30000000000000004	0.7	2	4	0.6000000000000001	2.8	invalid	0.4832205570000952	51200	0	0	2	53248	0	53248	0	53248	0	0.7	53248	blue	red	1	2	ml	2.7.3	bip	sub-08_ses-02_task-ml_proj-bip_2020-12-01-10-03-08.126911
26	8	2	1	27	volatile	1	40	27	vs	blue	red	blue	red	left	right	0.7	0.30000000000000004	2	2	1.4	0.6000000000000001	1	0	0.7	0.30000000000000004	2	2	1.4	0.6000000000000001	valid	1.2330145920004725	53248	0	1	2	51200	0	51200	0	53248	1	0.7	51200	blue	red	1	0	ml	2.7.3	bip	sub-08_ses-02_task-ml_proj-bip_2020-12-01-10-03-08.126911
27	8	2	1	28	volatile	1	40	28	vs	red	blue	blue	red	right	left	0.7	0.30000000000000004	6	2	4.199999999999998	0.6000000000000001	1	0	0.30000000000000004	0.7	2	6	0.6000000000000001	4.199999999999998	valid	0.4832384669998646	53248	0	1	1	53248	1	53248	1	53248	1	0.7	53248	blue	red	1	6	ml	2.7.3	bip	sub-08_ses-02_task-ml_proj-bip_2020-12-01-10-03-08.126911
28	8	2	1	29	volatile	1	40	29	vs	red	blue	blue	red	right	left	0.7	0.30000000000000004	4	2	2.8	0.6000000000000001	0	1	0.30000000000000004	0.7	2	4	0.6000000000000001	2.8	invalid	0.49989158800053707	53248	0	1	1	53248	1	53248	1	53248	1	0.7	53248	blue	red	1	0	ml	2.7.3	bip	sub-08_ses-02_task-ml_proj-bip_2020-12-01-10-03-08.126911
29	8	2	1	30	volatile	1	40	30	vs	red	blue	blue	red	right	left	0.7	0.30000000000000004	4	2	2.8	0.6000000000000001	1	0	0.30000000000000004	0.7	2	4	0.6000000000000001	2.8	valid	0.5165472399994542	51200	0	0	2	53248	0	53248	0	53248	0	0.7	53248	blue	red	1	0	ml	2.7.3	bip	sub-08_ses-02_task-ml_proj-bip_2020-12-01-10-03-08.126911
30	8	2	1	31	volatile	1	40	31	vs	blue	red	blue	red	left	right	0.7	0.30000000000000004	4	6	2.8	1.8000000000000005	1	0	0.7	0.30000000000000004	4	6	2.8	1.8000000000000005	valid	0.3665881469996748	51200	0	0	1	51200	1	51200	1	53248	0	0.7	51200	blue	red	0	4	ml	2.7.3	bip	sub-08_ses-02_task-ml_proj-bip_2020-12-01-10-03-08.126911
31	8	2	1	32	volatile	1	40	32	vs	red	blue	blue	red	right	left	0.7	0.30000000000000004	2	10	1.4	3.0000000000000004	1	0	0.30000000000000004	0.7	10	2	3.0000000000000004	1.4	valid	0.9331029989998568	53248	0	1	1	51200	0	53248	1	51200	0	0.7	53248	blue	red	0	2	ml	2.7.3	bip	sub-08_ses-02_task-ml_proj-bip_2020-12-01-10-03-08.126911
32	8	2	1	33	volatile	1	40	33	vs	blue	red	blue	red	left	right	0.7	0.30000000000000004	4	2	2.8	0.6000000000000001	1	0	0.7	0.30000000000000004	4	2	2.8	0.6000000000000001	valid	0.4332360759999574	51200	0	0	1	51200	1	51200	1	51200	1	0.7	51200	blue	red	1	4	ml	2.7.3	bip	sub-08_ses-02_task-ml_proj-bip_2020-12-01-10-03-08.126911
33	8	2	1	34	volatile	1	40	34	vs	blue	red	blue	red	left	right	0.7	0.30000000000000004	6	4	4.199999999999998	1.2000000000000002	0	1	0.7	0.30000000000000004	6	4	4.199999999999998	1.2000000000000002	invalid	0.38325000800068665	51200	0	0	1	51200	1	51200	1	51200	1	0.7	51200	blue	red	1	0	ml	2.7.3	bip	sub-08_ses-02_task-ml_proj-bip_2020-12-01-10-03-08.126911
34	8	2	1	35	volatile	1	40	35	vs	red	blue	blue	red	right	left	0.7	0.30000000000000004	2	10	1.4	3.0000000000000004	1	0	0.30000000000000004	0.7	10	2	3.0000000000000004	1.4	valid	0.3832505039999887	51200	0	0	2	51200	1	53248	0	51200	1	0.7	53248	blue	red	0	0	ml	2.7.3	bip	sub-08_ses-02_task-ml_proj-bip_2020-12-01-10-03-08.126911
35	8	2	1	36	volatile	1	40	36	vs	blue	red	blue	red	left	right	0.7	0.30000000000000004	2	10	1.4	3.0000000000000004	1	0	0.7	0.30000000000000004	2	10	1.4	3.0000000000000004	valid	1.2663374230005502	53248	0	1	2	53248	1	51200	0	53248	1	0.7	51200	blue	red	0	0	ml	2.7.3	bip	sub-08_ses-02_task-ml_proj-bip_2020-12-01-10-03-08.126911
36	8	2	1	37	volatile	1	40	37	vs	blue	red	blue	red	left	right	0.7	0.30000000000000004	2	2	1.4	0.6000000000000001	1	0	0.7	0.30000000000000004	2	2	1.4	0.6000000000000001	valid	0.5332071249995352	51200	0	0	1	51200	1	51200	1	53248	0	0.7	51200	blue	red	1	2	ml	2.7.3	bip	sub-08_ses-02_task-ml_proj-bip_2020-12-01-10-03-08.126911
37	8	2	1	38	volatile	1	40	38	vs	blue	red	blue	red	left	right	0.7	0.30000000000000004	4	6	2.8	1.8000000000000005	1	0	0.7	0.30000000000000004	4	6	2.8	1.8000000000000005	valid	0.383246732999396	51200	0	0	1	51200	1	51200	1	53248	0	0.7	51200	blue	red	0	4	ml	2.7.3	bip	sub-08_ses-02_task-ml_proj-bip_2020-12-01-10-03-08.126911
38	8	2	1	39	volatile	1	40	39	vs	red	blue	blue	red	right	left	0.7	0.30000000000000004	6	4	4.199999999999998	1.2000000000000002	1	0	0.30000000000000004	0.7	4	6	1.2000000000000002	4.199999999999998	valid	0.5832025199997588	53248	0	1	1	53248	1	53248	1	53248	1	0.7	53248	blue	red	1	6	ml	2.7.3	bip	sub-08_ses-02_task-ml_proj-bip_2020-12-01-10-03-08.126911
39	8	2	1	40	volatile	1	40	40	vs	red	blue	blue	red	right	left	0.7	0.30000000000000004	4	6	2.8	1.8000000000000005	1	0	0.30000000000000004	0.7	6	4	1.8000000000000005	2.8	valid	0.5665327130000151	53248	0	1	1	53248	1	53248	1	51200	0	0.7	53248	blue	red	0	4	ml	2.7.3	bip	sub-08_ses-02_task-ml_proj-bip_2020-12-01-10-03-08.126911
40	8	2	1	41	volatile	2	20	1	vs	blue	red	blue	red	left	right	0.30000000000000004	0.7	4	2	1.2000000000000002	1.4	1	0	0.30000000000000004	0.7	4	2	1.2000000000000002	1.4	invalid	0.449896565999552	51200	0	0	1	53248	0	53248	0	51200	1	0.7	53248	red	blue	0	4	ml	2.7.3	bip	sub-08_ses-02_task-ml_proj-bip_2020-12-01-10-03-08.126911
41	8	2	1	42	volatile	2	20	2	vs	blue	red	blue	red	left	right	0.30000000000000004	0.7	2	4	0.6000000000000001	2.8	0	1	0.30000000000000004	0.7	2	4	0.6000000000000001	2.8	valid	0.4165825860000041	51200	0	0	1	53248	0	53248	0	53248	0	0.7	53248	red	blue	1	0	ml	2.7.3	bip	sub-08_ses-02_task-ml_proj-bip_2020-12-01-10-03-08.126911
42	8	2	1	43	volatile	2	20	3	vs	red	blue	blue	red	right	left	0.30000000000000004	0.7	2	6	0.6000000000000001	4.199999999999998	1	0	0.7	0.30000000000000004	6	2	4.199999999999998	0.6000000000000001	invalid	0.3999123009998584	51200	0	0	2	51200	1	51200	1	51200	1	0.7	51200	red	blue	1	0	ml	2.7.3	bip	sub-08_ses-02_task-ml_proj-bip_2020-12-01-10-03-08.126911
43	8	2	1	44	volatile	2	20	4	vs	red	blue	blue	red	right	left	0.30000000000000004	0.7	6	6	1.8000000000000005	4.199999999999998	0	1	0.7	0.30000000000000004	6	6	4.199999999999998	1.8000000000000005	valid	0.433245724999324	53248	0	1	1	51200	0	51200	0	53248	1	0.7	51200	red	blue	1	0	ml	2.7.3	bip	sub-08_ses-02_task-ml_proj-bip_2020-12-01-10-03-08.126911
44	8	2	1	45	volatile	2	20	5	vs	red	blue	blue	red	right	left	0.30000000000000004	0.7	2	10	0.6000000000000001	7.0	0	1	0.7	0.30000000000000004	10	2	7.0	0.6000000000000001	valid	0.4832201780000105	51200	0	0	2	51200	1	51200	1	51200	1	0.7	51200	red	blue	1	10	ml	2.7.3	bip	sub-08_ses-02_task-ml_proj-bip_2020-12-01-10-03-08.126911
45	8	2	1	46	volatile	2	20	6	vs	blue	red	blue	red	left	right	0.30000000000000004	0.7	6	4	1.8000000000000005	2.8	0	1	0.30000000000000004	0.7	6	4	1.8000000000000005	2.8	valid	1.2830064650006534	53248	0	1	2	53248	1	53248	1	51200	0	0.7	53248	red	blue	0	4	ml	2.7.3	bip	sub-08_ses-02_task-ml_proj-bip_2020-12-01-10-03-08.126911
46	8	2	1	47	volatile	2	20	7	vs	red	blue	blue	red	right	left	0.30000000000000004	0.7	4	2	1.2000000000000002	1.4	0	1	0.7	0.30000000000000004	2	4	1.4	1.2000000000000002	valid	0.7164870090000477	51200	0	0	2	51200	1	51200	1	53248	0	0.7	51200	red	blue	0	2	ml	2.7.3	bip	sub-08_ses-02_task-ml_proj-bip_2020-12-01-10-03-08.126911
47	8	2	1	48	volatile	2	20	8	vs	red	blue	blue	red	right	left	0.30000000000000004	0.7	6	2	1.8000000000000005	1.4	0	1	0.7	0.30000000000000004	2	6	1.4	1.8000000000000005	valid	0.7331469539994941	51200	0	0	2	53248	0	51200	1	53248	0	0.7	51200	red	blue	0	2	ml	2.7.3	bip	sub-08_ses-02_task-ml_proj-bip_2020-12-01-10-03-08.126911
48	8	2	1	49	volatile	2	20	9	vs	blue	red	blue	red	left	right	0.30000000000000004	0.7	2	2	0.6000000000000001	1.4	1	0	0.30000000000000004	0.7	2	2	0.6000000000000001	1.4	invalid	0.7998062420001588	53248	0	1	2	53248	1	53248	1	53248	1	0.7	53248	red	blue	0	0	ml	2.7.3	bip	sub-08_ses-02_task-ml_proj-bip_2020-12-01-10-03-08.126911
49	8	2	1	50	volatile	2	20	10	vs	blue	red	blue	red	left	right	0.30000000000000004	0.7	4	6	1.2000000000000002	4.199999999999998	0	1	0.30000000000000004	0.7	4	6	1.2000000000000002	4.199999999999998	valid	0.3999097989999427	51200	0	0	1	53248	0	53248	0	53248	0	0.7	53248	red	blue	1	0	ml	2.7.3	bip	sub-08_ses-02_task-ml_proj-bip_2020-12-01-10-03-08.126911
50	8	2	2	51	volatile	2	20	11	vs	red	blue	blue	red	right	left	0.30000000000000004	0.7	2	6	0.6000000000000001	4.199999999999998	0	1	0.7	0.30000000000000004	6	2	4.199999999999998	0.6000000000000001	valid	0.8664422169986209	51200	0	0	2	51200	1	51200	1	51200	1	0.7	51200	red	blue	1	6	ml	2.7.3	bip	sub-08_ses-02_task-ml_proj-bip_2020-12-01-10-03-08.126911
51	8	2	2	52	volatile	2	20	12	vs	red	blue	blue	red	right	left	0.30000000000000004	0.7	6	2	1.8000000000000005	1.4	1	0	0.7	0.30000000000000004	2	6	1.4	1.8000000000000005	invalid	0.6664959930003533	51200	0	0	2	53248	0	51200	1	53248	0	0.7	51200	red	blue	0	0	ml	2.7.3	bip	sub-08_ses-02_task-ml_proj-bip_2020-12-01-10-03-08.126911
52	8	2	2	53	volatile	2	20	13	vs	blue	red	blue	red	left	right	0.30000000000000004	0.7	10	2	3.0000000000000004	1.4	1	0	0.30000000000000004	0.7	10	2	3.0000000000000004	1.4	invalid	0.39991058700070425	51200	0	0	1	51200	1	53248	0	51200	1	0.7	53248	red	blue	0	10	ml	2.7.3	bip	sub-08_ses-02_task-ml_proj-bip_2020-12-01-10-03-08.126911
53	8	2	2	54	volatile	2	20	14	vs	red	blue	blue	red	right	left	0.30000000000000004	0.7	6	6	1.8000000000000005	4.199999999999998	0	1	0.7	0.30000000000000004	6	6	4.199999999999998	1.8000000000000005	valid	0.6331857009990927	53248	0	1	1	51200	0	51200	0	53248	1	0.7	51200	red	blue	1	0	ml	2.7.3	bip	sub-08_ses-02_task-ml_proj-bip_2020-12-01-10-03-08.126911
54	8	2	2	55	volatile	2	20	15	vs	blue	red	blue	red	left	right	0.30000000000000004	0.7	6	4	1.8000000000000005	2.8	0	1	0.30000000000000004	0.7	6	4	1.8000000000000005	2.8	valid	0.4499071369991725	53248	0	1	2	53248	1	53248	1	51200	0	0.7	53248	red	blue	0	4	ml	2.7.3	bip	sub-08_ses-02_task-ml_proj-bip_2020-12-01-10-03-08.126911
55	8	2	2	56	volatile	2	20	16	vs	blue	red	blue	red	left	right	0.30000000000000004	0.7	2	10	0.6000000000000001	7.0	0	1	0.30000000000000004	0.7	2	10	0.6000000000000001	7.0	valid	0.7831440330010082	53248	0	1	2	53248	1	53248	1	53248	1	0.7	53248	red	blue	1	10	ml	2.7.3	bip	sub-08_ses-02_task-ml_proj-bip_2020-12-01-10-03-08.126911
56	8	2	2	57	volatile	2	20	17	vs	red	blue	blue	red	right	left	0.30000000000000004	0.7	6	4	1.8000000000000005	2.8	0	1	0.7	0.30000000000000004	4	6	2.8	1.8000000000000005	valid	0.3999111949997314	51200	0	0	2	51200	1	51200	1	53248	0	0.7	51200	red	blue	0	4	ml	2.7.3	bip	sub-08_ses-02_task-ml_proj-bip_2020-12-01-10-03-08.126911
57	8	2	2	58	volatile	2	20	18	vs	blue	red	blue	red	left	right	0.30000000000000004	0.7	2	10	0.6000000000000001	7.0	0	1	0.30000000000000004	0.7	2	10	0.6000000000000001	7.0	valid	0.4499076699994475	53248	0	1	2	53248	1	53248	1	53248	1	0.7	53248	red	blue	1	10	ml	2.7.3	bip	sub-08_ses-02_task-ml_proj-bip_2020-12-01-10-03-08.126911
58	8	2	2	59	volatile	2	20	19	vs	red	blue	blue	red	right	left	0.30000000000000004	0.7	2	4	0.6000000000000001	2.8	1	0	0.7	0.30000000000000004	4	2	2.8	0.6000000000000001	invalid	0.41657857400059584	51200	0	0	2	51200	1	51200	1	51200	1	0.7	51200	red	blue	1	0	ml	2.7.3	bip	sub-08_ses-02_task-ml_proj-bip_2020-12-01-10-03-08.126911
59	8	2	2	60	volatile	2	20	20	vs	blue	red	blue	red	left	right	0.30000000000000004	0.7	2	2	0.6000000000000001	1.4	0	1	0.30000000000000004	0.7	2	2	0.6000000000000001	1.4	valid	0.3665940299997601	51200	0	0	1	53248	0	53248	0	53248	0	0.7	53248	red	blue	0	0	ml	2.7.3	bip	sub-08_ses-02_task-ml_proj-bip_2020-12-01-10-03-08.126911
60	8	2	2	61	volatile	3	20	1	vs	red	blue	blue	red	right	left	0.7	0.30000000000000004	4	6	2.8	1.8000000000000005	1	0	0.30000000000000004	0.7	6	4	1.8000000000000005	2.8	valid	0.38324873599958653	51200	0	0	2	53248	0	53248	0	51200	1	0.7	53248	blue	red	0	0	ml	2.7.3	bip	sub-08_ses-02_task-ml_proj-bip_2020-12-01-10-03-08.126911
61	8	2	2	62	volatile	3	20	2	vs	blue	red	blue	red	left	right	0.7	0.30000000000000004	2	2	1.4	0.6000000000000001	1	0	0.7	0.30000000000000004	2	2	1.4	0.6000000000000001	valid	0.4665546970009018	51200	0	0	1	51200	1	51200	1	53248	0	0.7	51200	blue	red	1	2	ml	2.7.3	bip	sub-08_ses-02_task-ml_proj-bip_2020-12-01-10-03-08.126911
62	8	2	2	63	volatile	3	20	3	vs	red	blue	blue	red	right	left	0.7	0.30000000000000004	2	10	1.4	3.0000000000000004	1	0	0.30000000000000004	0.7	10	2	3.0000000000000004	1.4	valid	0.8831092799991893	53248	0	1	1	51200	0	53248	1	51200	0	0.7	53248	blue	red	0	2	ml	2.7.3	bip	sub-08_ses-02_task-ml_proj-bip_2020-12-01-10-03-08.126911
63	8	2	2	64	volatile	3	20	4	vs	blue	red	blue	red	left	right	0.7	0.30000000000000004	6	6	4.199999999999998	1.8000000000000005	0	1	0.7	0.30000000000000004	6	6	4.199999999999998	1.8000000000000005	invalid	0.3499264160000166	51200	0	0	1	51200	1	51200	1	53248	0	0.7	51200	blue	red	1	0	ml	2.7.3	bip	sub-08_ses-02_task-ml_proj-bip_2020-12-01-10-03-08.126911
64	8	2	2	65	volatile	3	20	5	vs	blue	red	blue	red	left	right	0.7	0.30000000000000004	2	6	1.4	1.8000000000000005	1	0	0.7	0.30000000000000004	2	6	1.4	1.8000000000000005	valid	0.3999191410002823	53248	0	1	2	53248	1	51200	0	53248	1	0.7	51200	blue	red	0	0	ml	2.7.3	bip	sub-08_ses-02_task-ml_proj-bip_2020-12-01-10-03-08.126911
65	8	2	2	66	volatile	3	20	6	vs	red	blue	blue	red	right	left	0.7	0.30000000000000004	2	2	1.4	0.6000000000000001	0	1	0.30000000000000004	0.7	2	2	0.6000000000000001	1.4	invalid	0.3999227399999654	53248	0	1	1	53248	1	53248	1	53248	1	0.7	53248	blue	red	0	0	ml	2.7.3	bip	sub-08_ses-02_task-ml_proj-bip_2020-12-01-10-03-08.126911
66	8	2	2	67	volatile	3	20	7	vs	red	blue	blue	red	right	left	0.7	0.30000000000000004	10	2	7.0	0.6000000000000001	1	0	0.30000000000000004	0.7	2	10	0.6000000000000001	7.0	valid	0.366583052000351	51200	0	0	2	53248	0	53248	0	53248	0	0.7	53248	blue	red	1	0	ml	2.7.3	bip	sub-08_ses-02_task-ml_proj-bip_2020-12-01-10-03-08.126911
67	8	2	2	68	volatile	3	20	8	vs	red	blue	blue	red	right	left	0.7	0.30000000000000004	6	2	4.199999999999998	0.6000000000000001	1	0	0.30000000000000004	0.7	2	6	0.6000000000000001	4.199999999999998	valid	0.4499107880001248	53248	0	1	1	53248	1	53248	1	53248	1	0.7	53248	blue	red	1	6	ml	2.7.3	bip	sub-08_ses-02_task-ml_proj-bip_2020-12-01-10-03-08.126911
68	8	2	2	69	volatile	3	20	9	vs	red	blue	blue	red	right	left	0.7	0.30000000000000004	4	2	2.8	0.6000000000000001	0	1	0.30000000000000004	0.7	2	4	0.6000000000000001	2.8	invalid	0.7331655859998136	53248	0	1	1	53248	1	53248	1	53248	1	0.7	53248	blue	red	1	0	ml	2.7.3	bip	sub-08_ses-02_task-ml_proj-bip_2020-12-01-10-03-08.126911
69	8	2	2	70	volatile	3	20	10	vs	blue	red	blue	red	left	right	0.7	0.30000000000000004	6	4	4.199999999999998	1.2000000000000002	0	1	0.7	0.30000000000000004	6	4	4.199999999999998	1.2000000000000002	invalid	1.0664002770008665	53248	0	1	2	51200	0	51200	0	51200	0	0.7	51200	blue	red	1	4	ml	2.7.3	bip	sub-08_ses-02_task-ml_proj-bip_2020-12-01-10-03-08.126911
70	8	2	2	71	volatile	3	20	11	vs	red	blue	blue	red	right	left	0.7	0.30000000000000004	2	4	1.4	1.2000000000000002	1	0	0.30000000000000004	0.7	4	2	1.2000000000000002	1.4	valid	0.4832183700000314	51200	0	0	2	53248	0	53248	0	51200	1	0.7	53248	blue	red	0	0	ml	2.7.3	bip	sub-08_ses-02_task-ml_proj-bip_2020-12-01-10-03-08.126911
71	8	2	2	72	volatile	3	20	12	vs	red	blue	blue	red	right	left	0.7	0.30000000000000004	2	4	1.4	1.2000000000000002	1	0	0.30000000000000004	0.7	4	2	1.2000000000000002	1.4	valid	0.8331315690011252	53248	0	1	1	53248	1	53248	1	51200	0	0.7	53248	blue	red	0	2	ml	2.7.3	bip	sub-08_ses-02_task-ml_proj-bip_2020-12-01-10-03-08.126911
72	8	2	2	73	volatile	3	20	13	vs	blue	red	blue	red	left	right	0.7	0.30000000000000004	4	6	2.8	1.8000000000000005	1	0	0.7	0.30000000000000004	4	6	2.8	1.8000000000000005	valid	0.39990888200009067	51200	0	0	1	51200	1	51200	1	53248	0	0.7	51200	blue	red	0	4	ml	2.7.3	bip	sub-08_ses-02_task-ml_proj-bip_2020-12-01-10-03-08.126911
73	8	2	2	74	volatile	3	20	14	vs	blue	red	blue	red	left	right	0.7	0.30000000000000004	10	2	7.0	0.6000000000000001	0	1	0.7	0.30000000000000004	10	2	7.0	0.6000000000000001	invalid	0.7831316989995685	51200	0	0	1	51200	1	51200	1	51200	1	0.7	51200	blue	red	1	0	ml	2.7.3	bip	sub-08_ses-02_task-ml_proj-bip_2020-12-01-10-03-08.126911
74	8	2	2	75	volatile	3	20	15	vs	red	blue	blue	red	right	left	0.7	0.30000000000000004	4	2	2.8	0.6000000000000001	1	0	0.30000000000000004	0.7	2	4	0.6000000000000001	2.8	valid	0.5165442420002364	51200	0	0	2	53248	0	53248	0	53248	0	0.7	53248	blue	red	1	0	ml	2.7.3	bip	sub-08_ses-02_task-ml_proj-bip_2020-12-01-10-03-08.126911
75	8	2	2	76	volatile	3	20	16	vs	red	blue	blue	red	right	left	0.7	0.30000000000000004	2	6	1.4	1.8000000000000005	0	1	0.30000000000000004	0.7	6	2	1.8000000000000005	1.4	invalid	1.016404120999141	53248	0	1	1	51200	0	53248	1	51200	0	0.7	53248	blue	red	0	0	ml	2.7.3	bip	sub-08_ses-02_task-ml_proj-bip_2020-12-01-10-03-08.126911
76	8	2	2	77	volatile	3	20	17	vs	blue	red	blue	red	left	right	0.7	0.30000000000000004	6	6	4.199999999999998	1.8000000000000005	1	0	0.7	0.30000000000000004	6	6	4.199999999999998	1.8000000000000005	valid	0.716502440000113	53248	0	1	2	51200	0	51200	0	53248	1	0.7	51200	blue	red	1	0	ml	2.7.3	bip	sub-08_ses-02_task-ml_proj-bip_2020-12-01-10-03-08.126911
77	8	2	2	78	volatile	3	20	18	vs	blue	red	blue	red	left	right	0.7	0.30000000000000004	2	10	1.4	3.0000000000000004	1	0	0.7	0.30000000000000004	2	10	1.4	3.0000000000000004	valid	0.9997550179996324	53248	0	1	2	53248	1	51200	0	53248	1	0.7	51200	blue	red	0	0	ml	2.7.3	bip	sub-08_ses-02_task-ml_proj-bip_2020-12-01-10-03-08.126911
78	8	2	2	79	volatile	3	20	19	vs	blue	red	blue	red	left	right	0.7	0.30000000000000004	4	6	2.8	1.8000000000000005	1	0	0.7	0.30000000000000004	4	6	2.8	1.8000000000000005	valid	0.3499250450004183	51200	0	0	1	51200	1	51200	1	53248	0	0.7	51200	blue	red	0	4	ml	2.7.3	bip	sub-08_ses-02_task-ml_proj-bip_2020-12-01-10-03-08.126911
79	8	2	2	80	volatile	3	20	20	vs	blue	red	blue	red	left	right	0.7	0.30000000000000004	6	2	4.199999999999998	0.6000000000000001	1	0	0.7	0.30000000000000004	6	2	4.199999999999998	0.6000000000000001	valid	0.3665851219993783	51200	0	0	1	51200	1	51200	1	51200	1	0.7	51200	blue	red	1	6	ml	2.7.3	bip	sub-08_ses-02_task-ml_proj-bip_2020-12-01-10-03-08.126911
80	8	2	2	81	volatile	4	20	1	vs	red	blue	blue	red	right	left	0.30000000000000004	0.7	4	6	1.2000000000000002	4.199999999999998	0	1	0.7	0.30000000000000004	6	4	4.199999999999998	1.2000000000000002	valid	0.6498523729987937	53248	0	1	1	51200	0	51200	0	51200	0	0.7	51200	red	blue	1	0	ml	2.7.3	bip	sub-08_ses-02_task-ml_proj-bip_2020-12-01-10-03-08.126911
81	8	2	2	82	volatile	4	20	2	vs	red	blue	blue	red	right	left	0.30000000000000004	0.7	4	6	1.2000000000000002	4.199999999999998	1	0	0.7	0.30000000000000004	6	4	4.199999999999998	1.2000000000000002	invalid	0.4499041620001663	51200	0	0	2	51200	1	51200	1	51200	1	0.7	51200	red	blue	1	0	ml	2.7.3	bip	sub-08_ses-02_task-ml_proj-bip_2020-12-01-10-03-08.126911
82	8	2	2	83	volatile	4	20	3	vs	blue	red	blue	red	left	right	0.30000000000000004	0.7	6	6	1.8000000000000005	4.199999999999998	0	1	0.30000000000000004	0.7	6	6	1.8000000000000005	4.199999999999998	valid	0.4665572410012828	51200	0	0	1	53248	0	53248	0	53248	0	0.7	53248	red	blue	0	0	ml	2.7.3	bip	sub-08_ses-02_task-ml_proj-bip_2020-12-01-10-03-08.126911
83	8	2	2	84	volatile	4	20	4	vs	red	blue	blue	red	right	left	0.30000000000000004	0.7	2	6	0.6000000000000001	4.199999999999998	0	1	0.7	0.30000000000000004	6	2	4.199999999999998	0.6000000000000001	valid	0.8831045459992309	51200	0	0	2	51200	1	51200	1	51200	1	0.7	51200	red	blue	1	6	ml	2.7.3	bip	sub-08_ses-02_task-ml_proj-bip_2020-12-01-10-03-08.126911
84	8	2	2	85	volatile	4	20	5	vs	blue	red	blue	red	left	right	0.30000000000000004	0.7	2	2	0.6000000000000001	1.4	0	1	0.30000000000000004	0.7	2	2	0.6000000000000001	1.4	valid	0.4832300640009634	53248	0	1	2	53248	1	53248	1	53248	1	0.7	53248	red	blue	0	2	ml	2.7.3	bip	sub-08_ses-02_task-ml_proj-bip_2020-12-01-10-03-08.126911
85	8	2	2	86	volatile	4	20	6	vs	red	blue	blue	red	right	left	0.30000000000000004	0.7	2	4	0.6000000000000001	2.8	1	0	0.7	0.30000000000000004	4	2	2.8	0.6000000000000001	invalid	0.34992603799946664	51200	0	0	2	51200	1	51200	1	51200	1	0.7	51200	red	blue	1	0	ml	2.7.3	bip	sub-08_ses-02_task-ml_proj-bip_2020-12-01-10-03-08.126911
86	8	2	2	87	volatile	4	20	7	vs	red	blue	blue	red	right	left	0.30000000000000004	0.7	10	2	3.0000000000000004	1.4	0	1	0.7	0.30000000000000004	2	10	1.4	3.0000000000000004	valid	0.5498788439999771	53248	0	1	1	53248	1	51200	0	53248	1	0.7	51200	red	blue	0	0	ml	2.7.3	bip	sub-08_ses-02_task-ml_proj-bip_2020-12-01-10-03-08.126911
87	8	2	2	88	volatile	4	20	8	vs	red	blue	blue	red	right	left	0.30000000000000004	0.7	10	2	3.0000000000000004	1.4	0	1	0.7	0.30000000000000004	2	10	1.4	3.0000000000000004	valid	1.7995156359993416	53248	0	1	1	53248	1	51200	0	53248	1	0.7	51200	red	blue	0	0	ml	2.7.3	bip	sub-08_ses-02_task-ml_proj-bip_2020-12-01-10-03-08.126911
88	8	2	2	89	volatile	4	20	9	vs	red	blue	blue	red	right	left	0.30000000000000004	0.7	2	4	0.6000000000000001	2.8	0	1	0.7	0.30000000000000004	4	2	2.8	0.6000000000000001	valid	0.3499186299995927	51200	0	0	2	51200	1	51200	1	51200	1	0.7	51200	red	blue	1	4	ml	2.7.3	bip	sub-08_ses-02_task-ml_proj-bip_2020-12-01-10-03-08.126911
89	8	2	2	90	volatile	4	20	10	vs	blue	red	blue	red	left	right	0.30000000000000004	0.7	6	2	1.8000000000000005	1.4	0	1	0.30000000000000004	0.7	6	2	1.8000000000000005	1.4	valid	0.6665130910005246	53248	0	1	2	51200	0	53248	1	51200	0	0.7	53248	red	blue	0	2	ml	2.7.3	bip	sub-08_ses-02_task-ml_proj-bip_2020-12-01-10-03-08.126911
90	8	2	2	91	volatile	4	20	11	vs	blue	red	blue	red	left	right	0.30000000000000004	0.7	2	2	0.6000000000000001	1.4	0	1	0.30000000000000004	0.7	2	2	0.6000000000000001	1.4	valid	0.4499077200016473	53248	0	1	2	53248	1	53248	1	53248	1	0.7	53248	red	blue	0	2	ml	2.7.3	bip	sub-08_ses-02_task-ml_proj-bip_2020-12-01-10-03-08.126911
91	8	2	2	92	volatile	4	20	12	vs	blue	red	blue	red	left	right	0.30000000000000004	0.7	10	2	3.0000000000000004	1.4	0	1	0.30000000000000004	0.7	10	2	3.0000000000000004	1.4	valid	0.7331586439995591	53248	0	1	2	51200	0	53248	1	51200	0	0.7	53248	red	blue	0	2	ml	2.7.3	bip	sub-08_ses-02_task-ml_proj-bip_2020-12-01-10-03-08.126911
92	8	2	2	93	volatile	4	20	13	vs	red	blue	blue	red	right	left	0.30000000000000004	0.7	6	4	1.8000000000000005	2.8	1	0	0.7	0.30000000000000004	4	6	2.8	1.8000000000000005	invalid	0.3999043019994133	51200	0	0	2	51200	1	51200	1	53248	0	0.7	51200	red	blue	0	0	ml	2.7.3	bip	sub-08_ses-02_task-ml_proj-bip_2020-12-01-10-03-08.126911
93	8	2	2	94	volatile	4	20	14	vs	red	blue	blue	red	right	left	0.30000000000000004	0.7	4	2	1.2000000000000002	1.4	0	1	0.7	0.30000000000000004	2	4	1.4	1.2000000000000002	valid	0.5498832680004853	53248	0	1	1	51200	0	51200	0	53248	1	0.7	51200	red	blue	0	0	ml	2.7.3	bip	sub-08_ses-02_task-ml_proj-bip_2020-12-01-10-03-08.126911
94	8	2	2	95	volatile	4	20	15	vs	red	blue	blue	red	right	left	0.30000000000000004	0.7	4	2	1.2000000000000002	1.4	0	1	0.7	0.30000000000000004	2	4	1.4	1.2000000000000002	valid	0.7664692340003967	51200	0	0	2	51200	1	51200	1	53248	0	0.7	51200	red	blue	0	2	ml	2.7.3	bip	sub-08_ses-02_task-ml_proj-bip_2020-12-01-10-03-08.126911
95	8	2	2	96	volatile	4	20	16	vs	blue	red	blue	red	left	right	0.30000000000000004	0.7	6	6	1.8000000000000005	4.199999999999998	0	1	0.30000000000000004	0.7	6	6	1.8000000000000005	4.199999999999998	valid	0.4665702149995923	53248	0	1	2	53248	1	53248	1	53248	1	0.7	53248	red	blue	0	6	ml	2.7.3	bip	sub-08_ses-02_task-ml_proj-bip_2020-12-01-10-03-08.126911
96	8	2	2	97	volatile	4	20	17	vs	blue	red	blue	red	left	right	0.30000000000000004	0.7	2	6	0.6000000000000001	4.199999999999998	0	1	0.30000000000000004	0.7	2	6	0.6000000000000001	4.199999999999998	valid	0.549878276000527	53248	0	1	2	53248	1	53248	1	53248	1	0.7	53248	red	blue	1	6	ml	2.7.3	bip	sub-08_ses-02_task-ml_proj-bip_2020-12-01-10-03-08.126911
97	8	2	2	98	volatile	4	20	18	vs	blue	red	blue	red	left	right	0.30000000000000004	0.7	4	6	1.2000000000000002	4.199999999999998	1	0	0.30000000000000004	0.7	4	6	1.2000000000000002	4.199999999999998	invalid	0.4998918459987181	53248	0	1	2	53248	1	53248	1	53248	1	0.7	53248	red	blue	1	0	ml	2.7.3	bip	sub-08_ses-02_task-ml_proj-bip_2020-12-01-10-03-08.126911
98	8	2	2	99	volatile	4	20	19	vs	blue	red	blue	red	left	right	0.30000000000000004	0.7	2	6	0.6000000000000001	4.199999999999998	1	0	0.30000000000000004	0.7	2	6	0.6000000000000001	4.199999999999998	invalid	0.4332659380015684	51200	0	0	1	53248	0	53248	0	53248	0	0.7	53248	red	blue	1	2	ml	2.7.3	bip	sub-08_ses-02_task-ml_proj-bip_2020-12-01-10-03-08.126911
99	8	2	2	100	volatile	4	20	20	vs	blue	red	blue	red	left	right	0.30000000000000004	0.7	10	2	3.0000000000000004	1.4	1	0	0.30000000000000004	0.7	10	2	3.0000000000000004	1.4	invalid	0.3832497080002213	51200	0	0	1	51200	1	53248	0	51200	1	0.7	53248	red	blue	0	10	ml	2.7.3	bip	sub-08_ses-02_task-ml_proj-bip_2020-12-01-10-03-08.126911
100	8	2	3	101	volatile	5	20	1	vs	red	blue	blue	red	right	left	0.7	0.30000000000000004	10	2	7.0	0.6000000000000001	1	0	0.30000000000000004	0.7	2	10	0.6000000000000001	7.0	valid	0.6498435099983908	53248	0	1	1	53248	1	53248	1	53248	1	0.7	53248	blue	red	1	10	ml	2.7.3	bip	sub-08_ses-02_task-ml_proj-bip_2020-12-01-10-03-08.126911
101	8	2	3	102	volatile	5	20	2	vs	blue	red	blue	red	left	right	0.7	0.30000000000000004	4	6	2.8	1.8000000000000005	1	0	0.7	0.30000000000000004	4	6	2.8	1.8000000000000005	valid	0.3665833169998223	51200	0	0	1	51200	1	51200	1	53248	0	0.7	51200	blue	red	0	4	ml	2.7.3	bip	sub-08_ses-02_task-ml_proj-bip_2020-12-01-10-03-08.126911
102	8	2	3	103	volatile	5	20	3	vs	blue	red	blue	red	left	right	0.7	0.30000000000000004	2	6	1.4	1.8000000000000005	0	1	0.7	0.30000000000000004	2	6	1.4	1.8000000000000005	invalid	0.3332742549991963	51200	0	0	1	53248	0	51200	1	53248	0	0.7	51200	blue	red	0	0	ml	2.7.3	bip	sub-08_ses-02_task-ml_proj-bip_2020-12-01-10-03-08.126911
103	8	2	3	104	volatile	5	20	4	vs	red	blue	blue	red	right	left	0.7	0.30000000000000004	2	6	1.4	1.8000000000000005	1	0	0.30000000000000004	0.7	6	2	1.8000000000000005	1.4	valid	0.31660517399905075	51200	0	0	2	51200	1	53248	0	51200	1	0.7	53248	blue	red	0	0	ml	2.7.3	bip	sub-08_ses-02_task-ml_proj-bip_2020-12-01-10-03-08.126911
104	8	2	3	105	volatile	5	20	5	vs	red	blue	blue	red	right	left	0.7	0.30000000000000004	6	6	4.199999999999998	1.8000000000000005	0	1	0.30000000000000004	0.7	6	6	1.8000000000000005	4.199999999999998	invalid	0.3499357299988333	53248	0	1	1	53248	1	53248	1	53248	1	0.7	53248	blue	red	0	0	ml	2.7.3	bip	sub-08_ses-02_task-ml_proj-bip_2020-12-01-10-03-08.126911
105	8	2	3	106	volatile	5	20	6	vs	blue	red	blue	red	left	right	0.7	0.30000000000000004	6	2	4.199999999999998	0.6000000000000001	1	0	0.7	0.30000000000000004	6	2	4.199999999999998	0.6000000000000001	valid	0.3999281719989085	53248	0	1	2	51200	0	51200	0	51200	0	0.7	51200	blue	red	1	0	ml	2.7.3	bip	sub-08_ses-02_task-ml_proj-bip_2020-12-01-10-03-08.126911
106	8	2	3	107	volatile	5	20	7	vs	blue	red	blue	red	left	right	0.7	0.30000000000000004	6	4	4.199999999999998	1.2000000000000002	0	1	0.7	0.30000000000000004	6	4	4.199999999999998	1.2000000000000002	invalid	0.3499235769995721	51200	0	0	1	51200	1	51200	1	51200	1	0.7	51200	blue	red	1	0	ml	2.7.3	bip	sub-08_ses-02_task-ml_proj-bip_2020-12-01-10-03-08.126911
107	8	2	3	108	volatile	5	20	8	vs	blue	red	blue	red	left	right	0.7	0.30000000000000004	2	2	1.4	0.6000000000000001	1	0	0.7	0.30000000000000004	2	2	1.4	0.6000000000000001	valid	0.4332480610009952	53248	0	1	2	51200	0	51200	0	53248	1	0.7	51200	blue	red	1	0	ml	2.7.3	bip	sub-08_ses-02_task-ml_proj-bip_2020-12-01-10-03-08.126911
108	8	2	3	109	volatile	5	20	9	vs	red	blue	blue	red	right	left	0.7	0.30000000000000004	4	2	2.8	0.6000000000000001	1	0	0.30000000000000004	0.7	2	4	0.6000000000000001	2.8	valid	1.8661608739985243	51200	0	0	2	53248	0	53248	0	53248	0	0.7	53248	blue	red	1	0	ml	2.7.3	bip	sub-08_ses-02_task-ml_proj-bip_2020-12-01-10-03-08.126911
109	8	2	3	110	volatile	5	20	10	vs	red	blue	blue	red	right	left	0.7	0.30000000000000004	6	4	4.199999999999998	1.2000000000000002	1	0	0.30000000000000004	0.7	4	6	1.2000000000000002	4.199999999999998	valid	0.3499404069989396	53248	0	1	1	53248	1	53248	1	53248	1	0.7	53248	blue	red	1	6	ml	2.7.3	bip	sub-08_ses-02_task-ml_proj-bip_2020-12-01-10-03-08.126911
110	8	2	3	111	volatile	5	20	11	vs	red	blue	blue	red	right	left	0.7	0.30000000000000004	2	4	1.4	1.2000000000000002	0	1	0.30000000000000004	0.7	4	2	1.2000000000000002	1.4	invalid	0.3832617640000535	53248	0	1	1	53248	1	53248	1	51200	0	0.7	53248	blue	red	0	0	ml	2.7.3	bip	sub-08_ses-02_task-ml_proj-bip_2020-12-01-10-03-08.126911
111	8	2	3	112	volatile	5	20	12	vs	blue	red	blue	red	left	right	0.7	0.30000000000000004	4	2	2.8	0.6000000000000001	1	0	0.7	0.30000000000000004	4	2	2.8	0.6000000000000001	valid	0.4332420920000004	53248	0	1	2	51200	0	51200	0	51200	0	0.7	51200	blue	red	1	0	ml	2.7.3	bip	sub-08_ses-02_task-ml_proj-bip_2020-12-01-10-03-08.126911
112	8	2	3	113	volatile	5	20	13	vs	blue	red	blue	red	left	right	0.7	0.30000000000000004	10	2	7.0	0.6000000000000001	1	0	0.7	0.30000000000000004	10	2	7.0	0.6000000000000001	valid	0.7831320240002242	51200	0	0	1	51200	1	51200	1	51200	1	0.7	51200	blue	red	1	10	ml	2.7.3	bip	sub-08_ses-02_task-ml_proj-bip_2020-12-01-10-03-08.126911
113	8	2	3	114	volatile	5	20	14	vs	red	blue	blue	red	right	left	0.7	0.30000000000000004	10	2	7.0	0.6000000000000001	0	1	0.30000000000000004	0.7	2	10	0.6000000000000001	7.0	invalid	0.6998341779999464	53248	0	1	1	53248	1	53248	1	53248	1	0.7	53248	blue	red	1	0	ml	2.7.3	bip	sub-08_ses-02_task-ml_proj-bip_2020-12-01-10-03-08.126911
114	8	2	3	115	volatile	5	20	15	vs	red	blue	blue	red	right	left	0.7	0.30000000000000004	2	2	1.4	0.6000000000000001	1	0	0.30000000000000004	0.7	2	2	0.6000000000000001	1.4	valid	0.3665908570001193	51200	0	0	2	53248	0	53248	0	53248	0	0.7	53248	blue	red	0	0	ml	2.7.3	bip	sub-08_ses-02_task-ml_proj-bip_2020-12-01-10-03-08.126911
115	8	2	3	116	volatile	5	20	16	vs	blue	red	blue	red	left	right	0.7	0.30000000000000004	10	2	7.0	0.6000000000000001	1	0	0.7	0.30000000000000004	10	2	7.0	0.6000000000000001	valid	0.9664191450010547	51200	0	0	1	51200	1	51200	1	51200	1	0.7	51200	blue	red	1	10	ml	2.7.3	bip	sub-08_ses-02_task-ml_proj-bip_2020-12-01-10-03-08.126911
116	8	2	3	117	volatile	5	20	17	vs	red	blue	blue	red	right	left	0.7	0.30000000000000004	4	6	2.8	1.8000000000000005	1	0	0.30000000000000004	0.7	6	4	1.8000000000000005	2.8	valid	0.3832600380010263	53248	0	1	1	53248	1	53248	1	51200	0	0.7	53248	blue	red	0	4	ml	2.7.3	bip	sub-08_ses-02_task-ml_proj-bip_2020-12-01-10-03-08.126911
117	8	2	3	118	volatile	5	20	18	vs	blue	red	blue	red	left	right	0.7	0.30000000000000004	2	6	1.4	1.8000000000000005	0	1	0.7	0.30000000000000004	2	6	1.4	1.8000000000000005	invalid	0.5498762600000191	51200	0	0	1	53248	0	51200	1	53248	0	0.7	51200	blue	red	0	0	ml	2.7.3	bip	sub-08_ses-02_task-ml_proj-bip_2020-12-01-10-03-08.126911
118	8	2	3	119	volatile	5	20	19	vs	red	blue	blue	red	right	left	0.7	0.30000000000000004	4	2	2.8	0.6000000000000001	1	0	0.30000000000000004	0.7	2	4	0.6000000000000001	2.8	valid	0.4498933289996785	51200	0	0	2	53248	0	53248	0	53248	0	0.7	53248	blue	red	1	0	ml	2.7.3	bip	sub-08_ses-02_task-ml_proj-bip_2020-12-01-10-03-08.126911
119	8	2	3	120	volatile	5	20	20	vs	blue	red	blue	red	left	right	0.7	0.30000000000000004	6	6	4.199999999999998	1.8000000000000005	1	0	0.7	0.30000000000000004	6	6	4.199999999999998	1.8000000000000005	valid	0.33326245100033697	51200	0	0	1	51200	1	51200	1	53248	0	0.7	51200	blue	red	1	6	ml	2.7.3	bip	sub-08_ses-02_task-ml_proj-bip_2020-12-01-10-03-08.126911
120	8	2	3	121	volatile	6	40	1	vs	red	blue	blue	red	right	left	0.30000000000000004	0.7	6	6	1.8000000000000005	4.199999999999998	0	1	0.7	0.30000000000000004	6	6	4.199999999999998	1.8000000000000005	valid	0.5832077529994422	53248	0	1	1	51200	0	51200	0	53248	1	0.7	51200	red	blue	1	0	ml	2.7.3	bip	sub-08_ses-02_task-ml_proj-bip_2020-12-01-10-03-08.126911
121	8	2	3	122	volatile	6	40	2	vs	red	blue	blue	red	right	left	0.30000000000000004	0.7	10	2	3.0000000000000004	1.4	0	1	0.7	0.30000000000000004	2	10	1.4	3.0000000000000004	valid	1.1663636770008452	53248	0	1	1	53248	1	51200	0	53248	1	0.7	51200	red	blue	0	0	ml	2.7.3	bip	sub-08_ses-02_task-ml_proj-bip_2020-12-01-10-03-08.126911
122	8	2	3	123	volatile	6	40	3	vs	blue	red	blue	red	left	right	0.30000000000000004	0.7	2	2	0.6000000000000001	1.4	0	1	0.30000000000000004	0.7	2	2	0.6000000000000001	1.4	valid	0.5998636439999245	53248	0	1	2	53248	1	53248	1	53248	1	0.7	53248	red	blue	0	2	ml	2.7.3	bip	sub-08_ses-02_task-ml_proj-bip_2020-12-01-10-03-08.126911
123	8	2	3	124	volatile	6	40	4	vs	red	blue	blue	red	right	left	0.30000000000000004	0.7	4	2	1.2000000000000002	1.4	0	1	0.7	0.30000000000000004	2	4	1.4	1.2000000000000002	valid	0.3832471389996499	51200	0	0	2	51200	1	51200	1	53248	0	0.7	51200	red	blue	0	2	ml	2.7.3	bip	sub-08_ses-02_task-ml_proj-bip_2020-12-01-10-03-08.126911
124	8	2	3	125	volatile	6	40	5	vs	blue	red	blue	red	left	right	0.30000000000000004	0.7	2	6	0.6000000000000001	4.199999999999998	0	1	0.30000000000000004	0.7	2	6	0.6000000000000001	4.199999999999998	valid	0.5498875419998512	53248	0	1	2	53248	1	53248	1	53248	1	0.7	53248	red	blue	1	6	ml	2.7.3	bip	sub-08_ses-02_task-ml_proj-bip_2020-12-01-10-03-08.126911
125	8	2	3	126	volatile	6	40	6	vs	red	blue	blue	red	right	left	0.30000000000000004	0.7	2	2	0.6000000000000001	1.4	1	0	0.7	0.30000000000000004	2	2	1.4	0.6000000000000001	invalid	0.533207828999366	51200	0	0	2	51200	1	51200	1	53248	0	0.7	51200	red	blue	1	0	ml	2.7.3	bip	sub-08_ses-02_task-ml_proj-bip_2020-12-01-10-03-08.126911
126	8	2	3	127	volatile	6	40	7	vs	blue	red	blue	red	left	right	0.30000000000000004	0.7	6	4	1.8000000000000005	2.8	1	0	0.30000000000000004	0.7	6	4	1.8000000000000005	2.8	invalid	0.4499025379991508	51200	0	0	1	53248	0	53248	0	51200	1	0.7	53248	red	blue	0	6	ml	2.7.3	bip	sub-08_ses-02_task-ml_proj-bip_2020-12-01-10-03-08.126911
127	8	2	3	128	volatile	6	40	8	vs	red	blue	blue	red	right	left	0.30000000000000004	0.7	4	6	1.2000000000000002	4.199999999999998	1	0	0.7	0.30000000000000004	6	4	4.199999999999998	1.2000000000000002	invalid	0.5665413299993816	53248	0	1	1	51200	0	51200	0	51200	0	0.7	51200	red	blue	1	4	ml	2.7.3	bip	sub-08_ses-02_task-ml_proj-bip_2020-12-01-10-03-08.126911
128	8	2	3	129	volatile	6	40	9	vs	red	blue	blue	red	right	left	0.30000000000000004	0.7	2	4	0.6000000000000001	2.8	1	0	0.7	0.30000000000000004	4	2	2.8	0.6000000000000001	invalid	0.9664251949998288	53248	0	1	1	51200	0	51200	0	51200	0	0.7	51200	red	blue	1	2	ml	2.7.3	bip	sub-08_ses-02_task-ml_proj-bip_2020-12-01-10-03-08.126911
129	8	2	3	130	volatile	6	40	10	vs	blue	red	blue	red	left	right	0.30000000000000004	0.7	4	6	1.2000000000000002	4.199999999999998	0	1	0.30000000000000004	0.7	4	6	1.2000000000000002	4.199999999999998	valid	0.5332034620005288	51200	0	0	1	53248	0	53248	0	53248	0	0.7	53248	red	blue	1	0	ml	2.7.3	bip	sub-08_ses-02_task-ml_proj-bip_2020-12-01-10-03-08.126911
130	8	2	3	131	volatile	6	40	11	vs	blue	red	blue	red	left	right	0.30000000000000004	0.7	6	2	1.8000000000000005	1.4	0	1	0.30000000000000004	0.7	6	2	1.8000000000000005	1.4	valid	0.7498128770002951	53248	0	1	2	51200	0	53248	1	51200	0	0.7	53248	red	blue	0	2	ml	2.7.3	bip	sub-08_ses-02_task-ml_proj-bip_2020-12-01-10-03-08.126911
131	8	2	3	132	volatile	6	40	12	vs	blue	red	blue	red	left	right	0.30000000000000004	0.7	4	6	1.2000000000000002	4.199999999999998	0	1	0.30000000000000004	0.7	4	6	1.2000000000000002	4.199999999999998	valid	0.7331581180005742	53248	0	1	2	53248	1	53248	1	53248	1	0.7	53248	red	blue	1	6	ml	2.7.3	bip	sub-08_ses-02_task-ml_proj-bip_2020-12-01-10-03-08.126911
132	8	2	3	133	volatile	6	40	13	vs	red	blue	blue	red	right	left	0.30000000000000004	0.7	2	6	0.6000000000000001	4.199999999999998	0	1	0.7	0.30000000000000004	6	2	4.199999999999998	0.6000000000000001	valid	0.3832482759989944	51200	0	0	2	51200	1	51200	1	51200	1	0.7	51200	red	blue	1	6	ml	2.7.3	bip	sub-08_ses-02_task-ml_proj-bip_2020-12-01-10-03-08.126911
133	8	2	3	134	volatile	6	40	14	vs	red	blue	blue	red	right	left	0.30000000000000004	0.7	4	6	1.2000000000000002	4.199999999999998	0	1	0.7	0.30000000000000004	6	4	4.199999999999998	1.2000000000000002	valid	0.3999125690006622	51200	0	0	2	51200	1	51200	1	51200	1	0.7	51200	red	blue	1	6	ml	2.7.3	bip	sub-08_ses-02_task-ml_proj-bip_2020-12-01-10-03-08.126911
134	8	2	3	135	volatile	6	40	15	vs	red	blue	blue	red	right	left	0.30000000000000004	0.7	2	4	0.6000000000000001	2.8	0	1	0.7	0.30000000000000004	4	2	2.8	0.6000000000000001	valid	0.4498932869992132	51200	0	0	2	51200	1	51200	1	51200	1	0.7	51200	red	blue	1	4	ml	2.7.3	bip	sub-08_ses-02_task-ml_proj-bip_2020-12-01-10-03-08.126911
135	8	2	3	136	volatile	6	40	16	vs	red	blue	blue	red	right	left	0.30000000000000004	0.7	6	2	1.8000000000000005	1.4	1	0	0.7	0.30000000000000004	2	6	1.4	1.8000000000000005	invalid	0.5998536490005789	51200	0	0	2	53248	0	51200	1	53248	0	0.7	51200	red	blue	0	0	ml	2.7.3	bip	sub-08_ses-02_task-ml_proj-bip_2020-12-01-10-03-08.126911
136	8	2	3	137	volatile	6	40	17	vs	red	blue	blue	red	right	left	0.30000000000000004	0.7	2	10	0.6000000000000001	7.0	0	1	0.7	0.30000000000000004	10	2	7.0	0.6000000000000001	valid	0.8331284380001307	53248	0	1	1	51200	0	51200	0	51200	0	0.7	51200	red	blue	1	0	ml	2.7.3	bip	sub-08_ses-02_task-ml_proj-bip_2020-12-01-10-03-08.126911
137	8	2	3	138	volatile	6	40	18	vs	red	blue	blue	red	right	left	0.30000000000000004	0.7	6	2	1.8000000000000005	1.4	0	1	0.7	0.30000000000000004	2	6	1.4	1.8000000000000005	valid	0.4498991159998696	51200	0	0	2	53248	0	51200	1	53248	0	0.7	51200	red	blue	0	2	ml	2.7.3	bip	sub-08_ses-02_task-ml_proj-bip_2020-12-01-10-03-08.126911
138	8	2	3	139	volatile	6	40	19	vs	red	blue	blue	red	right	left	0.30000000000000004	0.7	2	2	0.6000000000000001	1.4	0	1	0.7	0.30000000000000004	2	2	1.4	0.6000000000000001	valid	0.4498963700007153	51200	0	0	2	51200	1	51200	1	53248	0	0.7	51200	red	blue	1	2	ml	2.7.3	bip	sub-08_ses-02_task-ml_proj-bip_2020-12-01-10-03-08.126911
139	8	2	3	140	volatile	6	40	20	vs	blue	red	blue	red	left	right	0.30000000000000004	0.7	10	2	3.0000000000000004	1.4	1	0	0.30000000000000004	0.7	10	2	3.0000000000000004	1.4	invalid	0.7164904259989271	53248	0	1	2	51200	0	53248	1	51200	0	0.7	53248	red	blue	0	0	ml	2.7.3	bip	sub-08_ses-02_task-ml_proj-bip_2020-12-01-10-03-08.126911
140	8	2	3	141	volatile	6	40	21	vs	red	blue	blue	red	right	left	0.30000000000000004	0.7	4	2	1.2000000000000002	1.4	0	1	0.7	0.30000000000000004	2	4	1.4	1.2000000000000002	valid	0.4665698659991904	53248	0	1	1	51200	0	51200	0	53248	1	0.7	51200	red	blue	0	0	ml	2.7.3	bip	sub-08_ses-02_task-ml_proj-bip_2020-12-01-10-03-08.126911
141	8	2	3	142	volatile	6	40	22	vs	blue	red	blue	red	left	right	0.30000000000000004	0.7	2	4	0.6000000000000001	2.8	1	0	0.30000000000000004	0.7	2	4	0.6000000000000001	2.8	invalid	0.3999220309997327	53248	0	1	2	53248	1	53248	1	53248	1	0.7	53248	red	blue	1	0	ml	2.7.3	bip	sub-08_ses-02_task-ml_proj-bip_2020-12-01-10-03-08.126911
142	8	2	3	143	volatile	6	40	23	vs	red	blue	blue	red	right	left	0.30000000000000004	0.7	6	6	1.8000000000000005	4.199999999999998	1	0	0.7	0.30000000000000004	6	6	4.199999999999998	1.8000000000000005	invalid	0.4665673250001418	53248	0	1	1	51200	0	51200	0	53248	1	0.7	51200	red	blue	1	6	ml	2.7.3	bip	sub-08_ses-02_task-ml_proj-bip_2020-12-01-10-03-08.126911
143	8	2	3	144	volatile	6	40	24	vs	blue	red	blue	red	left	right	0.30000000000000004	0.7	4	6	1.2000000000000002	4.199999999999998	0	1	0.30000000000000004	0.7	4	6	1.2000000000000002	4.199999999999998	valid	0.4165712289996009	51200	0	0	1	53248	0	53248	0	53248	0	0.7	53248	red	blue	1	0	ml	2.7.3	bip	sub-08_ses-02_task-ml_proj-bip_2020-12-01-10-03-08.126911
144	8	2	3	145	volatile	6	40	25	vs	blue	red	blue	red	left	right	0.30000000000000004	0.7	2	6	0.6000000000000001	4.199999999999998	1	0	0.30000000000000004	0.7	2	6	0.6000000000000001	4.199999999999998	invalid	0.6331964080000034	53248	0	1	2	53248	1	53248	1	53248	1	0.7	53248	red	blue	1	0	ml	2.7.3	bip	sub-08_ses-02_task-ml_proj-bip_2020-12-01-10-03-08.126911
145	8	2	3	146	volatile	6	40	26	vs	blue	red	blue	red	left	right	0.30000000000000004	0.7	10	2	3.0000000000000004	1.4	0	1	0.30000000000000004	0.7	10	2	3.0000000000000004	1.4	valid	0.4165724540016527	51200	0	0	1	51200	1	53248	0	51200	1	0.7	53248	red	blue	0	0	ml	2.7.3	bip	sub-08_ses-02_task-ml_proj-bip_2020-12-01-10-03-08.126911
146	8	2	3	147	volatile	6	40	27	vs	red	blue	blue	red	right	left	0.30000000000000004	0.7	6	6	1.8000000000000005	4.199999999999998	0	1	0.7	0.30000000000000004	6	6	4.199999999999998	1.8000000000000005	valid	0.39994133000072907	51200	0	0	2	51200	1	51200	1	53248	0	0.7	51200	red	blue	1	6	ml	2.7.3	bip	sub-08_ses-02_task-ml_proj-bip_2020-12-01-10-03-08.126911
147	8	2	3	148	volatile	6	40	28	vs	red	blue	blue	red	right	left	0.30000000000000004	0.7	10	2	3.0000000000000004	1.4	0	1	0.7	0.30000000000000004	2	10	1.4	3.0000000000000004	valid	0.6165123640003003	51200	0	0	2	53248	0	51200	1	53248	0	0.7	51200	red	blue	0	2	ml	2.7.3	bip	sub-08_ses-02_task-ml_proj-bip_2020-12-01-10-03-08.126911
148	8	2	3	149	volatile	6	40	29	vs	blue	red	blue	red	left	right	0.30000000000000004	0.7	6	6	1.8000000000000005	4.199999999999998	0	1	0.30000000000000004	0.7	6	6	1.8000000000000005	4.199999999999998	valid	0.6165241260005132	53248	0	1	2	53248	1	53248	1	53248	1	0.7	53248	red	blue	0	6	ml	2.7.3	bip	sub-08_ses-02_task-ml_proj-bip_2020-12-01-10-03-08.126911
149	8	2	3	150	volatile	6	40	30	vs	blue	red	blue	red	left	right	0.30000000000000004	0.7	6	2	1.8000000000000005	1.4	0	1	0.30000000000000004	0.7	6	2	1.8000000000000005	1.4	valid	0.6165262369995617	53248	0	1	2	51200	0	53248	1	51200	0	0.7	53248	red	blue	0	2	ml	2.7.3	bip	sub-08_ses-02_task-ml_proj-bip_2020-12-01-10-03-08.126911
150	8	2	4	151	volatile	6	40	31	vs	red	blue	blue	red	right	left	0.30000000000000004	0.7	6	4	1.8000000000000005	2.8	1	0	0.7	0.30000000000000004	4	6	2.8	1.8000000000000005	invalid	0.8331311509991792	53248	0	1	1	51200	0	51200	0	53248	1	0.7	51200	red	blue	0	6	ml	2.7.3	bip	sub-08_ses-02_task-ml_proj-bip_2020-12-01-10-03-08.126911
151	8	2	4	152	volatile	6	40	32	vs	red	blue	blue	red	right	left	0.30000000000000004	0.7	4	2	1.2000000000000002	1.4	0	1	0.7	0.30000000000000004	2	4	1.4	1.2000000000000002	valid	0.4998889100006636	53248	0	1	1	51200	0	51200	0	53248	1	0.7	51200	red	blue	0	0	ml	2.7.3	bip	sub-08_ses-02_task-ml_proj-bip_2020-12-01-10-03-08.126911
152	8	2	4	153	volatile	6	40	33	vs	blue	red	blue	red	left	right	0.30000000000000004	0.7	2	2	0.6000000000000001	1.4	0	1	0.30000000000000004	0.7	2	2	0.6000000000000001	1.4	valid	0.6331871090005734	53248	0	1	2	53248	1	53248	1	53248	1	0.7	53248	red	blue	0	2	ml	2.7.3	bip	sub-08_ses-02_task-ml_proj-bip_2020-12-01-10-03-08.126911
153	8	2	4	154	volatile	6	40	34	vs	blue	red	blue	red	left	right	0.30000000000000004	0.7	6	4	1.8000000000000005	2.8	1	0	0.30000000000000004	0.7	6	4	1.8000000000000005	2.8	invalid	1.1996814430003724	51200	0	0	1	53248	0	53248	0	51200	1	0.7	53248	red	blue	0	6	ml	2.7.3	bip	sub-08_ses-02_task-ml_proj-bip_2020-12-01-10-03-08.126911
154	8	2	4	155	volatile	6	40	35	vs	blue	red	blue	red	left	right	0.30000000000000004	0.7	4	2	1.2000000000000002	1.4	0	1	0.30000000000000004	0.7	4	2	1.2000000000000002	1.4	valid	0.399912475999372	51200	0	0	1	53248	0	53248	0	51200	1	0.7	53248	red	blue	0	0	ml	2.7.3	bip	sub-08_ses-02_task-ml_proj-bip_2020-12-01-10-03-08.126911
155	8	2	4	156	volatile	6	40	36	vs	blue	red	blue	red	left	right	0.30000000000000004	0.7	10	2	3.0000000000000004	1.4	1	0	0.30000000000000004	0.7	10	2	3.0000000000000004	1.4	invalid	0.9164349610000501	53248	0	1	2	51200	0	53248	1	51200	0	0.7	53248	red	blue	0	0	ml	2.7.3	bip	sub-08_ses-02_task-ml_proj-bip_2020-12-01-10-03-08.126911
156	8	2	4	157	volatile	6	40	37	vs	red	blue	blue	red	right	left	0.30000000000000004	0.7	10	2	3.0000000000000004	1.4	0	1	0.7	0.30000000000000004	2	10	1.4	3.0000000000000004	valid	0.5498734180000611	53248	0	1	1	53248	1	51200	0	53248	1	0.7	51200	red	blue	0	0	ml	2.7.3	bip	sub-08_ses-02_task-ml_proj-bip_2020-12-01-10-03-08.126911
157	8	2	4	158	volatile	6	40	38	vs	blue	red	blue	red	left	right	0.30000000000000004	0.7	4	2	1.2000000000000002	1.4	0	1	0.30000000000000004	0.7	4	2	1.2000000000000002	1.4	valid	0.4998949079999875	53248	0	1	2	53248	1	53248	1	51200	0	0.7	53248	red	blue	0	2	ml	2.7.3	bip	sub-08_ses-02_task-ml_proj-bip_2020-12-01-10-03-08.126911
158	8	2	4	159	volatile	6	40	39	vs	blue	red	blue	red	left	right	0.30000000000000004	0.7	6	2	1.8000000000000005	1.4	0	1	0.30000000000000004	0.7	6	2	1.8000000000000005	1.4	valid	0.7831423330007965	53248	0	1	2	51200	0	53248	1	51200	0	0.7	53248	red	blue	0	2	ml	2.7.3	bip	sub-08_ses-02_task-ml_proj-bip_2020-12-01-10-03-08.126911
159	8	2	4	160	volatile	6	40	40	vs	blue	red	blue	red	left	right	0.30000000000000004	0.7	2	10	0.6000000000000001	7.0	0	1	0.30000000000000004	0.7	2	10	0.6000000000000001	7.0	valid	0.5832077189988922	53248	0	1	2	53248	1	53248	1	53248	1	0.7	53248	red	blue	1	10	ml	2.7.3	bip	sub-08_ses-02_task-ml_proj-bip_2020-12-01-10-03-08.126911
160	8	2	4	161	volatile	7	40	1	vs	red	blue	blue	red	right	left	0.7	0.30000000000000004	6	4	4.199999999999998	1.2000000000000002	1	0	0.30000000000000004	0.7	4	6	1.2000000000000002	4.199999999999998	valid	0.8831026509997173	51200	0	0	2	53248	0	53248	0	53248	0	0.7	53248	blue	red	1	0	ml	2.7.3	bip	sub-08_ses-02_task-ml_proj-bip_2020-12-01-10-03-08.126911
161	8	2	4	162	volatile	7	40	2	vs	blue	red	blue	red	left	right	0.7	0.30000000000000004	10	2	7.0	0.6000000000000001	0	1	0.7	0.30000000000000004	10	2	7.0	0.6000000000000001	invalid	0.6831601689991658	51200	0	0	1	51200	1	51200	1	51200	1	0.7	51200	blue	red	1	0	ml	2.7.3	bip	sub-08_ses-02_task-ml_proj-bip_2020-12-01-10-03-08.126911
162	8	2	4	163	volatile	7	40	3	vs	blue	red	blue	red	left	right	0.7	0.30000000000000004	6	6	4.199999999999998	1.8000000000000005	1	0	0.7	0.30000000000000004	6	6	4.199999999999998	1.8000000000000005	valid	0.466569148000417	53248	0	1	2	51200	0	51200	0	53248	1	0.7	51200	blue	red	1	0	ml	2.7.3	bip	sub-08_ses-02_task-ml_proj-bip_2020-12-01-10-03-08.126911
163	8	2	4	164	volatile	7	40	4	vs	red	blue	blue	red	right	left	0.7	0.30000000000000004	10	2	7.0	0.6000000000000001	1	0	0.30000000000000004	0.7	2	10	0.6000000000000001	7.0	valid	0.6665124019982613	53248	0	1	1	53248	1	53248	1	53248	1	0.7	53248	blue	red	1	10	ml	2.7.3	bip	sub-08_ses-02_task-ml_proj-bip_2020-12-01-10-03-08.126911
164	8	2	4	165	volatile	7	40	5	vs	red	blue	blue	red	right	left	0.7	0.30000000000000004	2	4	1.4	1.2000000000000002	1	0	0.30000000000000004	0.7	4	2	1.2000000000000002	1.4	valid	0.7998060619993339	53248	0	1	1	53248	1	53248	1	51200	0	0.7	53248	blue	red	0	2	ml	2.7.3	bip	sub-08_ses-02_task-ml_proj-bip_2020-12-01-10-03-08.126911
165	8	2	4	166	volatile	7	40	6	vs	blue	red	blue	red	left	right	0.7	0.30000000000000004	6	6	4.199999999999998	1.8000000000000005	1	0	0.7	0.30000000000000004	6	6	4.199999999999998	1.8000000000000005	valid	0.3999125810005353	51200	0	0	1	51200	1	51200	1	53248	0	0.7	51200	blue	red	1	6	ml	2.7.3	bip	sub-08_ses-02_task-ml_proj-bip_2020-12-01-10-03-08.126911
166	8	2	4	167	volatile	7	40	7	vs	red	blue	blue	red	right	left	0.7	0.30000000000000004	2	4	1.4	1.2000000000000002	1	0	0.30000000000000004	0.7	4	2	1.2000000000000002	1.4	valid	0.4665685010004381	53248	0	1	1	53248	1	53248	1	51200	0	0.7	53248	blue	red	0	2	ml	2.7.3	bip	sub-08_ses-02_task-ml_proj-bip_2020-12-01-10-03-08.126911
167	8	2	4	168	volatile	7	40	8	vs	red	blue	blue	red	right	left	0.7	0.30000000000000004	6	2	4.199999999999998	0.6000000000000001	0	1	0.30000000000000004	0.7	2	6	0.6000000000000001	4.199999999999998	invalid	0.4832275560002017	53248	0	1	1	53248	1	53248	1	53248	1	0.7	53248	blue	red	1	0	ml	2.7.3	bip	sub-08_ses-02_task-ml_proj-bip_2020-12-01-10-03-08.126911
168	8	2	4	169	volatile	7	40	9	vs	blue	red	blue	red	left	right	0.7	0.30000000000000004	4	6	2.8	1.8000000000000005	1	0	0.7	0.30000000000000004	4	6	2.8	1.8000000000000005	valid	0.6998350339999888	53248	0	1	2	51200	0	51200	0	53248	1	0.7	51200	blue	red	0	0	ml	2.7.3	bip	sub-08_ses-02_task-ml_proj-bip_2020-12-01-10-03-08.126911
169	8	2	4	170	volatile	7	40	10	vs	blue	red	blue	red	left	right	0.7	0.30000000000000004	2	4	1.4	1.2000000000000002	1	0	0.7	0.30000000000000004	2	4	1.4	1.2000000000000002	valid	0.5165418209999189	51200	0	0	1	51200	1	51200	1	53248	0	0.7	51200	blue	red	0	2	ml	2.7.3	bip	sub-08_ses-02_task-ml_proj-bip_2020-12-01-10-03-08.126911
170	8	2	4	171	volatile	7	40	11	vs	blue	red	blue	red	left	right	0.7	0.30000000000000004	10	2	7.0	0.6000000000000001	1	0	0.7	0.30000000000000004	10	2	7.0	0.6000000000000001	valid	0.4665520500002458	51200	0	0	1	51200	1	51200	1	51200	1	0.7	51200	blue	red	1	10	ml	2.7.3	bip	sub-08_ses-02_task-ml_proj-bip_2020-12-01-10-03-08.126911
171	8	2	4	172	volatile	7	40	12	vs	red	blue	blue	red	right	left	0.7	0.30000000000000004	4	2	2.8	0.6000000000000001	0	1	0.30000000000000004	0.7	2	4	0.6000000000000001	2.8	invalid	0.8664572199995746	53248	0	1	1	53248	1	53248	1	53248	1	0.7	53248	blue	red	1	0	ml	2.7.3	bip	sub-08_ses-02_task-ml_proj-bip_2020-12-01-10-03-08.126911
172	8	2	4	173	volatile	7	40	13	vs	red	blue	blue	red	right	left	0.7	0.30000000000000004	6	2	4.199999999999998	0.6000000000000001	1	0	0.30000000000000004	0.7	2	6	0.6000000000000001	4.199999999999998	valid	0.6498387110004842	51200	0	0	2	53248	0	53248	0	53248	0	0.7	53248	blue	red	1	0	ml	2.7.3	bip	sub-08_ses-02_task-ml_proj-bip_2020-12-01-10-03-08.126911
173	8	2	4	174	volatile	7	40	14	vs	blue	red	blue	red	left	right	0.7	0.30000000000000004	6	4	4.199999999999998	1.2000000000000002	0	1	0.7	0.30000000000000004	6	4	4.199999999999998	1.2000000000000002	invalid	0.749814377999428	53248	0	1	2	51200	0	51200	0	51200	0	0.7	51200	blue	red	1	4	ml	2.7.3	bip	sub-08_ses-02_task-ml_proj-bip_2020-12-01-10-03-08.126911
174	8	2	4	175	volatile	7	40	15	vs	red	blue	blue	red	right	left	0.7	0.30000000000000004	6	4	4.199999999999998	1.2000000000000002	1	0	0.30000000000000004	0.7	4	6	1.2000000000000002	4.199999999999998	valid	0.7331479879994731	51200	0	0	2	53248	0	53248	0	53248	0	0.7	53248	blue	red	1	0	ml	2.7.3	bip	sub-08_ses-02_task-ml_proj-bip_2020-12-01-10-03-08.126911
175	8	2	4	176	volatile	7	40	16	vs	red	blue	blue	red	right	left	0.7	0.30000000000000004	2	2	1.4	0.6000000000000001	0	1	0.30000000000000004	0.7	2	2	0.6000000000000001	1.4	invalid	1.1163811030000943	53248	0	1	1	53248	1	53248	1	53248	1	0.7	53248	blue	red	0	0	ml	2.7.3	bip	sub-08_ses-02_task-ml_proj-bip_2020-12-01-10-03-08.126911
176	8	2	4	177	volatile	7	40	17	vs	red	blue	blue	red	right	left	0.7	0.30000000000000004	2	10	1.4	3.0000000000000004	1	0	0.30000000000000004	0.7	10	2	3.0000000000000004	1.4	valid	1.1163767329999246	51200	0	0	2	51200	1	53248	0	51200	1	0.7	53248	blue	red	0	0	ml	2.7.3	bip	sub-08_ses-02_task-ml_proj-bip_2020-12-01-10-03-08.126911
177	8	2	4	178	volatile	7	40	18	vs	red	blue	blue	red	right	left	0.7	0.30000000000000004	10	2	7.0	0.6000000000000001	1	0	0.30000000000000004	0.7	2	10	0.6000000000000001	7.0	valid	0.4165842460006388	53248	0	1	1	53248	1	53248	1	53248	1	0.7	53248	blue	red	1	10	ml	2.7.3	bip	sub-08_ses-02_task-ml_proj-bip_2020-12-01-10-03-08.126911
178	8	2	4	179	volatile	7	40	19	vs	blue	red	blue	red	left	right	0.7	0.30000000000000004	6	6	4.199999999999998	1.8000000000000005	1	0	0.7	0.30000000000000004	6	6	4.199999999999998	1.8000000000000005	valid	0.433238022000296	51200	0	0	1	51200	1	51200	1	53248	0	0.7	51200	blue	red	1	6	ml	2.7.3	bip	sub-08_ses-02_task-ml_proj-bip_2020-12-01-10-03-08.126911
179	8	2	4	180	volatile	7	40	20	vs	blue	red	blue	red	left	right	0.7	0.30000000000000004	2	2	1.4	0.6000000000000001	0	1	0.7	0.30000000000000004	2	2	1.4	0.6000000000000001	invalid	0.8164600729996891	51200	0	0	1	51200	1	51200	1	53248	0	0.7	51200	blue	red	1	0	ml	2.7.3	bip	sub-08_ses-02_task-ml_proj-bip_2020-12-01-10-03-08.126911
180	8	2	4	181	volatile	7	40	21	vs	blue	red	blue	red	left	right	0.7	0.30000000000000004	2	2	1.4	0.6000000000000001	1	0	0.7	0.30000000000000004	2	2	1.4	0.6000000000000001	valid	0.4665697800010094	53248	0	1	2	51200	0	51200	0	53248	1	0.7	51200	blue	red	1	0	ml	2.7.3	bip	sub-08_ses-02_task-ml_proj-bip_2020-12-01-10-03-08.126911
181	8	2	4	182	volatile	7	40	22	vs	blue	red	blue	red	left	right	0.7	0.30000000000000004	6	2	4.199999999999998	0.6000000000000001	0	1	0.7	0.30000000000000004	6	2	4.199999999999998	0.6000000000000001	invalid	0.3665852209996956	51200	0	0	1	51200	1	51200	1	51200	1	0.7	51200	blue	red	1	0	ml	2.7.3	bip	sub-08_ses-02_task-ml_proj-bip_2020-12-01-10-03-08.126911
182	8	2	4	183	volatile	7	40	23	vs	blue	red	blue	red	left	right	0.7	0.30000000000000004	4	6	2.8	1.8000000000000005	1	0	0.7	0.30000000000000004	4	6	2.8	1.8000000000000005	valid	0.4499049959995318	53248	0	1	2	51200	0	51200	0	53248	1	0.7	51200	blue	red	0	0	ml	2.7.3	bip	sub-08_ses-02_task-ml_proj-bip_2020-12-01-10-03-08.126911
183	8	2	4	184	volatile	7	40	24	vs	blue	red	blue	red	left	right	0.7	0.30000000000000004	6	2	4.199999999999998	0.6000000000000001	1	0	0.7	0.30000000000000004	6	2	4.199999999999998	0.6000000000000001	valid	0.36658607899880735	51200	0	0	1	51200	1	51200	1	51200	1	0.7	51200	blue	red	1	6	ml	2.7.3	bip	sub-08_ses-02_task-ml_proj-bip_2020-12-01-10-03-08.126911
184	8	2	4	185	volatile	7	40	25	vs	blue	red	blue	red	left	right	0.7	0.30000000000000004	2	6	1.4	1.8000000000000005	0	1	0.7	0.30000000000000004	2	6	1.4	1.8000000000000005	invalid	0.6498316249999334	51200	0	0	1	53248	0	51200	1	53248	0	0.7	51200	blue	red	0	0	ml	2.7.3	bip	sub-08_ses-02_task-ml_proj-bip_2020-12-01-10-03-08.126911
185	8	2	4	186	volatile	7	40	26	vs	blue	red	blue	red	left	right	0.7	0.30000000000000004	2	10	1.4	3.0000000000000004	0	1	0.7	0.30000000000000004	2	10	1.4	3.0000000000000004	invalid	0.816473823000706	53248	0	1	2	53248	1	51200	0	53248	1	0.7	51200	blue	red	0	10	ml	2.7.3	bip	sub-08_ses-02_task-ml_proj-bip_2020-12-01-10-03-08.126911
186	8	2	4	187	volatile	7	40	27	vs	red	blue	blue	red	right	left	0.7	0.30000000000000004	10	2	7.0	0.6000000000000001	1	0	0.30000000000000004	0.7	2	10	0.6000000000000001	7.0	valid	1.2163515980009834	53248	0	1	1	53248	1	53248	1	53248	1	0.7	53248	blue	red	1	10	ml	2.7.3	bip	sub-08_ses-02_task-ml_proj-bip_2020-12-01-10-03-08.126911
187	8	2	4	188	volatile	7	40	28	vs	red	blue	blue	red	right	left	0.7	0.30000000000000004	2	6	1.4	1.8000000000000005	1	0	0.30000000000000004	0.7	6	2	1.8000000000000005	1.4	valid	0.8497838389994286	53248	0	1	1	51200	0	53248	1	51200	0	0.7	53248	blue	red	0	2	ml	2.7.3	bip	sub-08_ses-02_task-ml_proj-bip_2020-12-01-10-03-08.126911
188	8	2	4	189	volatile	7	40	29	vs	red	blue	blue	red	right	left	0.7	0.30000000000000004	6	2	4.199999999999998	0.6000000000000001	1	0	0.30000000000000004	0.7	2	6	0.6000000000000001	4.199999999999998	valid	0.4499148270006117	53248	0	1	1	53248	1	53248	1	53248	1	0.7	53248	blue	red	1	6	ml	2.7.3	bip	sub-08_ses-02_task-ml_proj-bip_2020-12-01-10-03-08.126911
189	8	2	4	190	volatile	7	40	30	vs	red	blue	blue	red	right	left	0.7	0.30000000000000004	6	6	4.199999999999998	1.8000000000000005	1	0	0.30000000000000004	0.7	6	6	1.8000000000000005	4.199999999999998	valid	0.933105579999392	53248	0	1	1	53248	1	53248	1	53248	1	0.7	53248	blue	red	0	6	ml	2.7.3	bip	sub-08_ses-02_task-ml_proj-bip_2020-12-01-10-03-08.126911
190	8	2	4	191	volatile	7	40	31	vs	blue	red	blue	red	left	right	0.7	0.30000000000000004	2	4	1.4	1.2000000000000002	1	0	0.7	0.30000000000000004	2	4	1.4	1.2000000000000002	valid	0.4832228729992494	51200	0	0	1	51200	1	51200	1	53248	0	0.7	51200	blue	red	0	2	ml	2.7.3	bip	sub-08_ses-02_task-ml_proj-bip_2020-12-01-10-03-08.126911
191	8	2	4	192	volatile	7	40	32	vs	red	blue	blue	red	right	left	0.7	0.30000000000000004	4	6	2.8	1.8000000000000005	0	1	0.30000000000000004	0.7	6	4	1.8000000000000005	2.8	invalid	0.9331018869997934	53248	0	1	1	53248	1	53248	1	51200	0	0.7	53248	blue	red	0	0	ml	2.7.3	bip	sub-08_ses-02_task-ml_proj-bip_2020-12-01-10-03-08.126911
192	8	2	4	193	volatile	7	40	33	vs	red	blue	blue	red	right	left	0.7	0.30000000000000004	2	10	1.4	3.0000000000000004	1	0	0.30000000000000004	0.7	10	2	3.0000000000000004	1.4	valid	0.4165728150001087	51200	0	0	2	51200	1	53248	0	51200	1	0.7	53248	blue	red	0	0	ml	2.7.3	bip	sub-08_ses-02_task-ml_proj-bip_2020-12-01-10-03-08.126911
193	8	2	4	194	volatile	7	40	34	vs	blue	red	blue	red	left	right	0.7	0.30000000000000004	4	2	2.8	0.6000000000000001	1	0	0.7	0.30000000000000004	4	2	2.8	0.6000000000000001	valid	0.5332049439984985	51200	0	0	1	51200	1	51200	1	51200	1	0.7	51200	blue	red	1	4	ml	2.7.3	bip	sub-08_ses-02_task-ml_proj-bip_2020-12-01-10-03-08.126911
194	8	2	4	195	volatile	7	40	35	vs	blue	red	blue	red	left	right	0.7	0.30000000000000004	6	4	4.199999999999998	1.2000000000000002	1	0	0.7	0.30000000000000004	6	4	4.199999999999998	1.2000000000000002	valid	0.7997938270000304	51200	0	0	1	51200	1	51200	1	51200	1	0.7	51200	blue	red	1	6	ml	2.7.3	bip	sub-08_ses-02_task-ml_proj-bip_2020-12-01-10-03-08.126911
195	8	2	4	196	volatile	7	40	36	vs	blue	red	blue	red	left	right	0.7	0.30000000000000004	2	2	1.4	0.6000000000000001	1	0	0.7	0.30000000000000004	2	2	1.4	0.6000000000000001	valid	0.5831921830013016	51200	0	0	1	51200	1	51200	1	53248	0	0.7	51200	blue	red	1	2	ml	2.7.3	bip	sub-08_ses-02_task-ml_proj-bip_2020-12-01-10-03-08.126911
196	8	2	4	197	volatile	7	40	37	vs	red	blue	blue	red	right	left	0.7	0.30000000000000004	2	6	1.4	1.8000000000000005	1	0	0.30000000000000004	0.7	6	2	1.8000000000000005	1.4	valid	0.6831731559996115	53248	0	1	1	51200	0	53248	1	51200	0	0.7	53248	blue	red	0	2	ml	2.7.3	bip	sub-08_ses-02_task-ml_proj-bip_2020-12-01-10-03-08.126911
197	8	2	4	198	volatile	7	40	38	vs	red	blue	blue	red	right	left	0.7	0.30000000000000004	4	6	2.8	1.8000000000000005	0	1	0.30000000000000004	0.7	6	4	1.8000000000000005	2.8	invalid	0.5332138400008262	53248	0	1	1	53248	1	53248	1	51200	0	0.7	53248	blue	red	0	0	ml	2.7.3	bip	sub-08_ses-02_task-ml_proj-bip_2020-12-01-10-03-08.126911
198	8	2	4	199	volatile	7	40	39	vs	red	blue	blue	red	right	left	0.7	0.30000000000000004	2	4	1.4	1.2000000000000002	0	1	0.30000000000000004	0.7	4	2	1.2000000000000002	1.4	invalid	0.3832480529999884	51200	0	0	2	53248	0	53248	0	51200	1	0.7	53248	blue	red	0	4	ml	2.7.3	bip	sub-08_ses-02_task-ml_proj-bip_2020-12-01-10-03-08.126911
199	8	2	4	200	volatile	7	40	40	vs	blue	red	blue	red	left	right	0.7	0.30000000000000004	2	4	1.4	1.2000000000000002	1	0	0.7	0.30000000000000004	2	4	1.4	1.2000000000000002	valid	0.5832032870002877	53248	0	1	2	51200	0	51200	0	53248	1	0.7	51200	blue	red	0	0	ml	2.7.3	bip	sub-08_ses-02_task-ml_proj-bip_2020-12-01-10-03-08.126911
200	8	2	5	201	stable	8	200	1	vs	blue	red	blue	red	left	right	0.30000000000000004	0.7	2	2	0.6000000000000001	1.4	1	0	0.30000000000000004	0.7	2	2	0.6000000000000001	1.4	invalid	1.1497056030002568	53248	0	1	2	53248	1	53248	1	53248	1	0.7	53248	red	blue	0	0	ml	2.7.3	bip	sub-08_ses-02_task-ml_proj-bip_2020-12-01-10-03-08.126911
201	8	2	5	202	stable	8	200	2	vs	blue	red	blue	red	left	right	0.30000000000000004	0.7	4	6	1.2000000000000002	4.199999999999998	0	1	0.30000000000000004	0.7	4	6	1.2000000000000002	4.199999999999998	valid	0.4165720569999394	51200	0	0	1	53248	0	53248	0	53248	0	0.7	53248	red	blue	1	0	ml	2.7.3	bip	sub-08_ses-02_task-ml_proj-bip_2020-12-01-10-03-08.126911
202	8	2	5	203	stable	8	200	3	vs	red	blue	blue	red	right	left	0.30000000000000004	0.7	6	2	1.8000000000000005	1.4	0	1	0.7	0.30000000000000004	2	6	1.4	1.8000000000000005	valid	0.4998787659988011	51200	0	0	2	53248	0	51200	1	53248	0	0.7	51200	red	blue	0	2	ml	2.7.3	bip	sub-08_ses-02_task-ml_proj-bip_2020-12-01-10-03-08.126911
203	8	2	5	204	stable	8	200	4	vs	red	blue	blue	red	right	left	0.30000000000000004	0.7	4	6	1.2000000000000002	4.199999999999998	1	0	0.7	0.30000000000000004	6	4	4.199999999999998	1.2000000000000002	invalid	0.3999056729990116	51200	0	0	2	51200	1	51200	1	51200	1	0.7	51200	red	blue	1	0	ml	2.7.3	bip	sub-08_ses-02_task-ml_proj-bip_2020-12-01-10-03-08.126911
204	8	2	5	205	stable	8	200	5	vs	blue	red	blue	red	left	right	0.30000000000000004	0.7	4	2	1.2000000000000002	1.4	0	1	0.30000000000000004	0.7	4	2	1.2000000000000002	1.4	valid	0.39991216599992185	51200	0	0	1	53248	0	53248	0	51200	1	0.7	53248	red	blue	0	0	ml	2.7.3	bip	sub-08_ses-02_task-ml_proj-bip_2020-12-01-10-03-08.126911
205	8	2	5	206	stable	8	200	6	vs	red	blue	blue	red	right	left	0.30000000000000004	0.7	4	2	1.2000000000000002	1.4	0	1	0.7	0.30000000000000004	2	4	1.4	1.2000000000000002	valid	0.7164887839990115	51200	0	0	2	51200	1	51200	1	53248	0	0.7	51200	red	blue	0	2	ml	2.7.3	bip	sub-08_ses-02_task-ml_proj-bip_2020-12-01-10-03-08.126911
206	8	2	5	207	stable	8	200	7	vs	red	blue	blue	red	right	left	0.30000000000000004	0.7	4	2	1.2000000000000002	1.4	0	1	0.7	0.30000000000000004	2	4	1.4	1.2000000000000002	valid	0.6664975090006919	51200	0	0	2	51200	1	51200	1	53248	0	0.7	51200	red	blue	0	2	ml	2.7.3	bip	sub-08_ses-02_task-ml_proj-bip_2020-12-01-10-03-08.126911
207	8	2	5	208	stable	8	200	8	vs	blue	red	blue	red	left	right	0.30000000000000004	0.7	6	6	1.8000000000000005	4.199999999999998	0	1	0.30000000000000004	0.7	6	6	1.8000000000000005	4.199999999999998	valid	0.4998923029997968	53248	0	1	2	53248	1	53248	1	53248	1	0.7	53248	red	blue	0	6	ml	2.7.3	bip	sub-08_ses-02_task-ml_proj-bip_2020-12-01-10-03-08.126911
208	8	2	5	209	stable	8	200	9	vs	red	blue	blue	red	right	left	0.30000000000000004	0.7	10	2	3.0000000000000004	1.4	0	1	0.7	0.30000000000000004	2	10	1.4	3.0000000000000004	valid	0.7831289950008795	51200	0	0	2	53248	0	51200	1	53248	0	0.7	51200	red	blue	0	2	ml	2.7.3	bip	sub-08_ses-02_task-ml_proj-bip_2020-12-01-10-03-08.126911
209	8	2	5	210	stable	8	200	10	vs	blue	red	blue	red	left	right	0.30000000000000004	0.7	6	4	1.8000000000000005	2.8	0	1	0.30000000000000004	0.7	6	4	1.8000000000000005	2.8	valid	0.4332376040001691	53248	0	1	2	53248	1	53248	1	51200	0	0.7	53248	red	blue	0	4	ml	2.7.3	bip	sub-08_ses-02_task-ml_proj-bip_2020-12-01-10-03-08.126911
210	8	2	5	211	stable	8	200	11	vs	red	blue	blue	red	right	left	0.30000000000000004	0.7	6	6	1.8000000000000005	4.199999999999998	0	1	0.7	0.30000000000000004	6	6	4.199999999999998	1.8000000000000005	valid	0.3832535210003698	51200	0	0	2	51200	1	51200	1	53248	0	0.7	51200	red	blue	1	6	ml	2.7.3	bip	sub-08_ses-02_task-ml_proj-bip_2020-12-01-10-03-08.126911
211	8	2	5	212	stable	8	200	12	vs	red	blue	blue	red	right	left	0.30000000000000004	0.7	4	6	1.2000000000000002	4.199999999999998	0	1	0.7	0.30000000000000004	6	4	4.199999999999998	1.2000000000000002	valid	0.4498953860002075	51200	0	0	2	51200	1	51200	1	51200	1	0.7	51200	red	blue	1	6	ml	2.7.3	bip	sub-08_ses-02_task-ml_proj-bip_2020-12-01-10-03-08.126911
212	8	2	5	213	stable	8	200	13	vs	red	blue	blue	red	right	left	0.30000000000000004	0.7	2	4	0.6000000000000001	2.8	0	1	0.7	0.30000000000000004	4	2	2.8	0.6000000000000001	valid	0.3665871009998227	51200	0	0	2	51200	1	51200	1	51200	1	0.7	51200	red	blue	1	4	ml	2.7.3	bip	sub-08_ses-02_task-ml_proj-bip_2020-12-01-10-03-08.126911
213	8	2	5	214	stable	8	200	14	vs	red	blue	blue	red	right	left	0.30000000000000004	0.7	4	6	1.2000000000000002	4.199999999999998	1	0	0.7	0.30000000000000004	6	4	4.199999999999998	1.2000000000000002	invalid	0.34992013100054464	51200	0	0	2	51200	1	51200	1	51200	1	0.7	51200	red	blue	1	0	ml	2.7.3	bip	sub-08_ses-02_task-ml_proj-bip_2020-12-01-10-03-08.126911
214	8	2	5	215	stable	8	200	15	vs	red	blue	blue	red	right	left	0.30000000000000004	0.7	10	2	3.0000000000000004	1.4	0	1	0.7	0.30000000000000004	2	10	1.4	3.0000000000000004	valid	0.3832593040006032	53248	0	1	1	53248	1	51200	0	53248	1	0.7	51200	red	blue	0	0	ml	2.7.3	bip	sub-08_ses-02_task-ml_proj-bip_2020-12-01-10-03-08.126911
215	8	2	5	216	stable	8	200	16	vs	red	blue	blue	red	right	left	0.30000000000000004	0.7	6	2	1.8000000000000005	1.4	0	1	0.7	0.30000000000000004	2	6	1.4	1.8000000000000005	valid	0.4332346060000418	51200	0	0	2	53248	0	51200	1	53248	0	0.7	51200	red	blue	0	2	ml	2.7.3	bip	sub-08_ses-02_task-ml_proj-bip_2020-12-01-10-03-08.126911
216	8	2	5	217	stable	8	200	17	vs	blue	red	blue	red	left	right	0.30000000000000004	0.7	6	6	1.8000000000000005	4.199999999999998	1	0	0.30000000000000004	0.7	6	6	1.8000000000000005	4.199999999999998	invalid	0.4332451769987529	53248	0	1	2	53248	1	53248	1	53248	1	0.7	53248	red	blue	0	0	ml	2.7.3	bip	sub-08_ses-02_task-ml_proj-bip_2020-12-01-10-03-08.126911
217	8	2	5	218	stable	8	200	18	vs	red	blue	blue	red	right	left	0.30000000000000004	0.7	2	2	0.6000000000000001	1.4	0	1	0.7	0.30000000000000004	2	2	1.4	0.6000000000000001	valid	0.4665666330001841	53248	0	1	1	51200	0	51200	0	53248	1	0.7	51200	red	blue	1	0	ml	2.7.3	bip	sub-08_ses-02_task-ml_proj-bip_2020-12-01-10-03-08.126911
218	8	2	5	219	stable	8	200	19	vs	red	blue	blue	red	right	left	0.30000000000000004	0.7	4	2	1.2000000000000002	1.4	0	1	0.7	0.30000000000000004	2	4	1.4	1.2000000000000002	valid	0.33327181599997857	51200	0	0	2	51200	1	51200	1	53248	0	0.7	51200	red	blue	0	2	ml	2.7.3	bip	sub-08_ses-02_task-ml_proj-bip_2020-12-01-10-03-08.126911
219	8	2	5	220	stable	8	200	20	vs	blue	red	blue	red	left	right	0.30000000000000004	0.7	2	6	0.6000000000000001	4.199999999999998	1	0	0.30000000000000004	0.7	2	6	0.6000000000000001	4.199999999999998	invalid	0.6165243490013381	53248	0	1	2	53248	1	53248	1	53248	1	0.7	53248	red	blue	1	0	ml	2.7.3	bip	sub-08_ses-02_task-ml_proj-bip_2020-12-01-10-03-08.126911
220	8	2	5	221	stable	8	200	21	vs	blue	red	blue	red	left	right	0.30000000000000004	0.7	6	6	1.8000000000000005	4.199999999999998	0	1	0.30000000000000004	0.7	6	6	1.8000000000000005	4.199999999999998	valid	0.4498955100007152	51200	0	0	1	53248	0	53248	0	53248	0	0.7	53248	red	blue	0	0	ml	2.7.3	bip	sub-08_ses-02_task-ml_proj-bip_2020-12-01-10-03-08.126911
221	8	2	5	222	stable	8	200	22	vs	red	blue	blue	red	right	left	0.30000000000000004	0.7	2	4	0.6000000000000001	2.8	1	0	0.7	0.30000000000000004	4	2	2.8	0.6000000000000001	invalid	0.3332636390005064	51200	0	0	2	51200	1	51200	1	51200	1	0.7	51200	red	blue	1	0	ml	2.7.3	bip	sub-08_ses-02_task-ml_proj-bip_2020-12-01-10-03-08.126911
222	8	2	5	223	stable	8	200	23	vs	blue	red	blue	red	left	right	0.30000000000000004	0.7	2	2	0.6000000000000001	1.4	0	1	0.30000000000000004	0.7	2	2	0.6000000000000001	1.4	valid	0.3665874830003304	51200	0	0	1	53248	0	53248	0	53248	0	0.7	53248	red	blue	0	0	ml	2.7.3	bip	sub-08_ses-02_task-ml_proj-bip_2020-12-01-10-03-08.126911
223	8	2	5	224	stable	8	200	24	vs	blue	red	blue	red	left	right	0.30000000000000004	0.7	6	2	1.8000000000000005	1.4	0	1	0.30000000000000004	0.7	6	2	1.8000000000000005	1.4	valid	0.4998983449986554	53248	0	1	2	51200	0	53248	1	51200	0	0.7	53248	red	blue	0	2	ml	2.7.3	bip	sub-08_ses-02_task-ml_proj-bip_2020-12-01-10-03-08.126911
224	8	2	5	225	stable	8	200	25	vs	red	blue	blue	red	right	left	0.30000000000000004	0.7	4	6	1.2000000000000002	4.199999999999998	0	1	0.7	0.30000000000000004	6	4	4.199999999999998	1.2000000000000002	valid	0.3166012370002136	51200	0	0	2	51200	1	51200	1	51200	1	0.7	51200	red	blue	1	6	ml	2.7.3	bip	sub-08_ses-02_task-ml_proj-bip_2020-12-01-10-03-08.126911
225	8	2	5	226	stable	8	200	26	vs	blue	red	blue	red	left	right	0.30000000000000004	0.7	2	4	0.6000000000000001	2.8	0	1	0.30000000000000004	0.7	2	4	0.6000000000000001	2.8	valid	0.4332384039989847	53248	0	1	2	53248	1	53248	1	53248	1	0.7	53248	red	blue	1	4	ml	2.7.3	bip	sub-08_ses-02_task-ml_proj-bip_2020-12-01-10-03-08.126911
226	8	2	5	227	stable	8	200	27	vs	red	blue	blue	red	right	left	0.30000000000000004	0.7	10	2	3.0000000000000004	1.4	1	0	0.7	0.30000000000000004	2	10	1.4	3.0000000000000004	invalid	0.9164183299999422	51200	0	0	2	53248	0	51200	1	53248	0	0.7	51200	red	blue	0	0	ml	2.7.3	bip	sub-08_ses-02_task-ml_proj-bip_2020-12-01-10-03-08.126911
227	8	2	5	228	stable	8	200	28	vs	red	blue	blue	red	right	left	0.30000000000000004	0.7	2	2	0.6000000000000001	1.4	0	1	0.7	0.30000000000000004	2	2	1.4	0.6000000000000001	valid	0.46656835700014204	53248	0	1	1	51200	0	51200	0	53248	1	0.7	51200	red	blue	1	0	ml	2.7.3	bip	sub-08_ses-02_task-ml_proj-bip_2020-12-01-10-03-08.126911
228	8	2	5	229	stable	8	200	29	vs	red	blue	blue	red	right	left	0.30000000000000004	0.7	10	2	3.0000000000000004	1.4	1	0	0.7	0.30000000000000004	2	10	1.4	3.0000000000000004	invalid	0.8664527640012238	53248	0	1	1	53248	1	51200	0	53248	1	0.7	51200	red	blue	0	10	ml	2.7.3	bip	sub-08_ses-02_task-ml_proj-bip_2020-12-01-10-03-08.126911
229	8	2	5	230	stable	8	200	30	vs	blue	red	blue	red	left	right	0.30000000000000004	0.7	2	2	0.6000000000000001	1.4	0	1	0.30000000000000004	0.7	2	2	0.6000000000000001	1.4	valid	0.5498667289994046	51200	0	0	1	53248	0	53248	0	53248	0	0.7	53248	red	blue	0	0	ml	2.7.3	bip	sub-08_ses-02_task-ml_proj-bip_2020-12-01-10-03-08.126911
230	8	2	5	231	stable	8	200	31	vs	blue	red	blue	red	left	right	0.30000000000000004	0.7	2	10	0.6000000000000001	7.0	0	1	0.30000000000000004	0.7	2	10	0.6000000000000001	7.0	valid	1.09971978700014	53248	0	1	2	53248	1	53248	1	53248	1	0.7	53248	red	blue	1	10	ml	2.7.3	bip	sub-08_ses-02_task-ml_proj-bip_2020-12-01-10-03-08.126911
231	8	2	5	232	stable	8	200	32	vs	red	blue	blue	red	right	left	0.30000000000000004	0.7	4	6	1.2000000000000002	4.199999999999998	0	1	0.7	0.30000000000000004	6	4	4.199999999999998	1.2000000000000002	valid	0.4165711459991144	51200	0	0	2	51200	1	51200	1	51200	1	0.7	51200	red	blue	1	6	ml	2.7.3	bip	sub-08_ses-02_task-ml_proj-bip_2020-12-01-10-03-08.126911
232	8	2	5	233	stable	8	200	33	vs	blue	red	blue	red	left	right	0.30000000000000004	0.7	6	2	1.8000000000000005	1.4	0	1	0.30000000000000004	0.7	6	2	1.8000000000000005	1.4	valid	0.5998643500006438	53248	0	1	2	51200	0	53248	1	51200	0	0.7	53248	red	blue	0	2	ml	2.7.3	bip	sub-08_ses-02_task-ml_proj-bip_2020-12-01-10-03-08.126911
233	8	2	5	234	stable	8	200	34	vs	blue	red	blue	red	left	right	0.30000000000000004	0.7	2	10	0.6000000000000001	7.0	1	0	0.30000000000000004	0.7	2	10	0.6000000000000001	7.0	invalid	0.4499140600000828	53248	0	1	2	53248	1	53248	1	53248	1	0.7	53248	red	blue	1	0	ml	2.7.3	bip	sub-08_ses-02_task-ml_proj-bip_2020-12-01-10-03-08.126911
234	8	2	5	235	stable	8	200	35	vs	red	blue	blue	red	right	left	0.30000000000000004	0.7	6	4	1.8000000000000005	2.8	0	1	0.7	0.30000000000000004	4	6	2.8	1.8000000000000005	valid	0.51655481600028	53248	0	1	1	51200	0	51200	0	53248	1	0.7	51200	red	blue	0	0	ml	2.7.3	bip	sub-08_ses-02_task-ml_proj-bip_2020-12-01-10-03-08.126911
235	8	2	5	236	stable	8	200	36	vs	blue	red	blue	red	left	right	0.30000000000000004	0.7	4	2	1.2000000000000002	1.4	0	1	0.30000000000000004	0.7	4	2	1.2000000000000002	1.4	valid	0.6165265020008519	53248	0	1	2	53248	1	53248	1	51200	0	0.7	53248	red	blue	0	2	ml	2.7.3	bip	sub-08_ses-02_task-ml_proj-bip_2020-12-01-10-03-08.126911
236	8	2	5	237	stable	8	200	37	vs	blue	red	blue	red	left	right	0.30000000000000004	0.7	2	4	0.6000000000000001	2.8	1	0	0.30000000000000004	0.7	2	4	0.6000000000000001	2.8	invalid	0.39992497199818894	53248	0	1	2	53248	1	53248	1	53248	1	0.7	53248	red	blue	1	0	ml	2.7.3	bip	sub-08_ses-02_task-ml_proj-bip_2020-12-01-10-03-08.126911
237	8	2	5	238	stable	8	200	38	vs	blue	red	blue	red	left	right	0.30000000000000004	0.7	4	2	1.2000000000000002	1.4	1	0	0.30000000000000004	0.7	4	2	1.2000000000000002	1.4	invalid	0.6331888950007851	53248	0	1	2	53248	1	53248	1	51200	0	0.7	53248	red	blue	0	0	ml	2.7.3	bip	sub-08_ses-02_task-ml_proj-bip_2020-12-01-10-03-08.126911
238	8	2	5	239	stable	8	200	39	vs	blue	red	blue	red	left	right	0.30000000000000004	0.7	6	6	1.8000000000000005	4.199999999999998	1	0	0.30000000000000004	0.7	6	6	1.8000000000000005	4.199999999999998	invalid	0.4998824599988438	51200	0	0	1	53248	0	53248	0	53248	0	0.7	53248	red	blue	0	6	ml	2.7.3	bip	sub-08_ses-02_task-ml_proj-bip_2020-12-01-10-03-08.126911
239	8	2	5	240	stable	8	200	40	vs	red	blue	blue	red	right	left	0.30000000000000004	0.7	6	2	1.8000000000000005	1.4	1	0	0.7	0.30000000000000004	2	6	1.4	1.8000000000000005	invalid	0.4665684320007131	53248	0	1	1	53248	1	51200	0	53248	1	0.7	51200	red	blue	0	6	ml	2.7.3	bip	sub-08_ses-02_task-ml_proj-bip_2020-12-01-10-03-08.126911
240	8	2	5	241	stable	8	200	41	vs	red	blue	blue	red	right	left	0.30000000000000004	0.7	6	6	1.8000000000000005	4.199999999999998	0	1	0.7	0.30000000000000004	6	6	4.199999999999998	1.8000000000000005	valid	0.7498201279995556	53248	0	1	1	51200	0	51200	0	53248	1	0.7	51200	red	blue	1	0	ml	2.7.3	bip	sub-08_ses-02_task-ml_proj-bip_2020-12-01-10-03-08.126911
241	8	2	5	242	stable	8	200	42	vs	red	blue	blue	red	right	left	0.30000000000000004	0.7	4	2	1.2000000000000002	1.4	0	1	0.7	0.30000000000000004	2	4	1.4	1.2000000000000002	valid	0.6165139280001313	51200	0	0	2	51200	1	51200	1	53248	0	0.7	51200	red	blue	0	2	ml	2.7.3	bip	sub-08_ses-02_task-ml_proj-bip_2020-12-01-10-03-08.126911
242	8	2	5	243	stable	8	200	43	vs	red	blue	blue	red	right	left	0.30000000000000004	0.7	6	6	1.8000000000000005	4.199999999999998	0	1	0.7	0.30000000000000004	6	6	4.199999999999998	1.8000000000000005	valid	0.866444761000821	51200	0	0	2	51200	1	51200	1	53248	0	0.7	51200	red	blue	1	6	ml	2.7.3	bip	sub-08_ses-02_task-ml_proj-bip_2020-12-01-10-03-08.126911
243	8	2	5	244	stable	8	200	44	vs	blue	red	blue	red	left	right	0.30000000000000004	0.7	4	6	1.2000000000000002	4.199999999999998	0	1	0.30000000000000004	0.7	4	6	1.2000000000000002	4.199999999999998	valid	0.6331843440002558	53248	0	1	2	53248	1	53248	1	53248	1	0.7	53248	red	blue	1	6	ml	2.7.3	bip	sub-08_ses-02_task-ml_proj-bip_2020-12-01-10-03-08.126911
244	8	2	5	245	stable	8	200	45	vs	blue	red	blue	red	left	right	0.30000000000000004	0.7	6	4	1.8000000000000005	2.8	1	0	0.30000000000000004	0.7	6	4	1.8000000000000005	2.8	invalid	0.6331815350004035	53248	0	1	2	53248	1	53248	1	51200	0	0.7	53248	red	blue	0	0	ml	2.7.3	bip	sub-08_ses-02_task-ml_proj-bip_2020-12-01-10-03-08.126911
245	8	2	5	246	stable	8	200	46	vs	red	blue	blue	red	right	left	0.30000000000000004	0.7	6	2	1.8000000000000005	1.4	1	0	0.7	0.30000000000000004	2	6	1.4	1.8000000000000005	invalid	0.6498471799986874	53248	0	1	1	53248	1	51200	0	53248	1	0.7	51200	red	blue	0	6	ml	2.7.3	bip	sub-08_ses-02_task-ml_proj-bip_2020-12-01-10-03-08.126911
246	8	2	5	247	stable	8	200	47	vs	red	blue	blue	red	right	left	0.30000000000000004	0.7	2	10	0.6000000000000001	7.0	1	0	0.7	0.30000000000000004	10	2	7.0	0.6000000000000001	invalid	0.7498166940004012	51200	0	0	2	51200	1	51200	1	51200	1	0.7	51200	red	blue	1	0	ml	2.7.3	bip	sub-08_ses-02_task-ml_proj-bip_2020-12-01-10-03-08.126911
247	8	2	5	248	stable	8	200	48	vs	blue	red	blue	red	left	right	0.30000000000000004	0.7	6	6	1.8000000000000005	4.199999999999998	0	1	0.30000000000000004	0.7	6	6	1.8000000000000005	4.199999999999998	valid	0.6998249890002626	51200	0	0	1	53248	0	53248	0	53248	0	0.7	53248	red	blue	0	0	ml	2.7.3	bip	sub-08_ses-02_task-ml_proj-bip_2020-12-01-10-03-08.126911
248	8	2	5	249	stable	8	200	49	vs	blue	red	blue	red	left	right	0.30000000000000004	0.7	4	2	1.2000000000000002	1.4	0	1	0.30000000000000004	0.7	4	2	1.2000000000000002	1.4	valid	0.716496052000366	53248	0	1	2	53248	1	53248	1	51200	0	0.7	53248	red	blue	0	2	ml	2.7.3	bip	sub-08_ses-02_task-ml_proj-bip_2020-12-01-10-03-08.126911
249	8	2	5	250	stable	8	200	50	vs	red	blue	blue	red	right	left	0.30000000000000004	0.7	2	6	0.6000000000000001	4.199999999999998	1	0	0.7	0.30000000000000004	6	2	4.199999999999998	0.6000000000000001	invalid	0.3832481730005384	51200	0	0	2	51200	1	51200	1	51200	1	0.7	51200	red	blue	1	0	ml	2.7.3	bip	sub-08_ses-02_task-ml_proj-bip_2020-12-01-10-03-08.126911
250	8	2	6	251	stable	8	200	51	vs	red	blue	blue	red	right	left	0.30000000000000004	0.7	10	2	3.0000000000000004	1.4	0	1	0.7	0.30000000000000004	2	10	1.4	3.0000000000000004	valid	0.7664762509994034	53248	0	1	1	53248	1	51200	0	53248	1	0.7	51200	red	blue	0	0	ml	2.7.3	bip	sub-08_ses-02_task-ml_proj-bip_2020-12-01-10-03-08.126911
251	8	2	6	252	stable	8	200	52	vs	blue	red	blue	red	left	right	0.30000000000000004	0.7	6	2	1.8000000000000005	1.4	0	1	0.30000000000000004	0.7	6	2	1.8000000000000005	1.4	valid	0.5832029709999915	53248	0	1	2	51200	0	53248	1	51200	0	0.7	53248	red	blue	0	2	ml	2.7.3	bip	sub-08_ses-02_task-ml_proj-bip_2020-12-01-10-03-08.126911
252	8	2	6	253	stable	8	200	53	vs	red	blue	blue	red	right	left	0.30000000000000004	0.7	2	6	0.6000000000000001	4.199999999999998	0	1	0.7	0.30000000000000004	6	2	4.199999999999998	0.6000000000000001	valid	0.383248221998656	51200	0	0	2	51200	1	51200	1	51200	1	0.7	51200	red	blue	1	6	ml	2.7.3	bip	sub-08_ses-02_task-ml_proj-bip_2020-12-01-10-03-08.126911
253	8	2	6	254	stable	8	200	54	vs	blue	red	blue	red	left	right	0.30000000000000004	0.7	6	4	1.8000000000000005	2.8	0	1	0.30000000000000004	0.7	6	4	1.8000000000000005	2.8	valid	0.4499072969992994	53248	0	1	2	53248	1	53248	1	51200	0	0.7	53248	red	blue	0	4	ml	2.7.3	bip	sub-08_ses-02_task-ml_proj-bip_2020-12-01-10-03-08.126911
254	8	2	6	255	stable	8	200	55	vs	blue	red	blue	red	left	right	0.30000000000000004	0.7	4	6	1.2000000000000002	4.199999999999998	1	0	0.30000000000000004	0.7	4	6	1.2000000000000002	4.199999999999998	invalid	0.4332507960007206	53248	0	1	2	53248	1	53248	1	53248	1	0.7	53248	red	blue	1	0	ml	2.7.3	bip	sub-08_ses-02_task-ml_proj-bip_2020-12-01-10-03-08.126911
255	8	2	6	256	stable	8	200	56	vs	blue	red	blue	red	left	right	0.30000000000000004	0.7	6	2	1.8000000000000005	1.4	0	1	0.30000000000000004	0.7	6	2	1.8000000000000005	1.4	valid	0.3499279600000591	51200	0	0	1	51200	1	53248	0	51200	1	0.7	53248	red	blue	0	0	ml	2.7.3	bip	sub-08_ses-02_task-ml_proj-bip_2020-12-01-10-03-08.126911
256	8	2	6	257	stable	8	200	57	vs	blue	red	blue	red	left	right	0.30000000000000004	0.7	6	6	1.8000000000000005	4.199999999999998	1	0	0.30000000000000004	0.7	6	6	1.8000000000000005	4.199999999999998	invalid	0.34993763099919306	53248	0	1	2	53248	1	53248	1	53248	1	0.7	53248	red	blue	0	0	ml	2.7.3	bip	sub-08_ses-02_task-ml_proj-bip_2020-12-01-10-03-08.126911
257	8	2	6	258	stable	8	200	58	vs	red	blue	blue	red	right	left	0.30000000000000004	0.7	2	6	0.6000000000000001	4.199999999999998	0	1	0.7	0.30000000000000004	6	2	4.199999999999998	0.6000000000000001	valid	0.46657100399897905	53248	0	1	1	51200	0	51200	0	51200	0	0.7	51200	red	blue	1	0	ml	2.7.3	bip	sub-08_ses-02_task-ml_proj-bip_2020-12-01-10-03-08.126911
258	8	2	6	259	stable	8	200	59	vs	red	blue	blue	red	right	left	0.30000000000000004	0.7	4	2	1.2000000000000002	1.4	1	0	0.7	0.30000000000000004	2	4	1.4	1.2000000000000002	invalid	0.36658418899969547	51200	0	0	2	51200	1	51200	1	53248	0	0.7	51200	red	blue	0	0	ml	2.7.3	bip	sub-08_ses-02_task-ml_proj-bip_2020-12-01-10-03-08.126911
259	8	2	6	260	stable	8	200	60	vs	red	blue	blue	red	right	left	0.30000000000000004	0.7	2	6	0.6000000000000001	4.199999999999998	0	1	0.7	0.30000000000000004	6	2	4.199999999999998	0.6000000000000001	valid	0.4665562990012404	51200	0	0	2	51200	1	51200	1	51200	1	0.7	51200	red	blue	1	6	ml	2.7.3	bip	sub-08_ses-02_task-ml_proj-bip_2020-12-01-10-03-08.126911
260	8	2	6	261	stable	8	200	61	vs	red	blue	blue	red	right	left	0.30000000000000004	0.7	2	10	0.6000000000000001	7.0	0	1	0.7	0.30000000000000004	10	2	7.0	0.6000000000000001	valid	0.3665858320000552	51200	0	0	2	51200	1	51200	1	51200	1	0.7	51200	red	blue	1	10	ml	2.7.3	bip	sub-08_ses-02_task-ml_proj-bip_2020-12-01-10-03-08.126911
261	8	2	6	262	stable	8	200	62	vs	red	blue	blue	red	right	left	0.30000000000000004	0.7	4	6	1.2000000000000002	4.199999999999998	0	1	0.7	0.30000000000000004	6	4	4.199999999999998	1.2000000000000002	valid	0.36661195200031216	51200	0	0	2	51200	1	51200	1	51200	1	0.7	51200	red	blue	1	6	ml	2.7.3	bip	sub-08_ses-02_task-ml_proj-bip_2020-12-01-10-03-08.126911
262	8	2	6	263	stable	8	200	63	vs	blue	red	blue	red	left	right	0.30000000000000004	0.7	2	6	0.6000000000000001	4.199999999999998	1	0	0.30000000000000004	0.7	2	6	0.6000000000000001	4.199999999999998	invalid	0.6498493089984549	53248	0	1	2	53248	1	53248	1	53248	1	0.7	53248	red	blue	1	0	ml	2.7.3	bip	sub-08_ses-02_task-ml_proj-bip_2020-12-01-10-03-08.126911
263	8	2	6	264	stable	8	200	64	vs	red	blue	blue	red	right	left	0.30000000000000004	0.7	4	2	1.2000000000000002	1.4	0	1	0.7	0.30000000000000004	2	4	1.4	1.2000000000000002	valid	0.4499187969995546	53248	0	1	1	51200	0	51200	0	53248	1	0.7	51200	red	blue	0	0	ml	2.7.3	bip	sub-08_ses-02_task-ml_proj-bip_2020-12-01-10-03-08.126911
264	8	2	6	265	stable	8	200	65	vs	blue	red	blue	red	left	right	0.30000000000000004	0.7	6	2	1.8000000000000005	1.4	1	0	0.30000000000000004	0.7	6	2	1.8000000000000005	1.4	invalid	0.8331295600000885	53248	0	1	2	51200	0	53248	1	51200	0	0.7	53248	red	blue	0	0	ml	2.7.3	bip	sub-08_ses-02_task-ml_proj-bip_2020-12-01-10-03-08.126911
265	8	2	6	266	stable	8	200	66	vs	red	blue	blue	red	right	left	0.30000000000000004	0.7	2	2	0.6000000000000001	1.4	0	1	0.7	0.30000000000000004	2	2	1.4	0.6000000000000001	valid	0.5831993049996527	53248	0	1	1	51200	0	51200	0	53248	1	0.7	51200	red	blue	1	0	ml	2.7.3	bip	sub-08_ses-02_task-ml_proj-bip_2020-12-01-10-03-08.126911
266	8	2	6	267	stable	8	200	67	vs	blue	red	blue	red	left	right	0.30000000000000004	0.7	6	2	1.8000000000000005	1.4	0	1	0.30000000000000004	0.7	6	2	1.8000000000000005	1.4	valid	0.5998621599992475	53248	0	1	2	51200	0	53248	1	51200	0	0.7	53248	red	blue	0	2	ml	2.7.3	bip	sub-08_ses-02_task-ml_proj-bip_2020-12-01-10-03-08.126911
267	8	2	6	268	stable	8	200	68	vs	blue	red	blue	red	left	right	0.30000000000000004	0.7	2	2	0.6000000000000001	1.4	1	0	0.30000000000000004	0.7	2	2	0.6000000000000001	1.4	invalid	0.34993457600103284	53248	0	1	2	53248	1	53248	1	53248	1	0.7	53248	red	blue	0	0	ml	2.7.3	bip	sub-08_ses-02_task-ml_proj-bip_2020-12-01-10-03-08.126911
268	8	2	6	269	stable	8	200	69	vs	red	blue	blue	red	right	left	0.30000000000000004	0.7	6	4	1.8000000000000005	2.8	0	1	0.7	0.30000000000000004	4	6	2.8	1.8000000000000005	valid	0.5165538900000683	53248	0	1	1	51200	0	51200	0	53248	1	0.7	51200	red	blue	0	0	ml	2.7.3	bip	sub-08_ses-02_task-ml_proj-bip_2020-12-01-10-03-08.126911
269	8	2	6	270	stable	8	200	70	vs	red	blue	blue	red	right	left	0.30000000000000004	0.7	2	10	0.6000000000000001	7.0	1	0	0.7	0.30000000000000004	10	2	7.0	0.6000000000000001	invalid	0.5332077229995775	51200	0	0	2	51200	1	51200	1	51200	1	0.7	51200	red	blue	1	0	ml	2.7.3	bip	sub-08_ses-02_task-ml_proj-bip_2020-12-01-10-03-08.126911
270	8	2	6	271	stable	8	200	71	vs	blue	red	blue	red	left	right	0.30000000000000004	0.7	2	10	0.6000000000000001	7.0	0	1	0.30000000000000004	0.7	2	10	0.6000000000000001	7.0	valid	0.6998376720002852	53248	0	1	2	53248	1	53248	1	53248	1	0.7	53248	red	blue	1	10	ml	2.7.3	bip	sub-08_ses-02_task-ml_proj-bip_2020-12-01-10-03-08.126911
271	8	2	6	272	stable	8	200	72	vs	red	blue	blue	red	right	left	0.30000000000000004	0.7	10	2	3.0000000000000004	1.4	0	1	0.7	0.30000000000000004	2	10	1.4	3.0000000000000004	valid	0.8164698439995846	53248	0	1	1	53248	1	51200	0	53248	1	0.7	51200	red	blue	0	0	ml	2.7.3	bip	sub-08_ses-02_task-ml_proj-bip_2020-12-01-10-03-08.126911
272	8	2	6	273	stable	8	200	73	vs	red	blue	blue	red	right	left	0.30000000000000004	0.7	2	4	0.6000000000000001	2.8	1	0	0.7	0.30000000000000004	4	2	2.8	0.6000000000000001	invalid	0.7831325930001185	51200	0	0	2	51200	1	51200	1	51200	1	0.7	51200	red	blue	1	0	ml	2.7.3	bip	sub-08_ses-02_task-ml_proj-bip_2020-12-01-10-03-08.126911
273	8	2	6	274	stable	8	200	74	vs	blue	red	blue	red	left	right	0.30000000000000004	0.7	2	4	0.6000000000000001	2.8	0	1	0.30000000000000004	0.7	2	4	0.6000000000000001	2.8	valid	0.5165362840016314	51200	0	0	1	53248	0	53248	0	53248	0	0.7	53248	red	blue	1	0	ml	2.7.3	bip	sub-08_ses-02_task-ml_proj-bip_2020-12-01-10-03-08.126911
274	8	2	6	275	stable	8	200	75	vs	red	blue	blue	red	right	left	0.30000000000000004	0.7	2	10	0.6000000000000001	7.0	0	1	0.7	0.30000000000000004	10	2	7.0	0.6000000000000001	valid	0.4498975400001655	51200	0	0	2	51200	1	51200	1	51200	1	0.7	51200	red	blue	1	10	ml	2.7.3	bip	sub-08_ses-02_task-ml_proj-bip_2020-12-01-10-03-08.126911
275	8	2	6	276	stable	8	200	76	vs	blue	red	blue	red	left	right	0.30000000000000004	0.7	6	4	1.8000000000000005	2.8	1	0	0.30000000000000004	0.7	6	4	1.8000000000000005	2.8	invalid	0.583202550000351	53248	0	1	2	53248	1	53248	1	51200	0	0.7	53248	red	blue	0	0	ml	2.7.3	bip	sub-08_ses-02_task-ml_proj-bip_2020-12-01-10-03-08.126911
276	8	2	6	277	stable	8	200	77	vs	red	blue	blue	red	right	left	0.30000000000000004	0.7	2	10	0.6000000000000001	7.0	0	1	0.7	0.30000000000000004	10	2	7.0	0.6000000000000001	valid	0.6664964619994862	51200	0	0	2	51200	1	51200	1	51200	1	0.7	51200	red	blue	1	10	ml	2.7.3	bip	sub-08_ses-02_task-ml_proj-bip_2020-12-01-10-03-08.126911
277	8	2	6	278	stable	8	200	78	vs	red	blue	blue	red	right	left	0.30000000000000004	0.7	6	6	1.8000000000000005	4.199999999999998	0	1	0.7	0.30000000000000004	6	6	4.199999999999998	1.8000000000000005	valid	0.6831722229999286	53248	0	1	1	51200	0	51200	0	53248	1	0.7	51200	red	blue	1	0	ml	2.7.3	bip	sub-08_ses-02_task-ml_proj-bip_2020-12-01-10-03-08.126911
278	8	2	6	279	stable	8	200	79	vs	red	blue	blue	red	right	left	0.30000000000000004	0.7	2	4	0.6000000000000001	2.8	0	1	0.7	0.30000000000000004	4	2	2.8	0.6000000000000001	valid	0.4165698609995161	51200	0	0	2	51200	1	51200	1	51200	1	0.7	51200	red	blue	1	4	ml	2.7.3	bip	sub-08_ses-02_task-ml_proj-bip_2020-12-01-10-03-08.126911
279	8	2	6	280	stable	8	200	80	vs	blue	red	blue	red	left	right	0.30000000000000004	0.7	2	4	0.6000000000000001	2.8	1	0	0.30000000000000004	0.7	2	4	0.6000000000000001	2.8	invalid	0.6165336630001548	53248	0	1	2	53248	1	53248	1	53248	1	0.7	53248	red	blue	1	0	ml	2.7.3	bip	sub-08_ses-02_task-ml_proj-bip_2020-12-01-10-03-08.126911
280	8	2	6	281	stable	8	200	81	vs	red	blue	blue	red	right	left	0.30000000000000004	0.7	6	6	1.8000000000000005	4.199999999999998	1	0	0.7	0.30000000000000004	6	6	4.199999999999998	1.8000000000000005	invalid	1.5162566069993773	53248	0	1	1	51200	0	51200	0	53248	1	0.7	51200	red	blue	1	6	ml	2.7.3	bip	sub-08_ses-02_task-ml_proj-bip_2020-12-01-10-03-08.126911
281	8	2	6	282	stable	8	200	82	vs	red	blue	blue	red	right	left	0.30000000000000004	0.7	4	6	1.2000000000000002	4.199999999999998	1	0	0.7	0.30000000000000004	6	4	4.199999999999998	1.2000000000000002	invalid	0.7664845729996159	53248	0	1	1	51200	0	51200	0	51200	0	0.7	51200	red	blue	1	4	ml	2.7.3	bip	sub-08_ses-02_task-ml_proj-bip_2020-12-01-10-03-08.126911
282	8	2	6	283	stable	8	200	83	vs	blue	red	blue	red	left	right	0.30000000000000004	0.7	4	2	1.2000000000000002	1.4	1	0	0.30000000000000004	0.7	4	2	1.2000000000000002	1.4	invalid	0.5165430270008073	51200	0	0	1	53248	0	53248	0	51200	1	0.7	53248	red	blue	0	4	ml	2.7.3	bip	sub-08_ses-02_task-ml_proj-bip_2020-12-01-10-03-08.126911
283	8	2	6	284	stable	8	200	84	vs	blue	red	blue	red	left	right	0.30000000000000004	0.7	4	2	1.2000000000000002	1.4	0	1	0.30000000000000004	0.7	4	2	1.2000000000000002	1.4	valid	0.4165736020004261	51200	0	0	1	53248	0	53248	0	51200	1	0.7	53248	red	blue	0	0	ml	2.7.3	bip	sub-08_ses-02_task-ml_proj-bip_2020-12-01-10-03-08.126911
284	8	2	6	285	stable	8	200	85	vs	red	blue	blue	red	right	left	0.30000000000000004	0.7	10	2	3.0000000000000004	1.4	0	1	0.7	0.30000000000000004	2	10	1.4	3.0000000000000004	valid	0.7997989490013424	53248	0	1	1	53248	1	51200	0	53248	1	0.7	51200	red	blue	0	0	ml	2.7.3	bip	sub-08_ses-02_task-ml_proj-bip_2020-12-01-10-03-08.126911
285	8	2	6	286	stable	8	200	86	vs	red	blue	blue	red	right	left	0.30000000000000004	0.7	4	6	1.2000000000000002	4.199999999999998	0	1	0.7	0.30000000000000004	6	4	4.199999999999998	1.2000000000000002	valid	0.5165390259990089	51200	0	0	2	51200	1	51200	1	51200	1	0.7	51200	red	blue	1	6	ml	2.7.3	bip	sub-08_ses-02_task-ml_proj-bip_2020-12-01-10-03-08.126911
286	8	2	6	287	stable	8	200	87	vs	blue	red	blue	red	left	right	0.30000000000000004	0.7	6	2	1.8000000000000005	1.4	0	1	0.30000000000000004	0.7	6	2	1.8000000000000005	1.4	valid	0.4998890130009386	53248	0	1	2	51200	0	53248	1	51200	0	0.7	53248	red	blue	0	2	ml	2.7.3	bip	sub-08_ses-02_task-ml_proj-bip_2020-12-01-10-03-08.126911
287	8	2	6	288	stable	8	200	88	vs	blue	red	blue	red	left	right	0.30000000000000004	0.7	2	2	0.6000000000000001	1.4	1	0	0.30000000000000004	0.7	2	2	0.6000000000000001	1.4	invalid	0.483229895000477	53248	0	1	2	53248	1	53248	1	53248	1	0.7	53248	red	blue	0	0	ml	2.7.3	bip	sub-08_ses-02_task-ml_proj-bip_2020-12-01-10-03-08.126911
288	8	2	6	289	stable	8	200	89	vs	blue	red	blue	red	left	right	0.30000000000000004	0.7	4	2	1.2000000000000002	1.4	0	1	0.30000000000000004	0.7	4	2	1.2000000000000002	1.4	valid	0.4165754430014204	51200	0	0	1	53248	0	53248	0	51200	1	0.7	53248	red	blue	0	0	ml	2.7.3	bip	sub-08_ses-02_task-ml_proj-bip_2020-12-01-10-03-08.126911
289	8	2	6	290	stable	8	200	90	vs	blue	red	blue	red	left	right	0.30000000000000004	0.7	2	6	0.6000000000000001	4.199999999999998	0	1	0.30000000000000004	0.7	2	6	0.6000000000000001	4.199999999999998	valid	0.5665440789998684	53248	0	1	2	53248	1	53248	1	53248	1	0.7	53248	red	blue	1	6	ml	2.7.3	bip	sub-08_ses-02_task-ml_proj-bip_2020-12-01-10-03-08.126911
290	8	2	6	291	stable	8	200	91	vs	blue	red	blue	red	left	right	0.30000000000000004	0.7	6	2	1.8000000000000005	1.4	0	1	0.30000000000000004	0.7	6	2	1.8000000000000005	1.4	valid	1.0497335889995156	53248	0	1	2	51200	0	53248	1	51200	0	0.7	53248	red	blue	0	2	ml	2.7.3	bip	sub-08_ses-02_task-ml_proj-bip_2020-12-01-10-03-08.126911
291	8	2	6	292	stable	8	200	92	vs	blue	red	blue	red	left	right	0.30000000000000004	0.7	4	2	1.2000000000000002	1.4	0	1	0.30000000000000004	0.7	4	2	1.2000000000000002	1.4	valid	0.3999209689991403	53248	0	1	2	53248	1	53248	1	51200	0	0.7	53248	red	blue	0	2	ml	2.7.3	bip	sub-08_ses-02_task-ml_proj-bip_2020-12-01-10-03-08.126911
292	8	2	6	293	stable	8	200	93	vs	blue	red	blue	red	left	right	0.30000000000000004	0.7	2	6	0.6000000000000001	4.199999999999998	0	1	0.30000000000000004	0.7	2	6	0.6000000000000001	4.199999999999998	valid	0.4165769530009129	53248	0	1	2	53248	1	53248	1	53248	1	0.7	53248	red	blue	1	6	ml	2.7.3	bip	sub-08_ses-02_task-ml_proj-bip_2020-12-01-10-03-08.126911
293	8	2	6	294	stable	8	200	94	vs	red	blue	blue	red	right	left	0.30000000000000004	0.7	2	10	0.6000000000000001	7.0	0	1	0.7	0.30000000000000004	10	2	7.0	0.6000000000000001	valid	0.3832431959999667	51200	0	0	2	51200	1	51200	1	51200	1	0.7	51200	red	blue	1	10	ml	2.7.3	bip	sub-08_ses-02_task-ml_proj-bip_2020-12-01-10-03-08.126911
294	8	2	6	295	stable	8	200	95	vs	red	blue	blue	red	right	left	0.30000000000000004	0.7	4	2	1.2000000000000002	1.4	1	0	0.7	0.30000000000000004	2	4	1.4	1.2000000000000002	invalid	0.9330907679996016	51200	0	0	2	51200	1	51200	1	53248	0	0.7	51200	red	blue	0	0	ml	2.7.3	bip	sub-08_ses-02_task-ml_proj-bip_2020-12-01-10-03-08.126911
295	8	2	6	296	stable	8	200	96	vs	blue	red	blue	red	left	right	0.30000000000000004	0.7	2	10	0.6000000000000001	7.0	0	1	0.30000000000000004	0.7	2	10	0.6000000000000001	7.0	valid	1.1164223659998245	51200	0	0	1	53248	0	53248	0	53248	0	0.7	53248	red	blue	1	0	ml	2.7.3	bip	sub-08_ses-02_task-ml_proj-bip_2020-12-01-10-03-08.126911
296	8	2	6	297	stable	8	200	97	vs	blue	red	blue	red	left	right	0.30000000000000004	0.7	4	2	1.2000000000000002	1.4	0	1	0.30000000000000004	0.7	4	2	1.2000000000000002	1.4	valid	0.5332062699999369	51200	0	0	1	53248	0	53248	0	51200	1	0.7	53248	red	blue	0	0	ml	2.7.3	bip	sub-08_ses-02_task-ml_proj-bip_2020-12-01-10-03-08.126911
297	8	2	6	298	stable	8	200	98	vs	blue	red	blue	red	left	right	0.30000000000000004	0.7	4	6	1.2000000000000002	4.199999999999998	1	0	0.30000000000000004	0.7	4	6	1.2000000000000002	4.199999999999998	invalid	0.4832311909995042	53248	0	1	2	53248	1	53248	1	53248	1	0.7	53248	red	blue	1	0	ml	2.7.3	bip	sub-08_ses-02_task-ml_proj-bip_2020-12-01-10-03-08.126911
298	8	2	6	299	stable	8	200	99	vs	blue	red	blue	red	left	right	0.30000000000000004	0.7	4	2	1.2000000000000002	1.4	0	1	0.30000000000000004	0.7	4	2	1.2000000000000002	1.4	valid	0.3832561550007085	51200	0	0	1	53248	0	53248	0	51200	1	0.7	53248	red	blue	0	0	ml	2.7.3	bip	sub-08_ses-02_task-ml_proj-bip_2020-12-01-10-03-08.126911
