Unnamed: 0	sub_id	ses_id	block_no	trial_no	phase_type	phase_no	phase_length	trialInPhase_no	phase_type_order	color_left	color_right	color1	color2	position1	position2	prob1	prob2	mag1	mag2	ev1	ev2	outcome1	outcome2	prob_left	prob_right	mag_left	mag_right	ev_left	ev_right	reward_validity	resp_time	resp_key	timeout	choice_side	choice	ev_corr_resp	ev_correct	prob_corr_resp	prob_correct	mag_corr_resp	mag_correct	high_prob	high_prob_side	high_prob_color	low_prob_color	no_brain	reward	name	version	proj_id	logFileID
0	9	1	1	1	stable	1	200	1	sv	red	blue	red	blue	left	right	0.7	0.30000000000000004	6	4	4.199999999999998	1.2000000000000002	1	0	0.7	0.30000000000000004	6	4	4.199999999999998	1.2000000000000002	valid	0.6831685370016203	51200	0	0	1	51200	1	51200	1	51200	1	0.7	51200	red	blue	1	6	ml	2.7.3	lorasick	sub-09_ses-01_task-ml_proj-lorasick_2021-02-03-14-13-22.275917
1	9	1	1	2	stable	1	200	2	sv	red	blue	red	blue	left	right	0.7	0.30000000000000004	6	4	4.199999999999998	1.2000000000000002	1	0	0.7	0.30000000000000004	6	4	4.199999999999998	1.2000000000000002	valid	0.6664973040024051	51200	0	0	1	51200	1	51200	1	51200	1	0.7	51200	red	blue	1	6	ml	2.7.3	lorasick	sub-09_ses-01_task-ml_proj-lorasick_2021-02-03-14-13-22.275917
2	9	1	1	3	stable	1	200	3	sv	red	blue	red	blue	left	right	0.7	0.30000000000000004	6	2	4.199999999999998	0.6000000000000001	1	0	0.7	0.30000000000000004	6	2	4.199999999999998	0.6000000000000001	valid	0.4165610130003188	51200	0	0	1	51200	1	51200	1	51200	1	0.7	51200	red	blue	1	6	ml	2.7.3	lorasick	sub-09_ses-01_task-ml_proj-lorasick_2021-02-03-14-13-22.275917
3	9	1	1	4	stable	1	200	4	sv	blue	red	red	blue	right	left	0.7	0.30000000000000004	10	2	7.0	0.6000000000000001	1	0	0.30000000000000004	0.7	2	10	0.6000000000000001	7.0	valid	0.5665320069965674	53248	0	1	1	53248	1	53248	1	53248	1	0.7	53248	red	blue	1	10	ml	2.7.3	lorasick	sub-09_ses-01_task-ml_proj-lorasick_2021-02-03-14-13-22.275917
4	9	1	1	5	stable	1	200	5	sv	blue	red	red	blue	right	left	0.7	0.30000000000000004	6	4	4.199999999999998	1.2000000000000002	1	0	0.30000000000000004	0.7	4	6	1.2000000000000002	4.199999999999998	valid	0.4832302650029306	53248	0	1	1	53248	1	53248	1	53248	1	0.7	53248	red	blue	1	6	ml	2.7.3	lorasick	sub-09_ses-01_task-ml_proj-lorasick_2021-02-03-14-13-22.275917
5	9	1	1	6	stable	1	200	6	sv	blue	red	red	blue	right	left	0.7	0.30000000000000004	6	2	4.199999999999998	0.6000000000000001	0	1	0.30000000000000004	0.7	2	6	0.6000000000000001	4.199999999999998	invalid	0.399922456999775	53248	0	1	1	53248	1	53248	1	53248	1	0.7	53248	red	blue	1	0	ml	2.7.3	lorasick	sub-09_ses-01_task-ml_proj-lorasick_2021-02-03-14-13-22.275917
6	9	1	1	7	stable	1	200	7	sv	red	blue	red	blue	left	right	0.7	0.30000000000000004	2	6	1.4	1.8000000000000005	1	0	0.7	0.30000000000000004	2	6	1.4	1.8000000000000005	valid	0.6998318589976407	53248	0	1	2	53248	1	51200	0	53248	1	0.7	51200	red	blue	0	0	ml	2.7.3	lorasick	sub-09_ses-01_task-ml_proj-lorasick_2021-02-03-14-13-22.275917
7	9	1	1	8	stable	1	200	8	sv	blue	red	red	blue	right	left	0.7	0.30000000000000004	2	4	1.4	1.2000000000000002	1	0	0.30000000000000004	0.7	4	2	1.2000000000000002	1.4	valid	0.5165543139992224	53248	0	1	1	53248	1	53248	1	51200	0	0.7	53248	red	blue	0	2	ml	2.7.3	lorasick	sub-09_ses-01_task-ml_proj-lorasick_2021-02-03-14-13-22.275917
8	9	1	1	9	stable	1	200	9	sv	red	blue	red	blue	left	right	0.7	0.30000000000000004	4	6	2.8	1.8000000000000005	0	1	0.7	0.30000000000000004	4	6	2.8	1.8000000000000005	invalid	0.5332066939990909	51200	0	0	1	51200	1	51200	1	53248	0	0.7	51200	red	blue	0	0	ml	2.7.3	lorasick	sub-09_ses-01_task-ml_proj-lorasick_2021-02-03-14-13-22.275917
9	9	1	1	10	stable	1	200	10	sv	red	blue	red	blue	left	right	0.7	0.30000000000000004	4	2	2.8	0.6000000000000001	0	1	0.7	0.30000000000000004	4	2	2.8	0.6000000000000001	invalid	0.4165711929999816	51200	0	0	1	51200	1	51200	1	51200	1	0.7	51200	red	blue	1	0	ml	2.7.3	lorasick	sub-09_ses-01_task-ml_proj-lorasick_2021-02-03-14-13-22.275917
10	9	1	1	11	stable	1	200	11	sv	blue	red	red	blue	right	left	0.7	0.30000000000000004	2	2	1.4	0.6000000000000001	1	0	0.30000000000000004	0.7	2	2	0.6000000000000001	1.4	valid	0.4165719700031332	51200	0	0	2	53248	0	53248	0	53248	0	0.7	53248	red	blue	0	0	ml	2.7.3	lorasick	sub-09_ses-01_task-ml_proj-lorasick_2021-02-03-14-13-22.275917
11	9	1	1	12	stable	1	200	12	sv	blue	red	red	blue	right	left	0.7	0.30000000000000004	2	10	1.4	3.0000000000000004	1	0	0.30000000000000004	0.7	10	2	3.0000000000000004	1.4	valid	0.5832012690007105	53248	0	1	1	51200	0	53248	1	51200	0	0.7	53248	red	blue	0	2	ml	2.7.3	lorasick	sub-09_ses-01_task-ml_proj-lorasick_2021-02-03-14-13-22.275917
12	9	1	1	13	stable	1	200	13	sv	blue	red	red	blue	right	left	0.7	0.30000000000000004	4	2	2.8	0.6000000000000001	0	1	0.30000000000000004	0.7	2	4	0.6000000000000001	2.8	invalid	0.38326471999971545	53248	0	1	1	53248	1	53248	1	53248	1	0.7	53248	red	blue	1	0	ml	2.7.3	lorasick	sub-09_ses-01_task-ml_proj-lorasick_2021-02-03-14-13-22.275917
13	9	1	1	14	stable	1	200	14	sv	red	blue	red	blue	left	right	0.7	0.30000000000000004	4	2	2.8	0.6000000000000001	1	0	0.7	0.30000000000000004	4	2	2.8	0.6000000000000001	valid	0.7664888219987915	53248	0	1	2	51200	0	51200	0	51200	0	0.7	51200	red	blue	1	0	ml	2.7.3	lorasick	sub-09_ses-01_task-ml_proj-lorasick_2021-02-03-14-13-22.275917
14	9	1	1	15	stable	1	200	15	sv	red	blue	red	blue	left	right	0.7	0.30000000000000004	6	2	4.199999999999998	0.6000000000000001	1	0	0.7	0.30000000000000004	6	2	4.199999999999998	0.6000000000000001	valid	0.4332344100002956	51200	0	0	1	51200	1	51200	1	51200	1	0.7	51200	red	blue	1	6	ml	2.7.3	lorasick	sub-09_ses-01_task-ml_proj-lorasick_2021-02-03-14-13-22.275917
15	9	1	1	16	stable	1	200	16	sv	blue	red	red	blue	right	left	0.7	0.30000000000000004	2	2	1.4	0.6000000000000001	1	0	0.30000000000000004	0.7	2	2	0.6000000000000001	1.4	valid	0.3832576770000742	53248	0	1	1	53248	1	53248	1	53248	1	0.7	53248	red	blue	0	2	ml	2.7.3	lorasick	sub-09_ses-01_task-ml_proj-lorasick_2021-02-03-14-13-22.275917
16	9	1	1	17	stable	1	200	17	sv	red	blue	red	blue	left	right	0.7	0.30000000000000004	2	10	1.4	3.0000000000000004	0	1	0.7	0.30000000000000004	2	10	1.4	3.0000000000000004	invalid	0.4665586459996121	51200	0	0	1	53248	0	51200	1	53248	0	0.7	51200	red	blue	0	0	ml	2.7.3	lorasick	sub-09_ses-01_task-ml_proj-lorasick_2021-02-03-14-13-22.275917
17	9	1	1	18	stable	1	200	18	sv	red	blue	red	blue	left	right	0.7	0.30000000000000004	2	6	1.4	1.8000000000000005	1	0	0.7	0.30000000000000004	2	6	1.4	1.8000000000000005	valid	0.3332634409998718	51200	0	0	1	53248	0	51200	1	53248	0	0.7	51200	red	blue	0	2	ml	2.7.3	lorasick	sub-09_ses-01_task-ml_proj-lorasick_2021-02-03-14-13-22.275917
18	9	1	1	19	stable	1	200	19	sv	red	blue	red	blue	left	right	0.7	0.30000000000000004	2	6	1.4	1.8000000000000005	1	0	0.7	0.30000000000000004	2	6	1.4	1.8000000000000005	valid	0.383246732999396	51200	0	0	1	53248	0	51200	1	53248	0	0.7	51200	red	blue	0	2	ml	2.7.3	lorasick	sub-09_ses-01_task-ml_proj-lorasick_2021-02-03-14-13-22.275917
19	9	1	1	20	stable	1	200	20	sv	blue	red	red	blue	right	left	0.7	0.30000000000000004	10	2	7.0	0.6000000000000001	0	1	0.30000000000000004	0.7	2	10	0.6000000000000001	7.0	invalid	0.39992064400212257	53248	0	1	1	53248	1	53248	1	53248	1	0.7	53248	red	blue	1	0	ml	2.7.3	lorasick	sub-09_ses-01_task-ml_proj-lorasick_2021-02-03-14-13-22.275917
20	9	1	1	21	stable	1	200	21	sv	blue	red	red	blue	right	left	0.7	0.30000000000000004	2	2	1.4	0.6000000000000001	1	0	0.30000000000000004	0.7	2	2	0.6000000000000001	1.4	valid	0.3999197839984845	53248	0	1	1	53248	1	53248	1	53248	1	0.7	53248	red	blue	0	2	ml	2.7.3	lorasick	sub-09_ses-01_task-ml_proj-lorasick_2021-02-03-14-13-22.275917
21	9	1	1	22	stable	1	200	22	sv	red	blue	red	blue	left	right	0.7	0.30000000000000004	6	6	4.199999999999998	1.8000000000000005	0	1	0.7	0.30000000000000004	6	6	4.199999999999998	1.8000000000000005	invalid	0.4165690139998333	51200	0	0	1	51200	1	51200	1	53248	0	0.7	51200	red	blue	1	0	ml	2.7.3	lorasick	sub-09_ses-01_task-ml_proj-lorasick_2021-02-03-14-13-22.275917
22	9	1	1	23	stable	1	200	23	sv	blue	red	red	blue	right	left	0.7	0.30000000000000004	2	2	1.4	0.6000000000000001	0	1	0.30000000000000004	0.7	2	2	0.6000000000000001	1.4	invalid	0.3832551119994605	51200	0	0	2	53248	0	53248	0	53248	0	0.7	53248	red	blue	0	2	ml	2.7.3	lorasick	sub-09_ses-01_task-ml_proj-lorasick_2021-02-03-14-13-22.275917
23	9	1	1	24	stable	1	200	24	sv	blue	red	red	blue	right	left	0.7	0.30000000000000004	10	2	7.0	0.6000000000000001	0	1	0.30000000000000004	0.7	2	10	0.6000000000000001	7.0	invalid	0.3499202109996986	51200	0	0	2	53248	0	53248	0	53248	0	0.7	53248	red	blue	1	2	ml	2.7.3	lorasick	sub-09_ses-01_task-ml_proj-lorasick_2021-02-03-14-13-22.275917
24	9	1	1	25	stable	1	200	25	sv	red	blue	red	blue	left	right	0.7	0.30000000000000004	6	6	4.199999999999998	1.8000000000000005	1	0	0.7	0.30000000000000004	6	6	4.199999999999998	1.8000000000000005	valid	0.4665693520000786	53248	0	1	2	51200	0	51200	0	53248	1	0.7	51200	red	blue	1	0	ml	2.7.3	lorasick	sub-09_ses-01_task-ml_proj-lorasick_2021-02-03-14-13-22.275917
25	9	1	1	26	stable	1	200	26	sv	red	blue	red	blue	left	right	0.7	0.30000000000000004	10	2	7.0	0.6000000000000001	0	1	0.7	0.30000000000000004	10	2	7.0	0.6000000000000001	invalid	0.2832787309998821	51200	0	0	1	51200	1	51200	1	51200	1	0.7	51200	red	blue	1	0	ml	2.7.3	lorasick	sub-09_ses-01_task-ml_proj-lorasick_2021-02-03-14-13-22.275917
26	9	1	1	27	stable	1	200	27	sv	red	blue	red	blue	left	right	0.7	0.30000000000000004	2	4	1.4	1.2000000000000002	1	0	0.7	0.30000000000000004	2	4	1.4	1.2000000000000002	valid	0.3832498240008135	51200	0	0	1	51200	1	51200	1	53248	0	0.7	51200	red	blue	0	2	ml	2.7.3	lorasick	sub-09_ses-01_task-ml_proj-lorasick_2021-02-03-14-13-22.275917
27	9	1	1	28	stable	1	200	28	sv	blue	red	red	blue	right	left	0.7	0.30000000000000004	6	6	4.199999999999998	1.8000000000000005	1	0	0.30000000000000004	0.7	6	6	1.8000000000000005	4.199999999999998	valid	0.3999215139992885	53248	0	1	1	53248	1	53248	1	53248	1	0.7	53248	red	blue	0	6	ml	2.7.3	lorasick	sub-09_ses-01_task-ml_proj-lorasick_2021-02-03-14-13-22.275917
28	9	1	1	29	stable	1	200	29	sv	red	blue	red	blue	left	right	0.7	0.30000000000000004	10	2	7.0	0.6000000000000001	1	0	0.7	0.30000000000000004	10	2	7.0	0.6000000000000001	valid	0.3665880360022129	51200	0	0	1	51200	1	51200	1	51200	1	0.7	51200	red	blue	1	10	ml	2.7.3	lorasick	sub-09_ses-01_task-ml_proj-lorasick_2021-02-03-14-13-22.275917
29	9	1	1	30	stable	1	200	30	sv	red	blue	red	blue	left	right	0.7	0.30000000000000004	2	2	1.4	0.6000000000000001	0	1	0.7	0.30000000000000004	2	2	1.4	0.6000000000000001	invalid	0.3999173539996264	51200	0	0	1	51200	1	51200	1	53248	0	0.7	51200	red	blue	1	0	ml	2.7.3	lorasick	sub-09_ses-01_task-ml_proj-lorasick_2021-02-03-14-13-22.275917
30	9	1	1	31	stable	1	200	31	sv	red	blue	red	blue	left	right	0.7	0.30000000000000004	2	4	1.4	1.2000000000000002	1	0	0.7	0.30000000000000004	2	4	1.4	1.2000000000000002	valid	0.4832180669982336	51200	0	0	1	51200	1	51200	1	53248	0	0.7	51200	red	blue	0	2	ml	2.7.3	lorasick	sub-09_ses-01_task-ml_proj-lorasick_2021-02-03-14-13-22.275917
31	9	1	1	32	stable	1	200	32	sv	red	blue	red	blue	left	right	0.7	0.30000000000000004	6	4	4.199999999999998	1.2000000000000002	1	0	0.7	0.30000000000000004	6	4	4.199999999999998	1.2000000000000002	valid	0.33325730199794634	51200	0	0	1	51200	1	51200	1	51200	1	0.7	51200	red	blue	1	6	ml	2.7.3	lorasick	sub-09_ses-01_task-ml_proj-lorasick_2021-02-03-14-13-22.275917
32	9	1	1	33	stable	1	200	33	sv	red	blue	red	blue	left	right	0.7	0.30000000000000004	6	6	4.199999999999998	1.8000000000000005	0	1	0.7	0.30000000000000004	6	6	4.199999999999998	1.8000000000000005	invalid	0.3665791610001179	51200	0	0	1	51200	1	51200	1	53248	0	0.7	51200	red	blue	1	0	ml	2.7.3	lorasick	sub-09_ses-01_task-ml_proj-lorasick_2021-02-03-14-13-22.275917
33	9	1	1	34	stable	1	200	34	sv	blue	red	red	blue	right	left	0.7	0.30000000000000004	6	6	4.199999999999998	1.8000000000000005	0	1	0.30000000000000004	0.7	6	6	1.8000000000000005	4.199999999999998	invalid	0.3832581610004127	53248	0	1	1	53248	1	53248	1	53248	1	0.7	53248	red	blue	0	0	ml	2.7.3	lorasick	sub-09_ses-01_task-ml_proj-lorasick_2021-02-03-14-13-22.275917
34	9	1	1	35	stable	1	200	35	sv	red	blue	red	blue	left	right	0.7	0.30000000000000004	2	2	1.4	0.6000000000000001	1	0	0.7	0.30000000000000004	2	2	1.4	0.6000000000000001	valid	0.39991888200165693	51200	0	0	1	51200	1	51200	1	53248	0	0.7	51200	red	blue	1	2	ml	2.7.3	lorasick	sub-09_ses-01_task-ml_proj-lorasick_2021-02-03-14-13-22.275917
35	9	1	1	36	stable	1	200	36	sv	red	blue	red	blue	left	right	0.7	0.30000000000000004	2	4	1.4	1.2000000000000002	0	1	0.7	0.30000000000000004	2	4	1.4	1.2000000000000002	invalid	0.2999401829983981	51200	0	0	1	51200	1	51200	1	53248	0	0.7	51200	red	blue	0	0	ml	2.7.3	lorasick	sub-09_ses-01_task-ml_proj-lorasick_2021-02-03-14-13-22.275917
36	9	1	1	37	stable	1	200	37	sv	red	blue	red	blue	left	right	0.7	0.30000000000000004	2	4	1.4	1.2000000000000002	1	0	0.7	0.30000000000000004	2	4	1.4	1.2000000000000002	valid	0.6831616580020636	51200	0	0	1	51200	1	51200	1	53248	0	0.7	51200	red	blue	0	2	ml	2.7.3	lorasick	sub-09_ses-01_task-ml_proj-lorasick_2021-02-03-14-13-22.275917
37	9	1	1	38	stable	1	200	38	sv	blue	red	red	blue	right	left	0.7	0.30000000000000004	2	4	1.4	1.2000000000000002	1	0	0.30000000000000004	0.7	4	2	1.2000000000000002	1.4	valid	0.4665693970018765	53248	0	1	1	53248	1	53248	1	51200	0	0.7	53248	red	blue	0	2	ml	2.7.3	lorasick	sub-09_ses-01_task-ml_proj-lorasick_2021-02-03-14-13-22.275917
38	9	1	1	39	stable	1	200	39	sv	blue	red	red	blue	right	left	0.7	0.30000000000000004	2	4	1.4	1.2000000000000002	0	1	0.30000000000000004	0.7	4	2	1.2000000000000002	1.4	invalid	0.36658975099999225	51200	0	0	2	53248	0	53248	0	51200	1	0.7	53248	red	blue	0	4	ml	2.7.3	lorasick	sub-09_ses-01_task-ml_proj-lorasick_2021-02-03-14-13-22.275917
39	9	1	1	40	stable	1	200	40	sv	red	blue	red	blue	left	right	0.7	0.30000000000000004	2	10	1.4	3.0000000000000004	0	1	0.7	0.30000000000000004	2	10	1.4	3.0000000000000004	invalid	0.3332684480010357	51200	0	0	1	53248	0	51200	1	53248	0	0.7	51200	red	blue	0	0	ml	2.7.3	lorasick	sub-09_ses-01_task-ml_proj-lorasick_2021-02-03-14-13-22.275917
40	9	1	1	41	stable	1	200	41	sv	red	blue	red	blue	left	right	0.7	0.30000000000000004	10	2	7.0	0.6000000000000001	0	1	0.7	0.30000000000000004	10	2	7.0	0.6000000000000001	invalid	0.3999096549996466	51200	0	0	1	51200	1	51200	1	51200	1	0.7	51200	red	blue	1	0	ml	2.7.3	lorasick	sub-09_ses-01_task-ml_proj-lorasick_2021-02-03-14-13-22.275917
41	9	1	1	42	stable	1	200	42	sv	blue	red	red	blue	right	left	0.7	0.30000000000000004	2	6	1.4	1.8000000000000005	1	0	0.30000000000000004	0.7	6	2	1.8000000000000005	1.4	valid	0.43323355599932256	51200	0	0	2	51200	1	53248	0	51200	1	0.7	53248	red	blue	0	0	ml	2.7.3	lorasick	sub-09_ses-01_task-ml_proj-lorasick_2021-02-03-14-13-22.275917
42	9	1	1	43	stable	1	200	43	sv	blue	red	red	blue	right	left	0.7	0.30000000000000004	4	6	2.8	1.8000000000000005	1	0	0.30000000000000004	0.7	6	4	1.8000000000000005	2.8	valid	0.33325627999875	51200	0	0	2	53248	0	53248	0	51200	1	0.7	53248	red	blue	0	0	ml	2.7.3	lorasick	sub-09_ses-01_task-ml_proj-lorasick_2021-02-03-14-13-22.275917
43	9	1	1	44	stable	1	200	44	sv	red	blue	red	blue	left	right	0.7	0.30000000000000004	6	2	4.199999999999998	0.6000000000000001	1	0	0.7	0.30000000000000004	6	2	4.199999999999998	0.6000000000000001	valid	0.400132508999377	51200	0	0	1	51200	1	51200	1	51200	1	0.7	51200	red	blue	1	6	ml	2.7.3	lorasick	sub-09_ses-01_task-ml_proj-lorasick_2021-02-03-14-13-22.275917
44	9	1	1	45	stable	1	200	45	sv	blue	red	red	blue	right	left	0.7	0.30000000000000004	6	6	4.199999999999998	1.8000000000000005	0	1	0.30000000000000004	0.7	6	6	1.8000000000000005	4.199999999999998	invalid	0.36659079099990777	53248	0	1	1	53248	1	53248	1	53248	1	0.7	53248	red	blue	0	0	ml	2.7.3	lorasick	sub-09_ses-01_task-ml_proj-lorasick_2021-02-03-14-13-22.275917
45	9	1	1	46	stable	1	200	46	sv	red	blue	red	blue	left	right	0.7	0.30000000000000004	2	10	1.4	3.0000000000000004	1	0	0.7	0.30000000000000004	2	10	1.4	3.0000000000000004	valid	0.44989409600020736	51200	0	0	1	53248	0	51200	1	53248	0	0.7	51200	red	blue	0	2	ml	2.7.3	lorasick	sub-09_ses-01_task-ml_proj-lorasick_2021-02-03-14-13-22.275917
46	9	1	1	47	stable	1	200	47	sv	blue	red	red	blue	right	left	0.7	0.30000000000000004	2	6	1.4	1.8000000000000005	0	1	0.30000000000000004	0.7	6	2	1.8000000000000005	1.4	invalid	0.3832573520012375	53248	0	1	1	51200	0	53248	1	51200	0	0.7	53248	red	blue	0	0	ml	2.7.3	lorasick	sub-09_ses-01_task-ml_proj-lorasick_2021-02-03-14-13-22.275917
47	9	1	1	48	stable	1	200	48	sv	red	blue	red	blue	left	right	0.7	0.30000000000000004	2	2	1.4	0.6000000000000001	0	1	0.7	0.30000000000000004	2	2	1.4	0.6000000000000001	invalid	0.7164906269972562	51200	0	0	1	51200	1	51200	1	53248	0	0.7	51200	red	blue	1	0	ml	2.7.3	lorasick	sub-09_ses-01_task-ml_proj-lorasick_2021-02-03-14-13-22.275917
48	9	1	1	49	stable	1	200	49	sv	blue	red	red	blue	right	left	0.7	0.30000000000000004	10	2	7.0	0.6000000000000001	1	0	0.30000000000000004	0.7	2	10	0.6000000000000001	7.0	valid	0.2666250600013882	53248	0	1	1	53248	1	53248	1	53248	1	0.7	53248	red	blue	1	10	ml	2.7.3	lorasick	sub-09_ses-01_task-ml_proj-lorasick_2021-02-03-14-13-22.275917
49	9	1	1	50	stable	1	200	50	sv	red	blue	red	blue	left	right	0.7	0.30000000000000004	4	6	2.8	1.8000000000000005	1	0	0.7	0.30000000000000004	4	6	2.8	1.8000000000000005	valid	0.2666189640003722	51200	0	0	1	51200	1	51200	1	53248	0	0.7	51200	red	blue	0	4	ml	2.7.3	lorasick	sub-09_ses-01_task-ml_proj-lorasick_2021-02-03-14-13-22.275917
50	9	1	2	51	stable	1	200	51	sv	red	blue	red	blue	left	right	0.7	0.30000000000000004	2	2	1.4	0.6000000000000001	1	0	0.7	0.30000000000000004	2	2	1.4	0.6000000000000001	valid	0.516546606002521	51200	0	0	1	51200	1	51200	1	53248	0	0.7	51200	red	blue	1	2	ml	2.7.3	lorasick	sub-09_ses-01_task-ml_proj-lorasick_2021-02-03-14-13-22.275917
51	9	1	2	52	stable	1	200	52	sv	blue	red	red	blue	right	left	0.7	0.30000000000000004	2	10	1.4	3.0000000000000004	1	0	0.30000000000000004	0.7	10	2	3.0000000000000004	1.4	valid	0.3166140760004055	53248	0	1	1	51200	0	53248	1	51200	0	0.7	53248	red	blue	0	2	ml	2.7.3	lorasick	sub-09_ses-01_task-ml_proj-lorasick_2021-02-03-14-13-22.275917
52	9	1	2	53	stable	1	200	53	sv	blue	red	red	blue	right	left	0.7	0.30000000000000004	4	2	2.8	0.6000000000000001	1	0	0.30000000000000004	0.7	2	4	0.6000000000000001	2.8	valid	0.4665629190021718	51200	0	0	2	53248	0	53248	0	53248	0	0.7	53248	red	blue	1	0	ml	2.7.3	lorasick	sub-09_ses-01_task-ml_proj-lorasick_2021-02-03-14-13-22.275917
53	9	1	2	54	stable	1	200	54	sv	blue	red	red	blue	right	left	0.7	0.30000000000000004	4	6	2.8	1.8000000000000005	1	0	0.30000000000000004	0.7	6	4	1.8000000000000005	2.8	valid	0.3499247629988531	51200	0	0	2	53248	0	53248	0	51200	1	0.7	53248	red	blue	0	0	ml	2.7.3	lorasick	sub-09_ses-01_task-ml_proj-lorasick_2021-02-03-14-13-22.275917
54	9	1	2	55	stable	1	200	55	sv	blue	red	red	blue	right	left	0.7	0.30000000000000004	2	10	1.4	3.0000000000000004	0	1	0.30000000000000004	0.7	10	2	3.0000000000000004	1.4	invalid	0.3665870009972423	51200	0	0	2	51200	1	53248	0	51200	1	0.7	53248	red	blue	0	10	ml	2.7.3	lorasick	sub-09_ses-01_task-ml_proj-lorasick_2021-02-03-14-13-22.275917
55	9	1	2	56	stable	1	200	56	sv	red	blue	red	blue	left	right	0.7	0.30000000000000004	2	2	1.4	0.6000000000000001	1	0	0.7	0.30000000000000004	2	2	1.4	0.6000000000000001	valid	0.383263026997156	53248	0	1	2	51200	0	51200	0	53248	1	0.7	51200	red	blue	1	0	ml	2.7.3	lorasick	sub-09_ses-01_task-ml_proj-lorasick_2021-02-03-14-13-22.275917
56	9	1	2	57	stable	1	200	57	sv	red	blue	red	blue	left	right	0.7	0.30000000000000004	2	4	1.4	1.2000000000000002	1	0	0.7	0.30000000000000004	2	4	1.4	1.2000000000000002	valid	0.4165722399993683	51200	0	0	1	51200	1	51200	1	53248	0	0.7	51200	red	blue	0	2	ml	2.7.3	lorasick	sub-09_ses-01_task-ml_proj-lorasick_2021-02-03-14-13-22.275917
57	9	1	2	58	stable	1	200	58	sv	red	blue	red	blue	left	right	0.7	0.30000000000000004	6	4	4.199999999999998	1.2000000000000002	0	1	0.7	0.30000000000000004	6	4	4.199999999999998	1.2000000000000002	invalid	0.34992480499931844	51200	0	0	1	51200	1	51200	1	51200	1	0.7	51200	red	blue	1	0	ml	2.7.3	lorasick	sub-09_ses-01_task-ml_proj-lorasick_2021-02-03-14-13-22.275917
58	9	1	2	59	stable	1	200	59	sv	red	blue	red	blue	left	right	0.7	0.30000000000000004	2	2	1.4	0.6000000000000001	1	0	0.7	0.30000000000000004	2	2	1.4	0.6000000000000001	valid	0.29994001500017475	51200	0	0	1	51200	1	51200	1	53248	0	0.7	51200	red	blue	1	2	ml	2.7.3	lorasick	sub-09_ses-01_task-ml_proj-lorasick_2021-02-03-14-13-22.275917
59	9	1	2	60	stable	1	200	60	sv	blue	red	red	blue	right	left	0.7	0.30000000000000004	4	6	2.8	1.8000000000000005	1	0	0.30000000000000004	0.7	6	4	1.8000000000000005	2.8	valid	0.4165887870003644	53248	0	1	1	53248	1	53248	1	51200	0	0.7	53248	red	blue	0	4	ml	2.7.3	lorasick	sub-09_ses-01_task-ml_proj-lorasick_2021-02-03-14-13-22.275917
60	9	1	2	61	stable	1	200	61	sv	blue	red	red	blue	right	left	0.7	0.30000000000000004	6	4	4.199999999999998	1.2000000000000002	1	0	0.30000000000000004	0.7	4	6	1.2000000000000002	4.199999999999998	valid	0.4332357640014379	51200	0	0	2	53248	0	53248	0	53248	0	0.7	53248	red	blue	1	0	ml	2.7.3	lorasick	sub-09_ses-01_task-ml_proj-lorasick_2021-02-03-14-13-22.275917
61	9	1	2	62	stable	1	200	62	sv	red	blue	red	blue	left	right	0.7	0.30000000000000004	4	6	2.8	1.8000000000000005	1	0	0.7	0.30000000000000004	4	6	2.8	1.8000000000000005	valid	0.4332374539990269	53248	0	1	2	51200	0	51200	0	53248	1	0.7	51200	red	blue	0	0	ml	2.7.3	lorasick	sub-09_ses-01_task-ml_proj-lorasick_2021-02-03-14-13-22.275917
62	9	1	2	63	stable	1	200	63	sv	red	blue	red	blue	left	right	0.7	0.30000000000000004	6	2	4.199999999999998	0.6000000000000001	1	0	0.7	0.30000000000000004	6	2	4.199999999999998	0.6000000000000001	valid	0.3665845050018106	51200	0	0	1	51200	1	51200	1	51200	1	0.7	51200	red	blue	1	6	ml	2.7.3	lorasick	sub-09_ses-01_task-ml_proj-lorasick_2021-02-03-14-13-22.275917
63	9	1	2	64	stable	1	200	64	sv	blue	red	red	blue	right	left	0.7	0.30000000000000004	4	6	2.8	1.8000000000000005	1	0	0.30000000000000004	0.7	6	4	1.8000000000000005	2.8	valid	0.3665961869992316	53248	0	1	1	53248	1	53248	1	51200	0	0.7	53248	red	blue	0	4	ml	2.7.3	lorasick	sub-09_ses-01_task-ml_proj-lorasick_2021-02-03-14-13-22.275917
64	9	1	2	65	stable	1	200	65	sv	blue	red	red	blue	right	left	0.7	0.30000000000000004	4	2	2.8	0.6000000000000001	1	0	0.30000000000000004	0.7	2	4	0.6000000000000001	2.8	valid	0.3832560170012584	53248	0	1	1	53248	1	53248	1	53248	1	0.7	53248	red	blue	1	4	ml	2.7.3	lorasick	sub-09_ses-01_task-ml_proj-lorasick_2021-02-03-14-13-22.275917
65	9	1	2	66	stable	1	200	66	sv	blue	red	red	blue	right	left	0.7	0.30000000000000004	2	10	1.4	3.0000000000000004	1	0	0.30000000000000004	0.7	10	2	3.0000000000000004	1.4	valid	0.3665799070004141	51200	0	0	2	51200	1	53248	0	51200	1	0.7	53248	red	blue	0	0	ml	2.7.3	lorasick	sub-09_ses-01_task-ml_proj-lorasick_2021-02-03-14-13-22.275917
66	9	1	2	67	stable	1	200	67	sv	red	blue	red	blue	left	right	0.7	0.30000000000000004	6	6	4.199999999999998	1.8000000000000005	1	0	0.7	0.30000000000000004	6	6	4.199999999999998	1.8000000000000005	valid	0.3665774559995043	51200	0	0	1	51200	1	51200	1	53248	0	0.7	51200	red	blue	1	6	ml	2.7.3	lorasick	sub-09_ses-01_task-ml_proj-lorasick_2021-02-03-14-13-22.275917
67	9	1	2	68	stable	1	200	68	sv	blue	red	red	blue	right	left	0.7	0.30000000000000004	2	2	1.4	0.6000000000000001	1	0	0.30000000000000004	0.7	2	2	0.6000000000000001	1.4	valid	0.3666029230007553	53248	0	1	1	53248	1	53248	1	53248	1	0.7	53248	red	blue	0	2	ml	2.7.3	lorasick	sub-09_ses-01_task-ml_proj-lorasick_2021-02-03-14-13-22.275917
68	9	1	2	69	stable	1	200	69	sv	blue	red	red	blue	right	left	0.7	0.30000000000000004	6	2	4.199999999999998	0.6000000000000001	1	0	0.30000000000000004	0.7	2	6	0.6000000000000001	4.199999999999998	valid	0.36659881199739175	53248	0	1	1	53248	1	53248	1	53248	1	0.7	53248	red	blue	1	6	ml	2.7.3	lorasick	sub-09_ses-01_task-ml_proj-lorasick_2021-02-03-14-13-22.275917
69	9	1	2	70	stable	1	200	70	sv	blue	red	red	blue	right	left	0.7	0.30000000000000004	2	6	1.4	1.8000000000000005	0	1	0.30000000000000004	0.7	6	2	1.8000000000000005	1.4	invalid	0.5831866209991858	51200	0	0	2	51200	1	53248	0	51200	1	0.7	53248	red	blue	0	6	ml	2.7.3	lorasick	sub-09_ses-01_task-ml_proj-lorasick_2021-02-03-14-13-22.275917
70	9	1	2	71	stable	1	200	71	sv	blue	red	red	blue	right	left	0.7	0.30000000000000004	4	2	2.8	0.6000000000000001	1	0	0.30000000000000004	0.7	2	4	0.6000000000000001	2.8	valid	0.383257040000899	53248	0	1	1	53248	1	53248	1	53248	1	0.7	53248	red	blue	1	4	ml	2.7.3	lorasick	sub-09_ses-01_task-ml_proj-lorasick_2021-02-03-14-13-22.275917
71	9	1	2	72	stable	1	200	72	sv	red	blue	red	blue	left	right	0.7	0.30000000000000004	6	6	4.199999999999998	1.8000000000000005	1	0	0.7	0.30000000000000004	6	6	4.199999999999998	1.8000000000000005	valid	0.6831721730013669	53248	0	1	2	51200	0	51200	0	53248	1	0.7	51200	red	blue	1	0	ml	2.7.3	lorasick	sub-09_ses-01_task-ml_proj-lorasick_2021-02-03-14-13-22.275917
72	9	1	2	73	stable	1	200	73	sv	blue	red	red	blue	right	left	0.7	0.30000000000000004	6	2	4.199999999999998	0.6000000000000001	1	0	0.30000000000000004	0.7	2	6	0.6000000000000001	4.199999999999998	valid	0.4165833650004061	53248	0	1	1	53248	1	53248	1	53248	1	0.7	53248	red	blue	1	6	ml	2.7.3	lorasick	sub-09_ses-01_task-ml_proj-lorasick_2021-02-03-14-13-22.275917
73	9	1	2	74	stable	1	200	74	sv	red	blue	red	blue	left	right	0.7	0.30000000000000004	4	2	2.8	0.6000000000000001	0	1	0.7	0.30000000000000004	4	2	2.8	0.6000000000000001	invalid	0.3832492840010673	51200	0	0	1	51200	1	51200	1	51200	1	0.7	51200	red	blue	1	0	ml	2.7.3	lorasick	sub-09_ses-01_task-ml_proj-lorasick_2021-02-03-14-13-22.275917
74	9	1	2	75	stable	1	200	75	sv	blue	red	red	blue	right	left	0.7	0.30000000000000004	6	2	4.199999999999998	0.6000000000000001	1	0	0.30000000000000004	0.7	2	6	0.6000000000000001	4.199999999999998	valid	0.5332177390009747	53248	0	1	1	53248	1	53248	1	53248	1	0.7	53248	red	blue	1	6	ml	2.7.3	lorasick	sub-09_ses-01_task-ml_proj-lorasick_2021-02-03-14-13-22.275917
75	9	1	2	76	stable	1	200	76	sv	red	blue	red	blue	left	right	0.7	0.30000000000000004	2	4	1.4	1.2000000000000002	0	1	0.7	0.30000000000000004	2	4	1.4	1.2000000000000002	invalid	0.5332041469991964	51200	0	0	1	51200	1	51200	1	53248	0	0.7	51200	red	blue	0	0	ml	2.7.3	lorasick	sub-09_ses-01_task-ml_proj-lorasick_2021-02-03-14-13-22.275917
76	9	1	2	77	stable	1	200	77	sv	red	blue	red	blue	left	right	0.7	0.30000000000000004	4	2	2.8	0.6000000000000001	1	0	0.7	0.30000000000000004	4	2	2.8	0.6000000000000001	valid	0.3665796150016831	51200	0	0	1	51200	1	51200	1	51200	1	0.7	51200	red	blue	1	4	ml	2.7.3	lorasick	sub-09_ses-01_task-ml_proj-lorasick_2021-02-03-14-13-22.275917
77	9	1	2	78	stable	1	200	78	sv	blue	red	red	blue	right	left	0.7	0.30000000000000004	10	2	7.0	0.6000000000000001	1	0	0.30000000000000004	0.7	2	10	0.6000000000000001	7.0	valid	0.4498953150032321	51200	0	0	2	53248	0	53248	0	53248	0	0.7	53248	red	blue	1	0	ml	2.7.3	lorasick	sub-09_ses-01_task-ml_proj-lorasick_2021-02-03-14-13-22.275917
78	9	1	2	79	stable	1	200	79	sv	blue	red	red	blue	right	left	0.7	0.30000000000000004	6	6	4.199999999999998	1.8000000000000005	0	1	0.30000000000000004	0.7	6	6	1.8000000000000005	4.199999999999998	invalid	0.4498974679991079	51200	0	0	2	53248	0	53248	0	53248	0	0.7	53248	red	blue	0	6	ml	2.7.3	lorasick	sub-09_ses-01_task-ml_proj-lorasick_2021-02-03-14-13-22.275917
79	9	1	2	80	stable	1	200	80	sv	blue	red	red	blue	right	left	0.7	0.30000000000000004	4	2	2.8	0.6000000000000001	1	0	0.30000000000000004	0.7	2	4	0.6000000000000001	2.8	valid	0.3665992569985974	53248	0	1	1	53248	1	53248	1	53248	1	0.7	53248	red	blue	1	4	ml	2.7.3	lorasick	sub-09_ses-01_task-ml_proj-lorasick_2021-02-03-14-13-22.275917
80	9	1	2	81	stable	1	200	81	sv	red	blue	red	blue	left	right	0.7	0.30000000000000004	6	2	4.199999999999998	0.6000000000000001	1	0	0.7	0.30000000000000004	6	2	4.199999999999998	0.6000000000000001	valid	0.3999102979978488	51200	0	0	1	51200	1	51200	1	51200	1	0.7	51200	red	blue	1	6	ml	2.7.3	lorasick	sub-09_ses-01_task-ml_proj-lorasick_2021-02-03-14-13-22.275917
81	9	1	2	82	stable	1	200	82	sv	red	blue	red	blue	left	right	0.7	0.30000000000000004	4	6	2.8	1.8000000000000005	1	0	0.7	0.30000000000000004	4	6	2.8	1.8000000000000005	valid	0.4499179099984758	53248	0	1	2	51200	0	51200	0	53248	1	0.7	51200	red	blue	0	0	ml	2.7.3	lorasick	sub-09_ses-01_task-ml_proj-lorasick_2021-02-03-14-13-22.275917
82	9	1	2	83	stable	1	200	83	sv	red	blue	red	blue	left	right	0.7	0.30000000000000004	2	6	1.4	1.8000000000000005	1	0	0.7	0.30000000000000004	2	6	1.4	1.8000000000000005	valid	0.366601432000607	53248	0	1	2	53248	1	51200	0	53248	1	0.7	51200	red	blue	0	0	ml	2.7.3	lorasick	sub-09_ses-01_task-ml_proj-lorasick_2021-02-03-14-13-22.275917
83	9	1	2	84	stable	1	200	84	sv	red	blue	red	blue	left	right	0.7	0.30000000000000004	10	2	7.0	0.6000000000000001	1	0	0.7	0.30000000000000004	10	2	7.0	0.6000000000000001	valid	0.4998912390001351	53248	0	1	2	51200	0	51200	0	51200	0	0.7	51200	red	blue	1	0	ml	2.7.3	lorasick	sub-09_ses-01_task-ml_proj-lorasick_2021-02-03-14-13-22.275917
84	9	1	2	85	stable	1	200	85	sv	red	blue	red	blue	left	right	0.7	0.30000000000000004	2	4	1.4	1.2000000000000002	0	1	0.7	0.30000000000000004	2	4	1.4	1.2000000000000002	invalid	0.3499246329993184	51200	0	0	1	51200	1	51200	1	53248	0	0.7	51200	red	blue	0	0	ml	2.7.3	lorasick	sub-09_ses-01_task-ml_proj-lorasick_2021-02-03-14-13-22.275917
85	9	1	2	86	stable	1	200	86	sv	red	blue	red	blue	left	right	0.7	0.30000000000000004	6	4	4.199999999999998	1.2000000000000002	0	1	0.7	0.30000000000000004	6	4	4.199999999999998	1.2000000000000002	invalid	0.6831927169987466	51200	0	0	1	51200	1	51200	1	51200	1	0.7	51200	red	blue	1	0	ml	2.7.3	lorasick	sub-09_ses-01_task-ml_proj-lorasick_2021-02-03-14-13-22.275917
86	9	1	2	87	stable	1	200	87	sv	blue	red	red	blue	right	left	0.7	0.30000000000000004	2	6	1.4	1.8000000000000005	1	0	0.30000000000000004	0.7	6	2	1.8000000000000005	1.4	valid	0.38325102199814864	51200	0	0	2	51200	1	53248	0	51200	1	0.7	53248	red	blue	0	0	ml	2.7.3	lorasick	sub-09_ses-01_task-ml_proj-lorasick_2021-02-03-14-13-22.275917
87	9	1	2	88	stable	1	200	88	sv	blue	red	red	blue	right	left	0.7	0.30000000000000004	6	2	4.199999999999998	0.6000000000000001	0	1	0.30000000000000004	0.7	2	6	0.6000000000000001	4.199999999999998	invalid	0.4665578239983006	51200	0	0	2	53248	0	53248	0	53248	0	0.7	53248	red	blue	1	2	ml	2.7.3	lorasick	sub-09_ses-01_task-ml_proj-lorasick_2021-02-03-14-13-22.275917
88	9	1	2	89	stable	1	200	89	sv	red	blue	red	blue	left	right	0.7	0.30000000000000004	2	2	1.4	0.6000000000000001	0	1	0.7	0.30000000000000004	2	2	1.4	0.6000000000000001	invalid	0.4332512639994093	53248	0	1	2	51200	0	51200	0	53248	1	0.7	51200	red	blue	1	2	ml	2.7.3	lorasick	sub-09_ses-01_task-ml_proj-lorasick_2021-02-03-14-13-22.275917
89	9	1	2	90	stable	1	200	90	sv	blue	red	red	blue	right	left	0.7	0.30000000000000004	6	6	4.199999999999998	1.8000000000000005	1	0	0.30000000000000004	0.7	6	6	1.8000000000000005	4.199999999999998	valid	0.34992598600001656	51200	0	0	2	53248	0	53248	0	53248	0	0.7	53248	red	blue	0	0	ml	2.7.3	lorasick	sub-09_ses-01_task-ml_proj-lorasick_2021-02-03-14-13-22.275917
90	9	1	2	91	stable	1	200	91	sv	blue	red	red	blue	right	left	0.7	0.30000000000000004	10	2	7.0	0.6000000000000001	1	0	0.30000000000000004	0.7	2	10	0.6000000000000001	7.0	valid	0.4332453690003604	53248	0	1	1	53248	1	53248	1	53248	1	0.7	53248	red	blue	1	10	ml	2.7.3	lorasick	sub-09_ses-01_task-ml_proj-lorasick_2021-02-03-14-13-22.275917
91	9	1	2	92	stable	1	200	92	sv	red	blue	red	blue	left	right	0.7	0.30000000000000004	6	2	4.199999999999998	0.6000000000000001	1	0	0.7	0.30000000000000004	6	2	4.199999999999998	0.6000000000000001	valid	0.36658671599798254	51200	0	0	1	51200	1	51200	1	51200	1	0.7	51200	red	blue	1	6	ml	2.7.3	lorasick	sub-09_ses-01_task-ml_proj-lorasick_2021-02-03-14-13-22.275917
92	9	1	2	93	stable	1	200	93	sv	blue	red	red	blue	right	left	0.7	0.30000000000000004	10	2	7.0	0.6000000000000001	1	0	0.30000000000000004	0.7	2	10	0.6000000000000001	7.0	valid	0.4165813950021402	53248	0	1	1	53248	1	53248	1	53248	1	0.7	53248	red	blue	1	10	ml	2.7.3	lorasick	sub-09_ses-01_task-ml_proj-lorasick_2021-02-03-14-13-22.275917
93	9	1	2	94	stable	1	200	94	sv	blue	red	red	blue	right	left	0.7	0.30000000000000004	2	10	1.4	3.0000000000000004	0	1	0.30000000000000004	0.7	10	2	3.0000000000000004	1.4	invalid	0.4665638149999722	51200	0	0	2	51200	1	53248	0	51200	1	0.7	53248	red	blue	0	10	ml	2.7.3	lorasick	sub-09_ses-01_task-ml_proj-lorasick_2021-02-03-14-13-22.275917
94	9	1	2	95	stable	1	200	95	sv	red	blue	red	blue	left	right	0.7	0.30000000000000004	2	6	1.4	1.8000000000000005	0	1	0.7	0.30000000000000004	2	6	1.4	1.8000000000000005	invalid	0.39991992200157256	53248	0	1	2	53248	1	51200	0	53248	1	0.7	51200	red	blue	0	6	ml	2.7.3	lorasick	sub-09_ses-01_task-ml_proj-lorasick_2021-02-03-14-13-22.275917
95	9	1	2	96	stable	1	200	96	sv	red	blue	red	blue	left	right	0.7	0.30000000000000004	6	6	4.199999999999998	1.8000000000000005	1	0	0.7	0.30000000000000004	6	6	4.199999999999998	1.8000000000000005	valid	0.4832294289990386	53248	0	1	2	51200	0	51200	0	53248	1	0.7	51200	red	blue	1	0	ml	2.7.3	lorasick	sub-09_ses-01_task-ml_proj-lorasick_2021-02-03-14-13-22.275917
96	9	1	2	97	stable	1	200	97	sv	blue	red	red	blue	right	left	0.7	0.30000000000000004	6	6	4.199999999999998	1.8000000000000005	1	0	0.30000000000000004	0.7	6	6	1.8000000000000005	4.199999999999998	valid	0.3999180400023761	53248	0	1	1	53248	1	53248	1	53248	1	0.7	53248	red	blue	0	6	ml	2.7.3	lorasick	sub-09_ses-01_task-ml_proj-lorasick_2021-02-03-14-13-22.275917
97	9	1	2	98	stable	1	200	98	sv	red	blue	red	blue	left	right	0.7	0.30000000000000004	10	2	7.0	0.6000000000000001	1	0	0.7	0.30000000000000004	10	2	7.0	0.6000000000000001	valid	0.3665874229991459	51200	0	0	1	51200	1	51200	1	51200	1	0.7	51200	red	blue	1	10	ml	2.7.3	lorasick	sub-09_ses-01_task-ml_proj-lorasick_2021-02-03-14-13-22.275917
98	9	1	2	99	stable	1	200	99	sv	red	blue	red	blue	left	right	0.7	0.30000000000000004	6	2	4.199999999999998	0.6000000000000001	1	0	0.7	0.30000000000000004	6	2	4.199999999999998	0.6000000000000001	valid	0.4332350240001688	51200	0	0	1	51200	1	51200	1	51200	1	0.7	51200	red	blue	1	6	ml	2.7.3	lorasick	sub-09_ses-01_task-ml_proj-lorasick_2021-02-03-14-13-22.275917
99	9	1	2	100	stable	1	200	100	sv	blue	red	red	blue	right	left	0.7	0.30000000000000004	2	6	1.4	1.8000000000000005	1	0	0.30000000000000004	0.7	6	2	1.8000000000000005	1.4	valid	0.5165559199995187	53248	0	1	1	51200	0	53248	1	51200	0	0.7	53248	red	blue	0	2	ml	2.7.3	lorasick	sub-09_ses-01_task-ml_proj-lorasick_2021-02-03-14-13-22.275917
100	9	1	3	101	stable	1	200	101	sv	blue	red	red	blue	right	left	0.7	0.30000000000000004	6	2	4.199999999999998	0.6000000000000001	1	0	0.30000000000000004	0.7	2	6	0.6000000000000001	4.199999999999998	valid	0.4165824409974448	53248	0	1	1	53248	1	53248	1	53248	1	0.7	53248	red	blue	1	6	ml	2.7.3	lorasick	sub-09_ses-01_task-ml_proj-lorasick_2021-02-03-14-13-22.275917
101	9	1	3	102	stable	1	200	102	sv	red	blue	red	blue	left	right	0.7	0.30000000000000004	6	4	4.199999999999998	1.2000000000000002	1	0	0.7	0.30000000000000004	6	4	4.199999999999998	1.2000000000000002	valid	0.41656839400093293	51200	0	0	1	51200	1	51200	1	51200	1	0.7	51200	red	blue	1	6	ml	2.7.3	lorasick	sub-09_ses-01_task-ml_proj-lorasick_2021-02-03-14-13-22.275917
102	9	1	3	103	stable	1	200	103	sv	blue	red	red	blue	right	left	0.7	0.30000000000000004	2	10	1.4	3.0000000000000004	1	0	0.30000000000000004	0.7	10	2	3.0000000000000004	1.4	valid	0.44990667100137216	53248	0	1	1	51200	0	53248	1	51200	0	0.7	53248	red	blue	0	2	ml	2.7.3	lorasick	sub-09_ses-01_task-ml_proj-lorasick_2021-02-03-14-13-22.275917
103	9	1	3	104	stable	1	200	104	sv	red	blue	red	blue	left	right	0.7	0.30000000000000004	6	6	4.199999999999998	1.8000000000000005	1	0	0.7	0.30000000000000004	6	6	4.199999999999998	1.8000000000000005	valid	0.4665614689984068	51200	0	0	1	51200	1	51200	1	53248	0	0.7	51200	red	blue	1	6	ml	2.7.3	lorasick	sub-09_ses-01_task-ml_proj-lorasick_2021-02-03-14-13-22.275917
104	9	1	3	105	stable	1	200	105	sv	red	blue	red	blue	left	right	0.7	0.30000000000000004	4	2	2.8	0.6000000000000001	0	1	0.7	0.30000000000000004	4	2	2.8	0.6000000000000001	invalid	0.3832643480018305	53248	0	1	2	51200	0	51200	0	51200	0	0.7	51200	red	blue	1	2	ml	2.7.3	lorasick	sub-09_ses-01_task-ml_proj-lorasick_2021-02-03-14-13-22.275917
105	9	1	3	106	stable	1	200	106	sv	red	blue	red	blue	left	right	0.7	0.30000000000000004	2	4	1.4	1.2000000000000002	1	0	0.7	0.30000000000000004	2	4	1.4	1.2000000000000002	valid	0.3832559090005816	53248	0	1	2	51200	0	51200	0	53248	1	0.7	51200	red	blue	0	0	ml	2.7.3	lorasick	sub-09_ses-01_task-ml_proj-lorasick_2021-02-03-14-13-22.275917
106	9	1	3	107	stable	1	200	107	sv	red	blue	red	blue	left	right	0.7	0.30000000000000004	4	6	2.8	1.8000000000000005	1	0	0.7	0.30000000000000004	4	6	2.8	1.8000000000000005	valid	0.34992376099762623	51200	0	0	1	51200	1	51200	1	53248	0	0.7	51200	red	blue	0	4	ml	2.7.3	lorasick	sub-09_ses-01_task-ml_proj-lorasick_2021-02-03-14-13-22.275917
107	9	1	3	108	stable	1	200	108	sv	blue	red	red	blue	right	left	0.7	0.30000000000000004	2	10	1.4	3.0000000000000004	0	1	0.30000000000000004	0.7	10	2	3.0000000000000004	1.4	invalid	0.3332665080015431	53248	0	1	1	51200	0	53248	1	51200	0	0.7	53248	red	blue	0	0	ml	2.7.3	lorasick	sub-09_ses-01_task-ml_proj-lorasick_2021-02-03-14-13-22.275917
108	9	1	3	109	stable	1	200	109	sv	blue	red	red	blue	right	left	0.7	0.30000000000000004	6	4	4.199999999999998	1.2000000000000002	0	1	0.30000000000000004	0.7	4	6	1.2000000000000002	4.199999999999998	invalid	0.3999129330004507	51200	0	0	2	53248	0	53248	0	53248	0	0.7	53248	red	blue	1	4	ml	2.7.3	lorasick	sub-09_ses-01_task-ml_proj-lorasick_2021-02-03-14-13-22.275917
109	9	1	3	110	stable	1	200	110	sv	blue	red	red	blue	right	left	0.7	0.30000000000000004	6	4	4.199999999999998	1.2000000000000002	1	0	0.30000000000000004	0.7	4	6	1.2000000000000002	4.199999999999998	valid	0.3999041959978058	51200	0	0	2	53248	0	53248	0	53248	0	0.7	53248	red	blue	1	0	ml	2.7.3	lorasick	sub-09_ses-01_task-ml_proj-lorasick_2021-02-03-14-13-22.275917
110	9	1	3	111	stable	1	200	111	sv	blue	red	red	blue	right	left	0.7	0.30000000000000004	6	4	4.199999999999998	1.2000000000000002	1	0	0.30000000000000004	0.7	4	6	1.2000000000000002	4.199999999999998	valid	0.43324379099794896	53248	0	1	1	53248	1	53248	1	53248	1	0.7	53248	red	blue	1	6	ml	2.7.3	lorasick	sub-09_ses-01_task-ml_proj-lorasick_2021-02-03-14-13-22.275917
111	9	1	3	112	stable	1	200	112	sv	red	blue	red	blue	left	right	0.7	0.30000000000000004	6	2	4.199999999999998	0.6000000000000001	0	1	0.7	0.30000000000000004	6	2	4.199999999999998	0.6000000000000001	invalid	0.5165520580012526	53248	0	1	2	51200	0	51200	0	51200	0	0.7	51200	red	blue	1	2	ml	2.7.3	lorasick	sub-09_ses-01_task-ml_proj-lorasick_2021-02-03-14-13-22.275917
112	9	1	3	113	stable	1	200	113	sv	red	blue	red	blue	left	right	0.7	0.30000000000000004	6	6	4.199999999999998	1.8000000000000005	1	0	0.7	0.30000000000000004	6	6	4.199999999999998	1.8000000000000005	valid	0.4498982620025345	51200	0	0	1	51200	1	51200	1	53248	0	0.7	51200	red	blue	1	6	ml	2.7.3	lorasick	sub-09_ses-01_task-ml_proj-lorasick_2021-02-03-14-13-22.275917
113	9	1	3	114	stable	1	200	114	sv	red	blue	red	blue	left	right	0.7	0.30000000000000004	6	4	4.199999999999998	1.2000000000000002	0	1	0.7	0.30000000000000004	6	4	4.199999999999998	1.2000000000000002	invalid	0.33326305499940645	51200	0	0	1	51200	1	51200	1	51200	1	0.7	51200	red	blue	1	0	ml	2.7.3	lorasick	sub-09_ses-01_task-ml_proj-lorasick_2021-02-03-14-13-22.275917
114	9	1	3	115	stable	1	200	115	sv	blue	red	red	blue	right	left	0.7	0.30000000000000004	2	2	1.4	0.6000000000000001	1	0	0.30000000000000004	0.7	2	2	0.6000000000000001	1.4	valid	0.4499061120004626	53248	0	1	1	53248	1	53248	1	53248	1	0.7	53248	red	blue	0	2	ml	2.7.3	lorasick	sub-09_ses-01_task-ml_proj-lorasick_2021-02-03-14-13-22.275917
115	9	1	3	116	stable	1	200	116	sv	blue	red	red	blue	right	left	0.7	0.30000000000000004	2	2	1.4	0.6000000000000001	0	1	0.30000000000000004	0.7	2	2	0.6000000000000001	1.4	invalid	0.4165865890026907	53248	0	1	1	53248	1	53248	1	53248	1	0.7	53248	red	blue	0	0	ml	2.7.3	lorasick	sub-09_ses-01_task-ml_proj-lorasick_2021-02-03-14-13-22.275917
116	9	1	3	117	stable	1	200	117	sv	blue	red	red	blue	right	left	0.7	0.30000000000000004	2	2	1.4	0.6000000000000001	1	0	0.30000000000000004	0.7	2	2	0.6000000000000001	1.4	valid	0.5998703870027384	53248	0	1	1	53248	1	53248	1	53248	1	0.7	53248	red	blue	0	2	ml	2.7.3	lorasick	sub-09_ses-01_task-ml_proj-lorasick_2021-02-03-14-13-22.275917
117	9	1	3	118	stable	1	200	118	sv	blue	red	red	blue	right	left	0.7	0.30000000000000004	2	10	1.4	3.0000000000000004	1	0	0.30000000000000004	0.7	10	2	3.0000000000000004	1.4	valid	0.4998913980016368	53248	0	1	1	51200	0	53248	1	51200	0	0.7	53248	red	blue	0	2	ml	2.7.3	lorasick	sub-09_ses-01_task-ml_proj-lorasick_2021-02-03-14-13-22.275917
118	9	1	3	119	stable	1	200	119	sv	blue	red	red	blue	right	left	0.7	0.30000000000000004	10	2	7.0	0.6000000000000001	0	1	0.30000000000000004	0.7	2	10	0.6000000000000001	7.0	invalid	0.5332166099979077	53248	0	1	1	53248	1	53248	1	53248	1	0.7	53248	red	blue	1	0	ml	2.7.3	lorasick	sub-09_ses-01_task-ml_proj-lorasick_2021-02-03-14-13-22.275917
119	9	1	3	120	stable	1	200	120	sv	red	blue	red	blue	left	right	0.7	0.30000000000000004	6	6	4.199999999999998	1.8000000000000005	1	0	0.7	0.30000000000000004	6	6	4.199999999999998	1.8000000000000005	valid	0.4332341400004225	51200	0	0	1	51200	1	51200	1	53248	0	0.7	51200	red	blue	1	6	ml	2.7.3	lorasick	sub-09_ses-01_task-ml_proj-lorasick_2021-02-03-14-13-22.275917
120	9	1	3	121	stable	1	200	121	sv	red	blue	red	blue	left	right	0.7	0.30000000000000004	4	2	2.8	0.6000000000000001	1	0	0.7	0.30000000000000004	4	2	2.8	0.6000000000000001	valid	0.3832473379989096	51200	0	0	1	51200	1	51200	1	51200	1	0.7	51200	red	blue	1	4	ml	2.7.3	lorasick	sub-09_ses-01_task-ml_proj-lorasick_2021-02-03-14-13-22.275917
121	9	1	3	122	stable	1	200	122	sv	red	blue	red	blue	left	right	0.7	0.30000000000000004	2	4	1.4	1.2000000000000002	1	0	0.7	0.30000000000000004	2	4	1.4	1.2000000000000002	valid	0.5165447299987136	51200	0	0	1	51200	1	51200	1	53248	0	0.7	51200	red	blue	0	2	ml	2.7.3	lorasick	sub-09_ses-01_task-ml_proj-lorasick_2021-02-03-14-13-22.275917
122	9	1	3	123	stable	1	200	123	sv	red	blue	red	blue	left	right	0.7	0.30000000000000004	2	10	1.4	3.0000000000000004	1	0	0.7	0.30000000000000004	2	10	1.4	3.0000000000000004	valid	0.4832310619967757	53248	0	1	2	53248	1	51200	0	53248	1	0.7	51200	red	blue	0	0	ml	2.7.3	lorasick	sub-09_ses-01_task-ml_proj-lorasick_2021-02-03-14-13-22.275917
123	9	1	3	124	stable	1	200	124	sv	blue	red	red	blue	right	left	0.7	0.30000000000000004	6	4	4.199999999999998	1.2000000000000002	0	1	0.30000000000000004	0.7	4	6	1.2000000000000002	4.199999999999998	invalid	0.3166023559970199	51200	0	0	2	53248	0	53248	0	53248	0	0.7	53248	red	blue	1	4	ml	2.7.3	lorasick	sub-09_ses-01_task-ml_proj-lorasick_2021-02-03-14-13-22.275917
124	9	1	3	125	stable	1	200	125	sv	red	blue	red	blue	left	right	0.7	0.30000000000000004	2	6	1.4	1.8000000000000005	1	0	0.7	0.30000000000000004	2	6	1.4	1.8000000000000005	valid	0.43324319800012745	53248	0	1	2	53248	1	51200	0	53248	1	0.7	51200	red	blue	0	0	ml	2.7.3	lorasick	sub-09_ses-01_task-ml_proj-lorasick_2021-02-03-14-13-22.275917
125	9	1	3	126	stable	1	200	126	sv	red	blue	red	blue	left	right	0.7	0.30000000000000004	6	2	4.199999999999998	0.6000000000000001	0	1	0.7	0.30000000000000004	6	2	4.199999999999998	0.6000000000000001	invalid	0.3499218150027445	51200	0	0	1	51200	1	51200	1	51200	1	0.7	51200	red	blue	1	0	ml	2.7.3	lorasick	sub-09_ses-01_task-ml_proj-lorasick_2021-02-03-14-13-22.275917
126	9	1	3	127	stable	1	200	127	sv	blue	red	red	blue	right	left	0.7	0.30000000000000004	6	4	4.199999999999998	1.2000000000000002	1	0	0.30000000000000004	0.7	4	6	1.2000000000000002	4.199999999999998	valid	0.3999220819969196	53248	0	1	1	53248	1	53248	1	53248	1	0.7	53248	red	blue	1	6	ml	2.7.3	lorasick	sub-09_ses-01_task-ml_proj-lorasick_2021-02-03-14-13-22.275917
127	9	1	3	128	stable	1	200	128	sv	red	blue	red	blue	left	right	0.7	0.30000000000000004	6	6	4.199999999999998	1.8000000000000005	0	1	0.7	0.30000000000000004	6	6	4.199999999999998	1.8000000000000005	invalid	0.39991030800229055	51200	0	0	1	51200	1	51200	1	53248	0	0.7	51200	red	blue	1	0	ml	2.7.3	lorasick	sub-09_ses-01_task-ml_proj-lorasick_2021-02-03-14-13-22.275917
128	9	1	3	129	stable	1	200	129	sv	blue	red	red	blue	right	left	0.7	0.30000000000000004	10	2	7.0	0.6000000000000001	1	0	0.30000000000000004	0.7	2	10	0.6000000000000001	7.0	valid	0.41657556700010906	53248	0	1	1	53248	1	53248	1	53248	1	0.7	53248	red	blue	1	10	ml	2.7.3	lorasick	sub-09_ses-01_task-ml_proj-lorasick_2021-02-03-14-13-22.275917
129	9	1	3	130	stable	1	200	130	sv	red	blue	red	blue	left	right	0.7	0.30000000000000004	4	2	2.8	0.6000000000000001	1	0	0.7	0.30000000000000004	4	2	2.8	0.6000000000000001	valid	0.4499153180004214	53248	0	1	2	51200	0	51200	0	51200	0	0.7	51200	red	blue	1	0	ml	2.7.3	lorasick	sub-09_ses-01_task-ml_proj-lorasick_2021-02-03-14-13-22.275917
130	9	1	3	131	stable	1	200	131	sv	blue	red	red	blue	right	left	0.7	0.30000000000000004	2	10	1.4	3.0000000000000004	1	0	0.30000000000000004	0.7	10	2	3.0000000000000004	1.4	valid	0.466548648000753	51200	0	0	2	51200	1	53248	0	51200	1	0.7	53248	red	blue	0	0	ml	2.7.3	lorasick	sub-09_ses-01_task-ml_proj-lorasick_2021-02-03-14-13-22.275917
131	9	1	3	132	stable	1	200	132	sv	blue	red	red	blue	right	left	0.7	0.30000000000000004	10	2	7.0	0.6000000000000001	1	0	0.30000000000000004	0.7	2	10	0.6000000000000001	7.0	valid	0.4165860659995815	53248	0	1	1	53248	1	53248	1	53248	1	0.7	53248	red	blue	1	10	ml	2.7.3	lorasick	sub-09_ses-01_task-ml_proj-lorasick_2021-02-03-14-13-22.275917
132	9	1	3	133	stable	1	200	133	sv	red	blue	red	blue	left	right	0.7	0.30000000000000004	2	2	1.4	0.6000000000000001	1	0	0.7	0.30000000000000004	2	2	1.4	0.6000000000000001	valid	0.4998790850004298	51200	0	0	1	51200	1	51200	1	53248	0	0.7	51200	red	blue	1	2	ml	2.7.3	lorasick	sub-09_ses-01_task-ml_proj-lorasick_2021-02-03-14-13-22.275917
133	9	1	3	134	stable	1	200	134	sv	blue	red	red	blue	right	left	0.7	0.30000000000000004	10	2	7.0	0.6000000000000001	1	0	0.30000000000000004	0.7	2	10	0.6000000000000001	7.0	valid	0.3999281209980836	53248	0	1	1	53248	1	53248	1	53248	1	0.7	53248	red	blue	1	10	ml	2.7.3	lorasick	sub-09_ses-01_task-ml_proj-lorasick_2021-02-03-14-13-22.275917
134	9	1	3	135	stable	1	200	135	sv	red	blue	red	blue	left	right	0.7	0.30000000000000004	10	2	7.0	0.6000000000000001	1	0	0.7	0.30000000000000004	10	2	7.0	0.6000000000000001	valid	0.3999181479994149	51200	0	0	1	51200	1	51200	1	51200	1	0.7	51200	red	blue	1	10	ml	2.7.3	lorasick	sub-09_ses-01_task-ml_proj-lorasick_2021-02-03-14-13-22.275917
135	9	1	3	136	stable	1	200	136	sv	blue	red	red	blue	right	left	0.7	0.30000000000000004	2	10	1.4	3.0000000000000004	1	0	0.30000000000000004	0.7	10	2	3.0000000000000004	1.4	valid	0.4332364500005497	51200	0	0	2	51200	1	53248	0	51200	1	0.7	53248	red	blue	0	0	ml	2.7.3	lorasick	sub-09_ses-01_task-ml_proj-lorasick_2021-02-03-14-13-22.275917
136	9	1	3	137	stable	1	200	137	sv	red	blue	red	blue	left	right	0.7	0.30000000000000004	2	10	1.4	3.0000000000000004	0	1	0.7	0.30000000000000004	2	10	1.4	3.0000000000000004	invalid	0.4165852750011254	53248	0	1	2	53248	1	51200	0	53248	1	0.7	51200	red	blue	0	10	ml	2.7.3	lorasick	sub-09_ses-01_task-ml_proj-lorasick_2021-02-03-14-13-22.275917
137	9	1	3	138	stable	1	200	138	sv	blue	red	red	blue	right	left	0.7	0.30000000000000004	4	2	2.8	0.6000000000000001	0	1	0.30000000000000004	0.7	2	4	0.6000000000000001	2.8	invalid	0.5165595709986519	53248	0	1	1	53248	1	53248	1	53248	1	0.7	53248	red	blue	1	0	ml	2.7.3	lorasick	sub-09_ses-01_task-ml_proj-lorasick_2021-02-03-14-13-22.275917
138	9	1	3	139	stable	1	200	139	sv	blue	red	red	blue	right	left	0.7	0.30000000000000004	2	2	1.4	0.6000000000000001	1	0	0.30000000000000004	0.7	2	2	0.6000000000000001	1.4	valid	0.3499238209988107	51200	0	0	2	53248	0	53248	0	53248	0	0.7	53248	red	blue	0	0	ml	2.7.3	lorasick	sub-09_ses-01_task-ml_proj-lorasick_2021-02-03-14-13-22.275917
139	9	1	3	140	stable	1	200	140	sv	blue	red	red	blue	right	left	0.7	0.30000000000000004	6	2	4.199999999999998	0.6000000000000001	0	1	0.30000000000000004	0.7	2	6	0.6000000000000001	4.199999999999998	invalid	0.39992102900214377	53248	0	1	1	53248	1	53248	1	53248	1	0.7	53248	red	blue	1	0	ml	2.7.3	lorasick	sub-09_ses-01_task-ml_proj-lorasick_2021-02-03-14-13-22.275917
140	9	1	3	141	stable	1	200	141	sv	blue	red	red	blue	right	left	0.7	0.30000000000000004	4	6	2.8	1.8000000000000005	0	1	0.30000000000000004	0.7	6	4	1.8000000000000005	2.8	invalid	0.5665403279999737	53248	0	1	1	53248	1	53248	1	51200	0	0.7	53248	red	blue	0	0	ml	2.7.3	lorasick	sub-09_ses-01_task-ml_proj-lorasick_2021-02-03-14-13-22.275917
141	9	1	3	142	stable	1	200	142	sv	blue	red	red	blue	right	left	0.7	0.30000000000000004	6	2	4.199999999999998	0.6000000000000001	1	0	0.30000000000000004	0.7	2	6	0.6000000000000001	4.199999999999998	valid	0.38326224800039205	53248	0	1	1	53248	1	53248	1	53248	1	0.7	53248	red	blue	1	6	ml	2.7.3	lorasick	sub-09_ses-01_task-ml_proj-lorasick_2021-02-03-14-13-22.275917
142	9	1	3	143	stable	1	200	143	sv	blue	red	red	blue	right	left	0.7	0.30000000000000004	6	2	4.199999999999998	0.6000000000000001	1	0	0.30000000000000004	0.7	2	6	0.6000000000000001	4.199999999999998	valid	0.3832604380004341	53248	0	1	1	53248	1	53248	1	53248	1	0.7	53248	red	blue	1	6	ml	2.7.3	lorasick	sub-09_ses-01_task-ml_proj-lorasick_2021-02-03-14-13-22.275917
143	9	1	3	144	stable	1	200	144	sv	blue	red	red	blue	right	left	0.7	0.30000000000000004	2	10	1.4	3.0000000000000004	1	0	0.30000000000000004	0.7	10	2	3.0000000000000004	1.4	valid	0.6831640499985951	51200	0	0	2	51200	1	53248	0	51200	1	0.7	53248	red	blue	0	0	ml	2.7.3	lorasick	sub-09_ses-01_task-ml_proj-lorasick_2021-02-03-14-13-22.275917
144	9	1	3	145	stable	1	200	145	sv	red	blue	red	blue	left	right	0.7	0.30000000000000004	4	6	2.8	1.8000000000000005	0	1	0.7	0.30000000000000004	4	6	2.8	1.8000000000000005	invalid	0.6998200509988237	51200	0	0	1	51200	1	51200	1	53248	0	0.7	51200	red	blue	0	0	ml	2.7.3	lorasick	sub-09_ses-01_task-ml_proj-lorasick_2021-02-03-14-13-22.275917
145	9	1	3	146	stable	1	200	146	sv	red	blue	red	blue	left	right	0.7	0.30000000000000004	2	10	1.4	3.0000000000000004	1	0	0.7	0.30000000000000004	2	10	1.4	3.0000000000000004	valid	0.4665565639988927	51200	0	0	1	53248	0	51200	1	53248	0	0.7	51200	red	blue	0	2	ml	2.7.3	lorasick	sub-09_ses-01_task-ml_proj-lorasick_2021-02-03-14-13-22.275917
146	9	1	3	147	stable	1	200	147	sv	red	blue	red	blue	left	right	0.7	0.30000000000000004	6	4	4.199999999999998	1.2000000000000002	1	0	0.7	0.30000000000000004	6	4	4.199999999999998	1.2000000000000002	valid	0.3665875039987441	51200	0	0	1	51200	1	51200	1	51200	1	0.7	51200	red	blue	1	6	ml	2.7.3	lorasick	sub-09_ses-01_task-ml_proj-lorasick_2021-02-03-14-13-22.275917
147	9	1	3	148	stable	1	200	148	sv	red	blue	red	blue	left	right	0.7	0.30000000000000004	10	2	7.0	0.6000000000000001	1	0	0.7	0.30000000000000004	10	2	7.0	0.6000000000000001	valid	0.4332369309995556	51200	0	0	1	51200	1	51200	1	51200	1	0.7	51200	red	blue	1	10	ml	2.7.3	lorasick	sub-09_ses-01_task-ml_proj-lorasick_2021-02-03-14-13-22.275917
148	9	1	3	149	stable	1	200	149	sv	blue	red	red	blue	right	left	0.7	0.30000000000000004	4	6	2.8	1.8000000000000005	0	1	0.30000000000000004	0.7	6	4	1.8000000000000005	2.8	invalid	0.433244576001016	53248	0	1	1	53248	1	53248	1	51200	0	0.7	53248	red	blue	0	0	ml	2.7.3	lorasick	sub-09_ses-01_task-ml_proj-lorasick_2021-02-03-14-13-22.275917
149	9	1	3	150	stable	1	200	150	sv	red	blue	red	blue	left	right	0.7	0.30000000000000004	6	2	4.199999999999998	0.6000000000000001	1	0	0.7	0.30000000000000004	6	2	4.199999999999998	0.6000000000000001	valid	0.4332352759993228	51200	0	0	1	51200	1	51200	1	51200	1	0.7	51200	red	blue	1	6	ml	2.7.3	lorasick	sub-09_ses-01_task-ml_proj-lorasick_2021-02-03-14-13-22.275917
150	9	1	4	151	stable	1	200	151	sv	red	blue	red	blue	left	right	0.7	0.30000000000000004	2	10	1.4	3.0000000000000004	1	0	0.7	0.30000000000000004	2	10	1.4	3.0000000000000004	valid	0.7831424629985122	53248	0	1	2	53248	1	51200	0	53248	1	0.7	51200	red	blue	0	0	ml	2.7.3	lorasick	sub-09_ses-01_task-ml_proj-lorasick_2021-02-03-14-13-22.275917
151	9	1	4	152	stable	1	200	152	sv	blue	red	red	blue	right	left	0.7	0.30000000000000004	6	2	4.199999999999998	0.6000000000000001	0	1	0.30000000000000004	0.7	2	6	0.6000000000000001	4.199999999999998	invalid	0.4832188719992701	51200	0	0	2	53248	0	53248	0	53248	0	0.7	53248	red	blue	1	2	ml	2.7.3	lorasick	sub-09_ses-01_task-ml_proj-lorasick_2021-02-03-14-13-22.275917
152	9	1	4	153	stable	1	200	153	sv	red	blue	red	blue	left	right	0.7	0.30000000000000004	6	4	4.199999999999998	1.2000000000000002	1	0	0.7	0.30000000000000004	6	4	4.199999999999998	1.2000000000000002	valid	0.0001181920015369542	51200	0	0	1	51200	1	51200	1	51200	1	0.7	51200	red	blue	1	6	ml	2.7.3	lorasick	sub-09_ses-01_task-ml_proj-lorasick_2021-02-03-14-13-22.275917
153	9	1	4	154	stable	1	200	154	sv	red	blue	red	blue	left	right	0.7	0.30000000000000004	6	6	4.199999999999998	1.8000000000000005	1	0	0.7	0.30000000000000004	6	6	4.199999999999998	1.8000000000000005	valid	0.4165788289974444	51200	0	0	1	51200	1	51200	1	53248	0	0.7	51200	red	blue	1	6	ml	2.7.3	lorasick	sub-09_ses-01_task-ml_proj-lorasick_2021-02-03-14-13-22.275917
154	9	1	4	155	stable	1	200	155	sv	red	blue	red	blue	left	right	0.7	0.30000000000000004	2	4	1.4	1.2000000000000002	1	0	0.7	0.30000000000000004	2	4	1.4	1.2000000000000002	valid	0.5165538089968322	53248	0	1	2	51200	0	51200	0	53248	1	0.7	51200	red	blue	0	0	ml	2.7.3	lorasick	sub-09_ses-01_task-ml_proj-lorasick_2021-02-03-14-13-22.275917
155	9	1	4	156	stable	1	200	156	sv	blue	red	red	blue	right	left	0.7	0.30000000000000004	2	6	1.4	1.8000000000000005	0	1	0.30000000000000004	0.7	6	2	1.8000000000000005	1.4	invalid	0.3832469070002844	51200	0	0	2	51200	1	53248	0	51200	1	0.7	53248	red	blue	0	6	ml	2.7.3	lorasick	sub-09_ses-01_task-ml_proj-lorasick_2021-02-03-14-13-22.275917
156	9	1	4	157	stable	1	200	157	sv	blue	red	red	blue	right	left	0.7	0.30000000000000004	4	6	2.8	1.8000000000000005	1	0	0.30000000000000004	0.7	6	4	1.8000000000000005	2.8	valid	0.5332153660019685	53248	0	1	1	53248	1	53248	1	51200	0	0.7	53248	red	blue	0	4	ml	2.7.3	lorasick	sub-09_ses-01_task-ml_proj-lorasick_2021-02-03-14-13-22.275917
157	9	1	4	158	stable	1	200	158	sv	red	blue	red	blue	left	right	0.7	0.30000000000000004	4	2	2.8	0.6000000000000001	1	0	0.7	0.30000000000000004	4	2	2.8	0.6000000000000001	valid	0.3999104279973835	51200	0	0	1	51200	1	51200	1	51200	1	0.7	51200	red	blue	1	4	ml	2.7.3	lorasick	sub-09_ses-01_task-ml_proj-lorasick_2021-02-03-14-13-22.275917
158	9	1	4	159	stable	1	200	159	sv	blue	red	red	blue	right	left	0.7	0.30000000000000004	6	2	4.199999999999998	0.6000000000000001	1	0	0.30000000000000004	0.7	2	6	0.6000000000000001	4.199999999999998	valid	0.4332457059972512	53248	0	1	1	53248	1	53248	1	53248	1	0.7	53248	red	blue	1	6	ml	2.7.3	lorasick	sub-09_ses-01_task-ml_proj-lorasick_2021-02-03-14-13-22.275917
159	9	1	4	160	stable	1	200	160	sv	blue	red	red	blue	right	left	0.7	0.30000000000000004	2	4	1.4	1.2000000000000002	1	0	0.30000000000000004	0.7	4	2	1.2000000000000002	1.4	valid	0.7331613780006592	53248	0	1	1	53248	1	53248	1	51200	0	0.7	53248	red	blue	0	2	ml	2.7.3	lorasick	sub-09_ses-01_task-ml_proj-lorasick_2021-02-03-14-13-22.275917
160	9	1	4	161	stable	1	200	161	sv	red	blue	red	blue	left	right	0.7	0.30000000000000004	6	2	4.199999999999998	0.6000000000000001	1	0	0.7	0.30000000000000004	6	2	4.199999999999998	0.6000000000000001	valid	0.4998915539981681	53248	0	1	2	51200	0	51200	0	51200	0	0.7	51200	red	blue	1	0	ml	2.7.3	lorasick	sub-09_ses-01_task-ml_proj-lorasick_2021-02-03-14-13-22.275917
161	9	1	4	162	stable	1	200	162	sv	red	blue	red	blue	left	right	0.7	0.30000000000000004	6	2	4.199999999999998	0.6000000000000001	0	1	0.7	0.30000000000000004	6	2	4.199999999999998	0.6000000000000001	invalid	0.4165834009982064	53248	0	1	2	51200	0	51200	0	51200	0	0.7	51200	red	blue	1	2	ml	2.7.3	lorasick	sub-09_ses-01_task-ml_proj-lorasick_2021-02-03-14-13-22.275917
162	9	1	4	163	stable	1	200	163	sv	blue	red	red	blue	right	left	0.7	0.30000000000000004	6	4	4.199999999999998	1.2000000000000002	1	0	0.30000000000000004	0.7	4	6	1.2000000000000002	4.199999999999998	valid	0.4499068479999551	53248	0	1	1	53248	1	53248	1	53248	1	0.7	53248	red	blue	1	6	ml	2.7.3	lorasick	sub-09_ses-01_task-ml_proj-lorasick_2021-02-03-14-13-22.275917
163	9	1	4	164	stable	1	200	164	sv	red	blue	red	blue	left	right	0.7	0.30000000000000004	2	4	1.4	1.2000000000000002	1	0	0.7	0.30000000000000004	2	4	1.4	1.2000000000000002	valid	0.6831608159991447	51200	0	0	1	51200	1	51200	1	53248	0	0.7	51200	red	blue	0	2	ml	2.7.3	lorasick	sub-09_ses-01_task-ml_proj-lorasick_2021-02-03-14-13-22.275917
164	9	1	4	165	stable	1	200	165	sv	red	blue	red	blue	left	right	0.7	0.30000000000000004	6	2	4.199999999999998	0.6000000000000001	1	0	0.7	0.30000000000000004	6	2	4.199999999999998	0.6000000000000001	valid	0.3665815999993356	51200	0	0	1	51200	1	51200	1	51200	1	0.7	51200	red	blue	1	6	ml	2.7.3	lorasick	sub-09_ses-01_task-ml_proj-lorasick_2021-02-03-14-13-22.275917
165	9	1	4	166	stable	1	200	166	sv	blue	red	red	blue	right	left	0.7	0.30000000000000004	2	2	1.4	0.6000000000000001	1	0	0.30000000000000004	0.7	2	2	0.6000000000000001	1.4	valid	0.4499050500016892	53248	0	1	1	53248	1	53248	1	53248	1	0.7	53248	red	blue	0	2	ml	2.7.3	lorasick	sub-09_ses-01_task-ml_proj-lorasick_2021-02-03-14-13-22.275917
166	9	1	4	167	stable	1	200	167	sv	blue	red	red	blue	right	left	0.7	0.30000000000000004	2	4	1.4	1.2000000000000002	1	0	0.30000000000000004	0.7	4	2	1.2000000000000002	1.4	valid	0.4165700689991354	51200	0	0	2	53248	0	53248	0	51200	1	0.7	53248	red	blue	0	0	ml	2.7.3	lorasick	sub-09_ses-01_task-ml_proj-lorasick_2021-02-03-14-13-22.275917
167	9	1	4	168	stable	1	200	168	sv	blue	red	red	blue	right	left	0.7	0.30000000000000004	2	2	1.4	0.6000000000000001	1	0	0.30000000000000004	0.7	2	2	0.6000000000000001	1.4	valid	0.3665876759987441	51200	0	0	2	53248	0	53248	0	53248	0	0.7	53248	red	blue	0	0	ml	2.7.3	lorasick	sub-09_ses-01_task-ml_proj-lorasick_2021-02-03-14-13-22.275917
168	9	1	4	169	stable	1	200	169	sv	blue	red	red	blue	right	left	0.7	0.30000000000000004	6	6	4.199999999999998	1.8000000000000005	1	0	0.30000000000000004	0.7	6	6	1.8000000000000005	4.199999999999998	valid	0.3665853960010281	51200	0	0	2	53248	0	53248	0	53248	0	0.7	53248	red	blue	0	0	ml	2.7.3	lorasick	sub-09_ses-01_task-ml_proj-lorasick_2021-02-03-14-13-22.275917
169	9	1	4	170	stable	1	200	170	sv	blue	red	red	blue	right	left	0.7	0.30000000000000004	4	6	2.8	1.8000000000000005	0	1	0.30000000000000004	0.7	6	4	1.8000000000000005	2.8	invalid	0.4665715000010096	53248	0	1	1	53248	1	53248	1	51200	0	0.7	53248	red	blue	0	0	ml	2.7.3	lorasick	sub-09_ses-01_task-ml_proj-lorasick_2021-02-03-14-13-22.275917
170	9	1	4	171	stable	1	200	171	sv	red	blue	red	blue	left	right	0.7	0.30000000000000004	4	2	2.8	0.6000000000000001	1	0	0.7	0.30000000000000004	4	2	2.8	0.6000000000000001	valid	0.5165451470020344	51200	0	0	1	51200	1	51200	1	51200	1	0.7	51200	red	blue	1	4	ml	2.7.3	lorasick	sub-09_ses-01_task-ml_proj-lorasick_2021-02-03-14-13-22.275917
171	9	1	4	172	stable	1	200	172	sv	red	blue	red	blue	left	right	0.7	0.30000000000000004	2	10	1.4	3.0000000000000004	1	0	0.7	0.30000000000000004	2	10	1.4	3.0000000000000004	valid	0.5498649280016252	51200	0	0	1	53248	0	51200	1	53248	0	0.7	51200	red	blue	0	2	ml	2.7.3	lorasick	sub-09_ses-01_task-ml_proj-lorasick_2021-02-03-14-13-22.275917
172	9	1	4	173	stable	1	200	173	sv	blue	red	red	blue	right	left	0.7	0.30000000000000004	2	6	1.4	1.8000000000000005	1	0	0.30000000000000004	0.7	6	2	1.8000000000000005	1.4	valid	0.4332422329971449	53248	0	1	1	51200	0	53248	1	51200	0	0.7	53248	red	blue	0	2	ml	2.7.3	lorasick	sub-09_ses-01_task-ml_proj-lorasick_2021-02-03-14-13-22.275917
173	9	1	4	174	stable	1	200	174	sv	red	blue	red	blue	left	right	0.7	0.30000000000000004	4	2	2.8	0.6000000000000001	1	0	0.7	0.30000000000000004	4	2	2.8	0.6000000000000001	valid	0.3665864899994631	51200	0	0	1	51200	1	51200	1	51200	1	0.7	51200	red	blue	1	4	ml	2.7.3	lorasick	sub-09_ses-01_task-ml_proj-lorasick_2021-02-03-14-13-22.275917
174	9	1	4	175	stable	1	200	175	sv	red	blue	red	blue	left	right	0.7	0.30000000000000004	4	6	2.8	1.8000000000000005	0	1	0.7	0.30000000000000004	4	6	2.8	1.8000000000000005	invalid	0.4832272100029513	51200	0	0	1	51200	1	51200	1	53248	0	0.7	51200	red	blue	0	0	ml	2.7.3	lorasick	sub-09_ses-01_task-ml_proj-lorasick_2021-02-03-14-13-22.275917
175	9	1	4	176	stable	1	200	176	sv	blue	red	red	blue	right	left	0.7	0.30000000000000004	6	4	4.199999999999998	1.2000000000000002	0	1	0.30000000000000004	0.7	4	6	1.2000000000000002	4.199999999999998	invalid	0.5165461790020345	51200	0	0	2	53248	0	53248	0	53248	0	0.7	53248	red	blue	1	4	ml	2.7.3	lorasick	sub-09_ses-01_task-ml_proj-lorasick_2021-02-03-14-13-22.275917
176	9	1	4	177	stable	1	200	177	sv	blue	red	red	blue	right	left	0.7	0.30000000000000004	6	4	4.199999999999998	1.2000000000000002	0	1	0.30000000000000004	0.7	4	6	1.2000000000000002	4.199999999999998	invalid	0.3665879190011765	51200	0	0	2	53248	0	53248	0	53248	0	0.7	53248	red	blue	1	4	ml	2.7.3	lorasick	sub-09_ses-01_task-ml_proj-lorasick_2021-02-03-14-13-22.275917
177	9	1	4	178	stable	1	200	178	sv	red	blue	red	blue	left	right	0.7	0.30000000000000004	2	2	1.4	0.6000000000000001	1	0	0.7	0.30000000000000004	2	2	1.4	0.6000000000000001	valid	0.3832491870016384	51200	0	0	1	51200	1	51200	1	53248	0	0.7	51200	red	blue	1	2	ml	2.7.3	lorasick	sub-09_ses-01_task-ml_proj-lorasick_2021-02-03-14-13-22.275917
178	9	1	4	179	stable	1	200	179	sv	red	blue	red	blue	left	right	0.7	0.30000000000000004	6	6	4.199999999999998	1.8000000000000005	1	0	0.7	0.30000000000000004	6	6	4.199999999999998	1.8000000000000005	valid	0.24995615299849305	51200	0	0	1	51200	1	51200	1	53248	0	0.7	51200	red	blue	1	6	ml	2.7.3	lorasick	sub-09_ses-01_task-ml_proj-lorasick_2021-02-03-14-13-22.275917
179	9	1	4	180	stable	1	200	180	sv	red	blue	red	blue	left	right	0.7	0.30000000000000004	2	4	1.4	1.2000000000000002	1	0	0.7	0.30000000000000004	2	4	1.4	1.2000000000000002	valid	0.2832689979986753	51200	0	0	1	51200	1	51200	1	53248	0	0.7	51200	red	blue	0	2	ml	2.7.3	lorasick	sub-09_ses-01_task-ml_proj-lorasick_2021-02-03-14-13-22.275917
180	9	1	4	181	stable	1	200	181	sv	blue	red	red	blue	right	left	0.7	0.30000000000000004	6	4	4.199999999999998	1.2000000000000002	1	0	0.30000000000000004	0.7	4	6	1.2000000000000002	4.199999999999998	valid	1.1330415260017617	53248	0	1	1	53248	1	53248	1	53248	1	0.7	53248	red	blue	1	6	ml	2.7.3	lorasick	sub-09_ses-01_task-ml_proj-lorasick_2021-02-03-14-13-22.275917
181	9	1	4	182	stable	1	200	182	sv	blue	red	red	blue	right	left	0.7	0.30000000000000004	2	10	1.4	3.0000000000000004	1	0	0.30000000000000004	0.7	10	2	3.0000000000000004	1.4	valid	0.4332319349996396	51200	0	0	2	51200	1	53248	0	51200	1	0.7	53248	red	blue	0	0	ml	2.7.3	lorasick	sub-09_ses-01_task-ml_proj-lorasick_2021-02-03-14-13-22.275917
182	9	1	4	183	stable	1	200	183	sv	blue	red	red	blue	right	left	0.7	0.30000000000000004	4	2	2.8	0.6000000000000001	1	0	0.30000000000000004	0.7	2	4	0.6000000000000001	2.8	valid	0.3166084580007009	51200	0	0	2	53248	0	53248	0	53248	0	0.7	53248	red	blue	1	0	ml	2.7.3	lorasick	sub-09_ses-01_task-ml_proj-lorasick_2021-02-03-14-13-22.275917
183	9	1	4	184	stable	1	200	184	sv	red	blue	red	blue	left	right	0.7	0.30000000000000004	4	2	2.8	0.6000000000000001	1	0	0.7	0.30000000000000004	4	2	2.8	0.6000000000000001	valid	0.4332410390015866	53248	0	1	2	51200	0	51200	0	51200	0	0.7	51200	red	blue	1	0	ml	2.7.3	lorasick	sub-09_ses-01_task-ml_proj-lorasick_2021-02-03-14-13-22.275917
184	9	1	4	185	stable	1	200	185	sv	blue	red	red	blue	right	left	0.7	0.30000000000000004	2	4	1.4	1.2000000000000002	1	0	0.30000000000000004	0.7	4	2	1.2000000000000002	1.4	valid	0.7831324559992936	51200	0	0	2	53248	0	53248	0	51200	1	0.7	53248	red	blue	0	0	ml	2.7.3	lorasick	sub-09_ses-01_task-ml_proj-lorasick_2021-02-03-14-13-22.275917
185	9	1	4	186	stable	1	200	186	sv	blue	red	red	blue	right	left	0.7	0.30000000000000004	6	2	4.199999999999998	0.6000000000000001	1	0	0.30000000000000004	0.7	2	6	0.6000000000000001	4.199999999999998	valid	0.4165808180005115	51200	0	0	2	53248	0	53248	0	53248	0	0.7	53248	red	blue	1	0	ml	2.7.3	lorasick	sub-09_ses-01_task-ml_proj-lorasick_2021-02-03-14-13-22.275917
186	9	1	4	187	stable	1	200	187	sv	red	blue	red	blue	left	right	0.7	0.30000000000000004	6	4	4.199999999999998	1.2000000000000002	0	1	0.7	0.30000000000000004	6	4	4.199999999999998	1.2000000000000002	invalid	0.3832445009975345	51200	0	0	1	51200	1	51200	1	51200	1	0.7	51200	red	blue	1	0	ml	2.7.3	lorasick	sub-09_ses-01_task-ml_proj-lorasick_2021-02-03-14-13-22.275917
187	9	1	4	188	stable	1	200	188	sv	blue	red	red	blue	right	left	0.7	0.30000000000000004	2	4	1.4	1.2000000000000002	1	0	0.30000000000000004	0.7	4	2	1.2000000000000002	1.4	valid	0.5665451099994243	53248	0	1	1	53248	1	53248	1	51200	0	0.7	53248	red	blue	0	2	ml	2.7.3	lorasick	sub-09_ses-01_task-ml_proj-lorasick_2021-02-03-14-13-22.275917
188	9	1	4	189	stable	1	200	189	sv	blue	red	red	blue	right	left	0.7	0.30000000000000004	2	10	1.4	3.0000000000000004	1	0	0.30000000000000004	0.7	10	2	3.0000000000000004	1.4	valid	0.5832009980003932	53248	0	1	1	51200	0	53248	1	51200	0	0.7	53248	red	blue	0	2	ml	2.7.3	lorasick	sub-09_ses-01_task-ml_proj-lorasick_2021-02-03-14-13-22.275917
189	9	1	4	190	stable	1	200	190	sv	red	blue	red	blue	left	right	0.7	0.30000000000000004	6	4	4.199999999999998	1.2000000000000002	1	0	0.7	0.30000000000000004	6	4	4.199999999999998	1.2000000000000002	valid	0.4332332020021568	51200	0	0	1	51200	1	51200	1	51200	1	0.7	51200	red	blue	1	6	ml	2.7.3	lorasick	sub-09_ses-01_task-ml_proj-lorasick_2021-02-03-14-13-22.275917
190	9	1	4	191	stable	1	200	191	sv	blue	red	red	blue	right	left	0.7	0.30000000000000004	2	4	1.4	1.2000000000000002	0	1	0.30000000000000004	0.7	4	2	1.2000000000000002	1.4	invalid	0.43324341499828734	53248	0	1	1	53248	1	53248	1	51200	0	0.7	53248	red	blue	0	0	ml	2.7.3	lorasick	sub-09_ses-01_task-ml_proj-lorasick_2021-02-03-14-13-22.275917
191	9	1	4	192	stable	1	200	192	sv	blue	red	red	blue	right	left	0.7	0.30000000000000004	10	2	7.0	0.6000000000000001	1	0	0.30000000000000004	0.7	2	10	0.6000000000000001	7.0	valid	0.3832585220006877	53248	0	1	1	53248	1	53248	1	53248	1	0.7	53248	red	blue	1	10	ml	2.7.3	lorasick	sub-09_ses-01_task-ml_proj-lorasick_2021-02-03-14-13-22.275917
192	9	1	4	193	stable	1	200	193	sv	red	blue	red	blue	left	right	0.7	0.30000000000000004	6	6	4.199999999999998	1.8000000000000005	1	0	0.7	0.30000000000000004	6	6	4.199999999999998	1.8000000000000005	valid	0.3665863909991458	51200	0	0	1	51200	1	51200	1	53248	0	0.7	51200	red	blue	1	6	ml	2.7.3	lorasick	sub-09_ses-01_task-ml_proj-lorasick_2021-02-03-14-13-22.275917
193	9	1	4	194	stable	1	200	194	sv	blue	red	red	blue	right	left	0.7	0.30000000000000004	6	2	4.199999999999998	0.6000000000000001	1	0	0.30000000000000004	0.7	2	6	0.6000000000000001	4.199999999999998	valid	0.38326202900134376	53248	0	1	1	53248	1	53248	1	53248	1	0.7	53248	red	blue	1	6	ml	2.7.3	lorasick	sub-09_ses-01_task-ml_proj-lorasick_2021-02-03-14-13-22.275917
194	9	1	4	195	stable	1	200	195	sv	red	blue	red	blue	left	right	0.7	0.30000000000000004	4	2	2.8	0.6000000000000001	1	0	0.7	0.30000000000000004	4	2	2.8	0.6000000000000001	valid	0.3665859130014724	51200	0	0	1	51200	1	51200	1	51200	1	0.7	51200	red	blue	1	4	ml	2.7.3	lorasick	sub-09_ses-01_task-ml_proj-lorasick_2021-02-03-14-13-22.275917
195	9	1	4	196	stable	1	200	196	sv	red	blue	red	blue	left	right	0.7	0.30000000000000004	2	6	1.4	1.8000000000000005	0	1	0.7	0.30000000000000004	2	6	1.4	1.8000000000000005	invalid	0.7998103300014918	53248	0	1	2	53248	1	51200	0	53248	1	0.7	51200	red	blue	0	6	ml	2.7.3	lorasick	sub-09_ses-01_task-ml_proj-lorasick_2021-02-03-14-13-22.275917
196	9	1	4	197	stable	1	200	197	sv	blue	red	red	blue	right	left	0.7	0.30000000000000004	4	6	2.8	1.8000000000000005	1	0	0.30000000000000004	0.7	6	4	1.8000000000000005	2.8	valid	0.44989700199948857	51200	0	0	2	53248	0	53248	0	51200	1	0.7	53248	red	blue	0	0	ml	2.7.3	lorasick	sub-09_ses-01_task-ml_proj-lorasick_2021-02-03-14-13-22.275917
197	9	1	4	198	stable	1	200	198	sv	red	blue	red	blue	left	right	0.7	0.30000000000000004	4	6	2.8	1.8000000000000005	0	1	0.7	0.30000000000000004	4	6	2.8	1.8000000000000005	invalid	0.4665572379999503	51200	0	0	1	51200	1	51200	1	53248	0	0.7	51200	red	blue	0	0	ml	2.7.3	lorasick	sub-09_ses-01_task-ml_proj-lorasick_2021-02-03-14-13-22.275917
198	9	1	4	199	stable	1	200	199	sv	blue	red	red	blue	right	left	0.7	0.30000000000000004	4	2	2.8	0.6000000000000001	1	0	0.30000000000000004	0.7	2	4	0.6000000000000001	2.8	valid	0.4998896779979986	53248	0	1	1	53248	1	53248	1	53248	1	0.7	53248	red	blue	1	4	ml	2.7.3	lorasick	sub-09_ses-01_task-ml_proj-lorasick_2021-02-03-14-13-22.275917
199	9	1	4	200	stable	1	200	200	sv	blue	red	red	blue	right	left	0.7	0.30000000000000004	6	4	4.199999999999998	1.2000000000000002	0	1	0.30000000000000004	0.7	4	6	1.2000000000000002	4.199999999999998	invalid	0.34993798899813555	53248	0	1	1	53248	1	53248	1	53248	1	0.7	53248	red	blue	1	0	ml	2.7.3	lorasick	sub-09_ses-01_task-ml_proj-lorasick_2021-02-03-14-13-22.275917
200	9	1	5	201	volatile	2	40	1	sv	red	blue	red	blue	left	right	0.30000000000000004	0.7	6	6	1.8000000000000005	4.199999999999998	1	0	0.30000000000000004	0.7	6	6	1.8000000000000005	4.199999999999998	invalid	0.4332316639993224	51200	0	0	1	53248	0	53248	0	53248	0	0.7	53248	blue	red	0	6	ml	2.7.3	lorasick	sub-09_ses-01_task-ml_proj-lorasick_2021-02-03-14-13-22.275917
201	9	1	5	202	volatile	2	40	2	sv	red	blue	red	blue	left	right	0.30000000000000004	0.7	2	6	0.6000000000000001	4.199999999999998	0	1	0.30000000000000004	0.7	2	6	0.6000000000000001	4.199999999999998	valid	0.2999403510002594	51200	0	0	1	53248	0	53248	0	53248	0	0.7	53248	blue	red	1	0	ml	2.7.3	lorasick	sub-09_ses-01_task-ml_proj-lorasick_2021-02-03-14-13-22.275917
202	9	1	5	203	volatile	2	40	3	sv	blue	red	red	blue	right	left	0.30000000000000004	0.7	4	6	1.2000000000000002	4.199999999999998	0	1	0.7	0.30000000000000004	6	4	4.199999999999998	1.2000000000000002	valid	0.8997844490004354	53248	0	1	1	51200	0	51200	0	51200	0	0.7	51200	blue	red	1	0	ml	2.7.3	lorasick	sub-09_ses-01_task-ml_proj-lorasick_2021-02-03-14-13-22.275917
203	9	1	5	204	volatile	2	40	4	sv	blue	red	red	blue	right	left	0.30000000000000004	0.7	2	4	0.6000000000000001	2.8	1	0	0.7	0.30000000000000004	4	2	2.8	0.6000000000000001	invalid	0.3832565220000106	53248	0	1	1	51200	0	51200	0	51200	0	0.7	51200	blue	red	1	2	ml	2.7.3	lorasick	sub-09_ses-01_task-ml_proj-lorasick_2021-02-03-14-13-22.275917
204	9	1	5	205	volatile	2	40	5	sv	red	blue	red	blue	left	right	0.30000000000000004	0.7	2	2	0.6000000000000001	1.4	1	0	0.30000000000000004	0.7	2	2	0.6000000000000001	1.4	invalid	0.383246366000094	51200	0	0	1	53248	0	53248	0	53248	0	0.7	53248	blue	red	0	2	ml	2.7.3	lorasick	sub-09_ses-01_task-ml_proj-lorasick_2021-02-03-14-13-22.275917
205	9	1	5	206	volatile	2	40	6	sv	red	blue	red	blue	left	right	0.30000000000000004	0.7	2	10	0.6000000000000001	7.0	0	1	0.30000000000000004	0.7	2	10	0.6000000000000001	7.0	valid	0.4498957020005037	51200	0	0	1	53248	0	53248	0	53248	0	0.7	53248	blue	red	1	0	ml	2.7.3	lorasick	sub-09_ses-01_task-ml_proj-lorasick_2021-02-03-14-13-22.275917
206	9	1	5	207	volatile	2	40	7	sv	blue	red	red	blue	right	left	0.30000000000000004	0.7	10	2	3.0000000000000004	1.4	0	1	0.7	0.30000000000000004	2	10	1.4	3.0000000000000004	valid	0.3999072070000693	51200	0	0	2	53248	0	51200	1	53248	0	0.7	51200	blue	red	0	2	ml	2.7.3	lorasick	sub-09_ses-01_task-ml_proj-lorasick_2021-02-03-14-13-22.275917
207	9	1	5	208	volatile	2	40	8	sv	blue	red	red	blue	right	left	0.30000000000000004	0.7	4	6	1.2000000000000002	4.199999999999998	0	1	0.7	0.30000000000000004	6	4	4.199999999999998	1.2000000000000002	valid	0.34992401599811274	51200	0	0	2	51200	1	51200	1	51200	1	0.7	51200	blue	red	1	6	ml	2.7.3	lorasick	sub-09_ses-01_task-ml_proj-lorasick_2021-02-03-14-13-22.275917
208	9	1	5	209	volatile	2	40	9	sv	blue	red	red	blue	right	left	0.30000000000000004	0.7	4	6	1.2000000000000002	4.199999999999998	0	1	0.7	0.30000000000000004	6	4	4.199999999999998	1.2000000000000002	valid	0.3999214019968349	53248	0	1	1	51200	0	51200	0	51200	0	0.7	51200	blue	red	1	0	ml	2.7.3	lorasick	sub-09_ses-01_task-ml_proj-lorasick_2021-02-03-14-13-22.275917
209	9	1	5	210	volatile	2	40	10	sv	blue	red	red	blue	right	left	0.30000000000000004	0.7	2	10	0.6000000000000001	7.0	1	0	0.7	0.30000000000000004	10	2	7.0	0.6000000000000001	invalid	0.4332385389971023	53248	0	1	1	51200	0	51200	0	51200	0	0.7	51200	blue	red	1	2	ml	2.7.3	lorasick	sub-09_ses-01_task-ml_proj-lorasick_2021-02-03-14-13-22.275917
210	9	1	5	211	volatile	2	40	11	sv	blue	red	red	blue	right	left	0.30000000000000004	0.7	10	2	3.0000000000000004	1.4	0	1	0.7	0.30000000000000004	2	10	1.4	3.0000000000000004	valid	0.349934891997691	53248	0	1	1	53248	1	51200	0	53248	1	0.7	51200	blue	red	0	0	ml	2.7.3	lorasick	sub-09_ses-01_task-ml_proj-lorasick_2021-02-03-14-13-22.275917
211	9	1	5	212	volatile	2	40	12	sv	red	blue	red	blue	left	right	0.30000000000000004	0.7	4	6	1.2000000000000002	4.199999999999998	0	1	0.30000000000000004	0.7	4	6	1.2000000000000002	4.199999999999998	valid	0.8497825330014166	51200	0	0	1	53248	0	53248	0	53248	0	0.7	53248	blue	red	1	0	ml	2.7.3	lorasick	sub-09_ses-01_task-ml_proj-lorasick_2021-02-03-14-13-22.275917
212	9	1	5	213	volatile	2	40	13	sv	red	blue	red	blue	left	right	0.30000000000000004	0.7	2	4	0.6000000000000001	2.8	1	0	0.30000000000000004	0.7	2	4	0.6000000000000001	2.8	invalid	0.5998627440021664	53248	0	1	2	53248	1	53248	1	53248	1	0.7	53248	blue	red	1	0	ml	2.7.3	lorasick	sub-09_ses-01_task-ml_proj-lorasick_2021-02-03-14-13-22.275917
213	9	1	5	214	volatile	2	40	14	sv	red	blue	red	blue	left	right	0.30000000000000004	0.7	10	2	3.0000000000000004	1.4	1	0	0.30000000000000004	0.7	10	2	3.0000000000000004	1.4	invalid	0.4332372559983924	51200	0	0	1	51200	1	53248	0	51200	1	0.7	53248	blue	red	0	10	ml	2.7.3	lorasick	sub-09_ses-01_task-ml_proj-lorasick_2021-02-03-14-13-22.275917
214	9	1	5	215	volatile	2	40	15	sv	red	blue	red	blue	left	right	0.30000000000000004	0.7	10	2	3.0000000000000004	1.4	0	1	0.30000000000000004	0.7	10	2	3.0000000000000004	1.4	valid	0.3665853750026145	51200	0	0	1	51200	1	53248	0	51200	1	0.7	53248	blue	red	0	0	ml	2.7.3	lorasick	sub-09_ses-01_task-ml_proj-lorasick_2021-02-03-14-13-22.275917
215	9	1	5	216	volatile	2	40	16	sv	blue	red	red	blue	right	left	0.30000000000000004	0.7	2	6	0.6000000000000001	4.199999999999998	0	1	0.7	0.30000000000000004	6	2	4.199999999999998	0.6000000000000001	valid	0.5332133290030471	53248	0	1	1	51200	0	51200	0	51200	0	0.7	51200	blue	red	1	0	ml	2.7.3	lorasick	sub-09_ses-01_task-ml_proj-lorasick_2021-02-03-14-13-22.275917
216	9	1	5	217	volatile	2	40	17	sv	blue	red	red	blue	right	left	0.30000000000000004	0.7	2	2	0.6000000000000001	1.4	0	1	0.7	0.30000000000000004	2	2	1.4	0.6000000000000001	valid	0.6998172690000501	51200	0	0	2	51200	1	51200	1	53248	0	0.7	51200	blue	red	1	2	ml	2.7.3	lorasick	sub-09_ses-01_task-ml_proj-lorasick_2021-02-03-14-13-22.275917
217	9	1	5	218	volatile	2	40	18	sv	blue	red	red	blue	right	left	0.30000000000000004	0.7	4	2	1.2000000000000002	1.4	0	1	0.7	0.30000000000000004	2	4	1.4	1.2000000000000002	valid	0.4832198950025486	51200	0	0	2	51200	1	51200	1	53248	0	0.7	51200	blue	red	0	2	ml	2.7.3	lorasick	sub-09_ses-01_task-ml_proj-lorasick_2021-02-03-14-13-22.275917
218	9	1	5	219	volatile	2	40	19	sv	blue	red	red	blue	right	left	0.30000000000000004	0.7	2	4	0.6000000000000001	2.8	1	0	0.7	0.30000000000000004	4	2	2.8	0.6000000000000001	invalid	0.5165546290008933	53248	0	1	1	51200	0	51200	0	51200	0	0.7	51200	blue	red	1	2	ml	2.7.3	lorasick	sub-09_ses-01_task-ml_proj-lorasick_2021-02-03-14-13-22.275917
219	9	1	5	220	volatile	2	40	20	sv	blue	red	red	blue	right	left	0.30000000000000004	0.7	4	6	1.2000000000000002	4.199999999999998	0	1	0.7	0.30000000000000004	6	4	4.199999999999998	1.2000000000000002	valid	0.3999202180020802	53248	0	1	1	51200	0	51200	0	51200	0	0.7	51200	blue	red	1	0	ml	2.7.3	lorasick	sub-09_ses-01_task-ml_proj-lorasick_2021-02-03-14-13-22.275917
220	9	1	5	221	volatile	2	40	21	sv	blue	red	red	blue	right	left	0.30000000000000004	0.7	2	6	0.6000000000000001	4.199999999999998	0	1	0.7	0.30000000000000004	6	2	4.199999999999998	0.6000000000000001	valid	0.3499252349974995	51200	0	0	2	51200	1	51200	1	51200	1	0.7	51200	blue	red	1	6	ml	2.7.3	lorasick	sub-09_ses-01_task-ml_proj-lorasick_2021-02-03-14-13-22.275917
221	9	1	5	222	volatile	2	40	22	sv	red	blue	red	blue	left	right	0.30000000000000004	0.7	4	2	1.2000000000000002	1.4	0	1	0.30000000000000004	0.7	4	2	1.2000000000000002	1.4	valid	0.4665668199995707	53248	0	1	2	53248	1	53248	1	51200	0	0.7	53248	blue	red	0	2	ml	2.7.3	lorasick	sub-09_ses-01_task-ml_proj-lorasick_2021-02-03-14-13-22.275917
222	9	1	5	223	volatile	2	40	23	sv	blue	red	red	blue	right	left	0.30000000000000004	0.7	2	2	0.6000000000000001	1.4	0	1	0.7	0.30000000000000004	2	2	1.4	0.6000000000000001	valid	0.4832304250012385	53248	0	1	1	51200	0	51200	0	53248	1	0.7	51200	blue	red	1	0	ml	2.7.3	lorasick	sub-09_ses-01_task-ml_proj-lorasick_2021-02-03-14-13-22.275917
223	9	1	5	224	volatile	2	40	24	sv	red	blue	red	blue	left	right	0.30000000000000004	0.7	6	2	1.8000000000000005	1.4	0	1	0.30000000000000004	0.7	6	2	1.8000000000000005	1.4	valid	0.4332342180023261	51200	0	0	1	51200	1	53248	0	51200	1	0.7	53248	blue	red	0	0	ml	2.7.3	lorasick	sub-09_ses-01_task-ml_proj-lorasick_2021-02-03-14-13-22.275917
224	9	1	5	225	volatile	2	40	25	sv	blue	red	red	blue	right	left	0.30000000000000004	0.7	6	6	1.8000000000000005	4.199999999999998	0	1	0.7	0.30000000000000004	6	6	4.199999999999998	1.8000000000000005	valid	0.3999219319994154	53248	0	1	1	51200	0	51200	0	53248	1	0.7	51200	blue	red	1	0	ml	2.7.3	lorasick	sub-09_ses-01_task-ml_proj-lorasick_2021-02-03-14-13-22.275917
225	9	1	5	226	volatile	2	40	26	sv	red	blue	red	blue	left	right	0.30000000000000004	0.7	2	6	0.6000000000000001	4.199999999999998	0	1	0.30000000000000004	0.7	2	6	0.6000000000000001	4.199999999999998	valid	0.4332434930001909	53248	0	1	2	53248	1	53248	1	53248	1	0.7	53248	blue	red	1	6	ml	2.7.3	lorasick	sub-09_ses-01_task-ml_proj-lorasick_2021-02-03-14-13-22.275917
226	9	1	5	227	volatile	2	40	27	sv	red	blue	red	blue	left	right	0.30000000000000004	0.7	2	6	0.6000000000000001	4.199999999999998	0	1	0.30000000000000004	0.7	2	6	0.6000000000000001	4.199999999999998	valid	0.3999216640004306	53248	0	1	2	53248	1	53248	1	53248	1	0.7	53248	blue	red	1	6	ml	2.7.3	lorasick	sub-09_ses-01_task-ml_proj-lorasick_2021-02-03-14-13-22.275917
227	9	1	5	228	volatile	2	40	28	sv	blue	red	red	blue	right	left	0.30000000000000004	0.7	4	2	1.2000000000000002	1.4	1	0	0.7	0.30000000000000004	2	4	1.4	1.2000000000000002	invalid	0.3999080640023749	51200	0	0	2	51200	1	51200	1	53248	0	0.7	51200	blue	red	0	0	ml	2.7.3	lorasick	sub-09_ses-01_task-ml_proj-lorasick_2021-02-03-14-13-22.275917
228	9	1	5	229	volatile	2	40	29	sv	red	blue	red	blue	left	right	0.30000000000000004	0.7	4	6	1.2000000000000002	4.199999999999998	1	0	0.30000000000000004	0.7	4	6	1.2000000000000002	4.199999999999998	invalid	0.4332457759992394	53248	0	1	2	53248	1	53248	1	53248	1	0.7	53248	blue	red	1	0	ml	2.7.3	lorasick	sub-09_ses-01_task-ml_proj-lorasick_2021-02-03-14-13-22.275917
229	9	1	5	230	volatile	2	40	30	sv	blue	red	red	blue	right	left	0.30000000000000004	0.7	6	6	1.8000000000000005	4.199999999999998	0	1	0.7	0.30000000000000004	6	6	4.199999999999998	1.8000000000000005	valid	0.5998684190017229	53248	0	1	1	51200	0	51200	0	53248	1	0.7	51200	blue	red	1	0	ml	2.7.3	lorasick	sub-09_ses-01_task-ml_proj-lorasick_2021-02-03-14-13-22.275917
230	9	1	5	231	volatile	2	40	31	sv	red	blue	red	blue	left	right	0.30000000000000004	0.7	4	2	1.2000000000000002	1.4	0	1	0.30000000000000004	0.7	4	2	1.2000000000000002	1.4	valid	0.4499056719978398	53248	0	1	2	53248	1	53248	1	51200	0	0.7	53248	blue	red	0	2	ml	2.7.3	lorasick	sub-09_ses-01_task-ml_proj-lorasick_2021-02-03-14-13-22.275917
231	9	1	5	232	volatile	2	40	32	sv	red	blue	red	blue	left	right	0.30000000000000004	0.7	2	4	0.6000000000000001	2.8	0	1	0.30000000000000004	0.7	2	4	0.6000000000000001	2.8	valid	0.3665938800004369	53248	0	1	2	53248	1	53248	1	53248	1	0.7	53248	blue	red	1	4	ml	2.7.3	lorasick	sub-09_ses-01_task-ml_proj-lorasick_2021-02-03-14-13-22.275917
232	9	1	5	233	volatile	2	40	33	sv	blue	red	red	blue	right	left	0.30000000000000004	0.7	10	2	3.0000000000000004	1.4	1	0	0.7	0.30000000000000004	2	10	1.4	3.0000000000000004	invalid	0.5998446990015509	51200	0	0	2	53248	0	51200	1	53248	0	0.7	51200	blue	red	0	0	ml	2.7.3	lorasick	sub-09_ses-01_task-ml_proj-lorasick_2021-02-03-14-13-22.275917
233	9	1	5	234	volatile	2	40	34	sv	red	blue	red	blue	left	right	0.30000000000000004	0.7	2	6	0.6000000000000001	4.199999999999998	1	0	0.30000000000000004	0.7	2	6	0.6000000000000001	4.199999999999998	invalid	0.3166009870001289	51200	0	0	1	53248	0	53248	0	53248	0	0.7	53248	blue	red	1	2	ml	2.7.3	lorasick	sub-09_ses-01_task-ml_proj-lorasick_2021-02-03-14-13-22.275917
234	9	1	5	235	volatile	2	40	35	sv	blue	red	red	blue	right	left	0.30000000000000004	0.7	2	2	0.6000000000000001	1.4	1	0	0.7	0.30000000000000004	2	2	1.4	0.6000000000000001	invalid	0.3832491089997347	51200	0	0	2	51200	1	51200	1	53248	0	0.7	51200	blue	red	1	0	ml	2.7.3	lorasick	sub-09_ses-01_task-ml_proj-lorasick_2021-02-03-14-13-22.275917
235	9	1	5	236	volatile	2	40	36	sv	red	blue	red	blue	left	right	0.30000000000000004	0.7	6	2	1.8000000000000005	1.4	0	1	0.30000000000000004	0.7	6	2	1.8000000000000005	1.4	valid	0.4332442450031522	53248	0	1	2	51200	0	53248	1	51200	0	0.7	53248	blue	red	0	2	ml	2.7.3	lorasick	sub-09_ses-01_task-ml_proj-lorasick_2021-02-03-14-13-22.275917
236	9	1	5	237	volatile	2	40	37	sv	red	blue	red	blue	left	right	0.30000000000000004	0.7	4	6	1.2000000000000002	4.199999999999998	0	1	0.30000000000000004	0.7	4	6	1.2000000000000002	4.199999999999998	valid	0.3665961000006064	53248	0	1	2	53248	1	53248	1	53248	1	0.7	53248	blue	red	1	6	ml	2.7.3	lorasick	sub-09_ses-01_task-ml_proj-lorasick_2021-02-03-14-13-22.275917
237	9	1	5	238	volatile	2	40	38	sv	red	blue	red	blue	left	right	0.30000000000000004	0.7	4	6	1.2000000000000002	4.199999999999998	0	1	0.30000000000000004	0.7	4	6	1.2000000000000002	4.199999999999998	valid	0.41656878999856417	51200	0	0	1	53248	0	53248	0	53248	0	0.7	53248	blue	red	1	0	ml	2.7.3	lorasick	sub-09_ses-01_task-ml_proj-lorasick_2021-02-03-14-13-22.275917
238	9	1	5	239	volatile	2	40	39	sv	red	blue	red	blue	left	right	0.30000000000000004	0.7	10	2	3.0000000000000004	1.4	0	1	0.30000000000000004	0.7	10	2	3.0000000000000004	1.4	valid	0.3832491899993329	51200	0	0	1	51200	1	53248	0	51200	1	0.7	53248	blue	red	0	0	ml	2.7.3	lorasick	sub-09_ses-01_task-ml_proj-lorasick_2021-02-03-14-13-22.275917
239	9	1	5	240	volatile	2	40	40	sv	blue	red	red	blue	right	left	0.30000000000000004	0.7	6	6	1.8000000000000005	4.199999999999998	0	1	0.7	0.30000000000000004	6	6	4.199999999999998	1.8000000000000005	valid	0.4498817560015596	53248	0	1	1	51200	0	51200	0	53248	1	0.7	51200	blue	red	1	0	ml	2.7.3	lorasick	sub-09_ses-01_task-ml_proj-lorasick_2021-02-03-14-13-22.275917
240	9	1	5	241	volatile	3	20	1	sv	red	blue	red	blue	left	right	0.7	0.30000000000000004	4	2	2.8	0.6000000000000001	1	0	0.7	0.30000000000000004	4	2	2.8	0.6000000000000001	valid	0.533216108000488	53248	0	1	2	51200	0	51200	0	51200	0	0.7	51200	red	blue	1	0	ml	2.7.3	lorasick	sub-09_ses-01_task-ml_proj-lorasick_2021-02-03-14-13-22.275917
241	9	1	5	242	volatile	3	20	2	sv	blue	red	red	blue	right	left	0.7	0.30000000000000004	2	6	1.4	1.8000000000000005	0	1	0.30000000000000004	0.7	6	2	1.8000000000000005	1.4	invalid	0.36658557299961103	51200	0	0	2	51200	1	53248	0	51200	1	0.7	53248	red	blue	0	6	ml	2.7.3	lorasick	sub-09_ses-01_task-ml_proj-lorasick_2021-02-03-14-13-22.275917
242	9	1	5	243	volatile	3	20	3	sv	red	blue	red	blue	left	right	0.7	0.30000000000000004	2	10	1.4	3.0000000000000004	1	0	0.7	0.30000000000000004	2	10	1.4	3.0000000000000004	valid	0.3999212630005786	53248	0	1	2	53248	1	51200	0	53248	1	0.7	51200	red	blue	0	0	ml	2.7.3	lorasick	sub-09_ses-01_task-ml_proj-lorasick_2021-02-03-14-13-22.275917
243	9	1	5	244	volatile	3	20	4	sv	blue	red	red	blue	right	left	0.7	0.30000000000000004	4	2	2.8	0.6000000000000001	0	1	0.30000000000000004	0.7	2	4	0.6000000000000001	2.8	invalid	0.4998914010029694	53248	0	1	1	53248	1	53248	1	53248	1	0.7	53248	red	blue	1	0	ml	2.7.3	lorasick	sub-09_ses-01_task-ml_proj-lorasick_2021-02-03-14-13-22.275917
244	9	1	5	245	volatile	3	20	5	sv	blue	red	red	blue	right	left	0.7	0.30000000000000004	6	2	4.199999999999998	0.6000000000000001	1	0	0.30000000000000004	0.7	2	6	0.6000000000000001	4.199999999999998	valid	0.3499247620020469	51200	0	0	2	53248	0	53248	0	53248	0	0.7	53248	red	blue	1	0	ml	2.7.3	lorasick	sub-09_ses-01_task-ml_proj-lorasick_2021-02-03-14-13-22.275917
245	9	1	5	246	volatile	3	20	6	sv	blue	red	red	blue	right	left	0.7	0.30000000000000004	2	2	1.4	0.6000000000000001	0	1	0.30000000000000004	0.7	2	2	0.6000000000000001	1.4	invalid	0.4332340889995976	51200	0	0	2	53248	0	53248	0	53248	0	0.7	53248	red	blue	0	2	ml	2.7.3	lorasick	sub-09_ses-01_task-ml_proj-lorasick_2021-02-03-14-13-22.275917
246	9	1	5	247	volatile	3	20	7	sv	blue	red	red	blue	right	left	0.7	0.30000000000000004	4	6	2.8	1.8000000000000005	1	0	0.30000000000000004	0.7	6	4	1.8000000000000005	2.8	valid	0.4332334360005916	51200	0	0	2	53248	0	53248	0	51200	1	0.7	53248	red	blue	0	0	ml	2.7.3	lorasick	sub-09_ses-01_task-ml_proj-lorasick_2021-02-03-14-13-22.275917
247	9	1	5	248	volatile	3	20	8	sv	blue	red	red	blue	right	left	0.7	0.30000000000000004	2	10	1.4	3.0000000000000004	1	0	0.30000000000000004	0.7	10	2	3.0000000000000004	1.4	valid	0.36658627400174737	51200	0	0	2	51200	1	53248	0	51200	1	0.7	53248	red	blue	0	0	ml	2.7.3	lorasick	sub-09_ses-01_task-ml_proj-lorasick_2021-02-03-14-13-22.275917
248	9	1	5	249	volatile	3	20	9	sv	red	blue	red	blue	left	right	0.7	0.30000000000000004	2	4	1.4	1.2000000000000002	1	0	0.7	0.30000000000000004	2	4	1.4	1.2000000000000002	valid	0.6831565450011112	51200	0	0	1	51200	1	51200	1	53248	0	0.7	51200	red	blue	0	2	ml	2.7.3	lorasick	sub-09_ses-01_task-ml_proj-lorasick_2021-02-03-14-13-22.275917
249	9	1	5	250	volatile	3	20	10	sv	red	blue	red	blue	left	right	0.7	0.30000000000000004	4	6	2.8	1.8000000000000005	1	0	0.7	0.30000000000000004	4	6	2.8	1.8000000000000005	valid	0.3999099560023751	51200	0	0	1	51200	1	51200	1	53248	0	0.7	51200	red	blue	0	4	ml	2.7.3	lorasick	sub-09_ses-01_task-ml_proj-lorasick_2021-02-03-14-13-22.275917
250	9	1	6	251	volatile	3	20	11	sv	blue	red	red	blue	right	left	0.7	0.30000000000000004	4	6	2.8	1.8000000000000005	1	0	0.30000000000000004	0.7	6	4	1.8000000000000005	2.8	valid	0.3665885379996325	51200	0	0	2	53248	0	53248	0	51200	1	0.7	53248	red	blue	0	0	ml	2.7.3	lorasick	sub-09_ses-01_task-ml_proj-lorasick_2021-02-03-14-13-22.275917
251	9	1	6	252	volatile	3	20	12	sv	red	blue	red	blue	left	right	0.7	0.30000000000000004	6	6	4.199999999999998	1.8000000000000005	0	1	0.7	0.30000000000000004	6	6	4.199999999999998	1.8000000000000005	invalid	0.3999108940006408	51200	0	0	1	51200	1	51200	1	53248	0	0.7	51200	red	blue	1	0	ml	2.7.3	lorasick	sub-09_ses-01_task-ml_proj-lorasick_2021-02-03-14-13-22.275917
252	9	1	6	253	volatile	3	20	13	sv	red	blue	red	blue	left	right	0.7	0.30000000000000004	2	6	1.4	1.8000000000000005	1	0	0.7	0.30000000000000004	2	6	1.4	1.8000000000000005	valid	0.3999116940030945	51200	0	0	1	53248	0	51200	1	53248	0	0.7	51200	red	blue	0	2	ml	2.7.3	lorasick	sub-09_ses-01_task-ml_proj-lorasick_2021-02-03-14-13-22.275917
253	9	1	6	254	volatile	3	20	14	sv	red	blue	red	blue	left	right	0.7	0.30000000000000004	2	2	1.4	0.6000000000000001	0	1	0.7	0.30000000000000004	2	2	1.4	0.6000000000000001	invalid	0.3665891640011978	51200	0	0	1	51200	1	51200	1	53248	0	0.7	51200	red	blue	1	0	ml	2.7.3	lorasick	sub-09_ses-01_task-ml_proj-lorasick_2021-02-03-14-13-22.275917
254	9	1	6	255	volatile	3	20	15	sv	blue	red	red	blue	right	left	0.7	0.30000000000000004	10	2	7.0	0.6000000000000001	1	0	0.30000000000000004	0.7	2	10	0.6000000000000001	7.0	valid	0.6831618989999697	51200	0	0	2	53248	0	53248	0	53248	0	0.7	53248	red	blue	1	0	ml	2.7.3	lorasick	sub-09_ses-01_task-ml_proj-lorasick_2021-02-03-14-13-22.275917
255	9	1	6	256	volatile	3	20	16	sv	blue	red	red	blue	right	left	0.7	0.30000000000000004	2	4	1.4	1.2000000000000002	1	0	0.30000000000000004	0.7	4	2	1.2000000000000002	1.4	valid	0.4665691330010304	53248	0	1	1	53248	1	53248	1	51200	0	0.7	53248	red	blue	0	2	ml	2.7.3	lorasick	sub-09_ses-01_task-ml_proj-lorasick_2021-02-03-14-13-22.275917
256	9	1	6	257	volatile	3	20	17	sv	red	blue	red	blue	left	right	0.7	0.30000000000000004	6	2	4.199999999999998	0.6000000000000001	0	1	0.7	0.30000000000000004	6	2	4.199999999999998	0.6000000000000001	invalid	0.66651037200063	53248	0	1	2	51200	0	51200	0	51200	0	0.7	51200	red	blue	1	2	ml	2.7.3	lorasick	sub-09_ses-01_task-ml_proj-lorasick_2021-02-03-14-13-22.275917
257	9	1	6	258	volatile	3	20	18	sv	red	blue	red	blue	left	right	0.7	0.30000000000000004	6	6	4.199999999999998	1.8000000000000005	1	0	0.7	0.30000000000000004	6	6	4.199999999999998	1.8000000000000005	valid	0.3999081449983351	51200	0	0	1	51200	1	51200	1	53248	0	0.7	51200	red	blue	1	6	ml	2.7.3	lorasick	sub-09_ses-01_task-ml_proj-lorasick_2021-02-03-14-13-22.275917
258	9	1	6	259	volatile	3	20	19	sv	red	blue	red	blue	left	right	0.7	0.30000000000000004	10	2	7.0	0.6000000000000001	1	0	0.7	0.30000000000000004	10	2	7.0	0.6000000000000001	valid	0.4332453459974204	53248	0	1	2	51200	0	51200	0	51200	0	0.7	51200	red	blue	1	0	ml	2.7.3	lorasick	sub-09_ses-01_task-ml_proj-lorasick_2021-02-03-14-13-22.275917
259	9	1	6	260	volatile	3	20	20	sv	blue	red	red	blue	right	left	0.7	0.30000000000000004	6	4	4.199999999999998	1.2000000000000002	1	0	0.30000000000000004	0.7	4	6	1.2000000000000002	4.199999999999998	valid	0.9997359679982764	53248	0	1	1	53248	1	53248	1	53248	1	0.7	53248	red	blue	1	6	ml	2.7.3	lorasick	sub-09_ses-01_task-ml_proj-lorasick_2021-02-03-14-13-22.275917
260	9	1	6	261	volatile	4	20	1	sv	red	blue	red	blue	left	right	0.30000000000000004	0.7	6	2	1.8000000000000005	1.4	0	1	0.30000000000000004	0.7	6	2	1.8000000000000005	1.4	valid	0.3665871189987229	51200	0	0	1	51200	1	53248	0	51200	1	0.7	53248	blue	red	0	0	ml	2.7.3	lorasick	sub-09_ses-01_task-ml_proj-lorasick_2021-02-03-14-13-22.275917
261	9	1	6	262	volatile	4	20	2	sv	blue	red	red	blue	right	left	0.30000000000000004	0.7	2	4	0.6000000000000001	2.8	0	1	0.7	0.30000000000000004	4	2	2.8	0.6000000000000001	valid	0.3832580289999896	53248	0	1	1	51200	0	51200	0	51200	0	0.7	51200	blue	red	1	0	ml	2.7.3	lorasick	sub-09_ses-01_task-ml_proj-lorasick_2021-02-03-14-13-22.275917
262	9	1	6	263	volatile	4	20	3	sv	red	blue	red	blue	left	right	0.30000000000000004	0.7	10	2	3.0000000000000004	1.4	0	1	0.30000000000000004	0.7	10	2	3.0000000000000004	1.4	valid	0.6165164779995393	51200	0	0	1	51200	1	53248	0	51200	1	0.7	53248	blue	red	0	0	ml	2.7.3	lorasick	sub-09_ses-01_task-ml_proj-lorasick_2021-02-03-14-13-22.275917
263	9	1	6	264	volatile	4	20	4	sv	red	blue	red	blue	left	right	0.30000000000000004	0.7	6	4	1.8000000000000005	2.8	1	0	0.30000000000000004	0.7	6	4	1.8000000000000005	2.8	invalid	0.6831615619994409	51200	0	0	1	53248	0	53248	0	51200	1	0.7	53248	blue	red	0	6	ml	2.7.3	lorasick	sub-09_ses-01_task-ml_proj-lorasick_2021-02-03-14-13-22.275917
264	9	1	6	265	volatile	4	20	5	sv	blue	red	red	blue	right	left	0.30000000000000004	0.7	6	2	1.8000000000000005	1.4	0	1	0.7	0.30000000000000004	2	6	1.4	1.8000000000000005	valid	0.36658705299851135	51200	0	0	2	53248	0	51200	1	53248	0	0.7	51200	blue	red	0	2	ml	2.7.3	lorasick	sub-09_ses-01_task-ml_proj-lorasick_2021-02-03-14-13-22.275917
265	9	1	6	266	volatile	4	20	6	sv	red	blue	red	blue	left	right	0.30000000000000004	0.7	4	6	1.2000000000000002	4.199999999999998	0	1	0.30000000000000004	0.7	4	6	1.2000000000000002	4.199999999999998	valid	0.4165896390004491	53248	0	1	2	53248	1	53248	1	53248	1	0.7	53248	blue	red	1	6	ml	2.7.3	lorasick	sub-09_ses-01_task-ml_proj-lorasick_2021-02-03-14-13-22.275917
266	9	1	6	267	volatile	4	20	7	sv	blue	red	red	blue	right	left	0.30000000000000004	0.7	6	6	1.8000000000000005	4.199999999999998	1	0	0.7	0.30000000000000004	6	6	4.199999999999998	1.8000000000000005	invalid	0.3665873470017687	51200	0	0	2	51200	1	51200	1	53248	0	0.7	51200	blue	red	1	0	ml	2.7.3	lorasick	sub-09_ses-01_task-ml_proj-lorasick_2021-02-03-14-13-22.275917
267	9	1	6	268	volatile	4	20	8	sv	blue	red	red	blue	right	left	0.30000000000000004	0.7	6	4	1.8000000000000005	2.8	0	1	0.7	0.30000000000000004	4	6	2.8	1.8000000000000005	valid	0.4832204390004336	51200	0	0	2	51200	1	51200	1	53248	0	0.7	51200	blue	red	0	4	ml	2.7.3	lorasick	sub-09_ses-01_task-ml_proj-lorasick_2021-02-03-14-13-22.275917
268	9	1	6	269	volatile	4	20	9	sv	blue	red	red	blue	right	left	0.30000000000000004	0.7	2	2	0.6000000000000001	1.4	0	1	0.7	0.30000000000000004	2	2	1.4	0.6000000000000001	valid	0.3665859430002456	51200	0	0	2	51200	1	51200	1	53248	0	0.7	51200	blue	red	1	2	ml	2.7.3	lorasick	sub-09_ses-01_task-ml_proj-lorasick_2021-02-03-14-13-22.275917
269	9	1	6	270	volatile	4	20	10	sv	blue	red	red	blue	right	left	0.30000000000000004	0.7	4	2	1.2000000000000002	1.4	1	0	0.7	0.30000000000000004	2	4	1.4	1.2000000000000002	invalid	0.3332640000007814	51200	0	0	2	51200	1	51200	1	53248	0	0.7	51200	blue	red	0	0	ml	2.7.3	lorasick	sub-09_ses-01_task-ml_proj-lorasick_2021-02-03-14-13-22.275917
270	9	1	6	271	volatile	4	20	11	sv	red	blue	red	blue	left	right	0.30000000000000004	0.7	2	10	0.6000000000000001	7.0	0	1	0.30000000000000004	0.7	2	10	0.6000000000000001	7.0	valid	0.4998910400026944	53248	0	1	2	53248	1	53248	1	53248	1	0.7	53248	blue	red	1	10	ml	2.7.3	lorasick	sub-09_ses-01_task-ml_proj-lorasick_2021-02-03-14-13-22.275917
271	9	1	6	272	volatile	4	20	12	sv	red	blue	red	blue	left	right	0.30000000000000004	0.7	6	2	1.8000000000000005	1.4	0	1	0.30000000000000004	0.7	6	2	1.8000000000000005	1.4	valid	0.4332427230001485	53248	0	1	2	51200	0	53248	1	51200	0	0.7	53248	blue	red	0	2	ml	2.7.3	lorasick	sub-09_ses-01_task-ml_proj-lorasick_2021-02-03-14-13-22.275917
272	9	1	6	273	volatile	4	20	13	sv	blue	red	red	blue	right	left	0.30000000000000004	0.7	4	2	1.2000000000000002	1.4	1	0	0.7	0.30000000000000004	2	4	1.4	1.2000000000000002	invalid	0.4165743330013356	53248	0	1	1	51200	0	51200	0	53248	1	0.7	51200	blue	red	0	4	ml	2.7.3	lorasick	sub-09_ses-01_task-ml_proj-lorasick_2021-02-03-14-13-22.275917
273	9	1	6	274	volatile	4	20	14	sv	red	blue	red	blue	left	right	0.30000000000000004	0.7	2	6	0.6000000000000001	4.199999999999998	0	1	0.30000000000000004	0.7	2	6	0.6000000000000001	4.199999999999998	valid	0.43324379099794896	53248	0	1	2	53248	1	53248	1	53248	1	0.7	53248	blue	red	1	6	ml	2.7.3	lorasick	sub-09_ses-01_task-ml_proj-lorasick_2021-02-03-14-13-22.275917
274	9	1	6	275	volatile	4	20	15	sv	blue	red	red	blue	right	left	0.30000000000000004	0.7	4	6	1.2000000000000002	4.199999999999998	0	1	0.7	0.30000000000000004	6	4	4.199999999999998	1.2000000000000002	valid	0.3999101970002812	51200	0	0	2	51200	1	51200	1	51200	1	0.7	51200	blue	red	1	6	ml	2.7.3	lorasick	sub-09_ses-01_task-ml_proj-lorasick_2021-02-03-14-13-22.275917
275	9	1	6	276	volatile	4	20	16	sv	blue	red	red	blue	right	left	0.30000000000000004	0.7	10	2	3.0000000000000004	1.4	0	1	0.7	0.30000000000000004	2	10	1.4	3.0000000000000004	valid	0.4499069720004627	53248	0	1	1	53248	1	51200	0	53248	1	0.7	51200	blue	red	0	0	ml	2.7.3	lorasick	sub-09_ses-01_task-ml_proj-lorasick_2021-02-03-14-13-22.275917
276	9	1	6	277	volatile	4	20	17	sv	red	blue	red	blue	left	right	0.30000000000000004	0.7	4	2	1.2000000000000002	1.4	1	0	0.30000000000000004	0.7	4	2	1.2000000000000002	1.4	invalid	0.7498131719985395	53248	0	1	2	53248	1	53248	1	51200	0	0.7	53248	blue	red	0	0	ml	2.7.3	lorasick	sub-09_ses-01_task-ml_proj-lorasick_2021-02-03-14-13-22.275917
277	9	1	6	278	volatile	4	20	18	sv	red	blue	red	blue	left	right	0.30000000000000004	0.7	6	6	1.8000000000000005	4.199999999999998	0	1	0.30000000000000004	0.7	6	6	1.8000000000000005	4.199999999999998	valid	0.5165539529989474	53248	0	1	2	53248	1	53248	1	53248	1	0.7	53248	blue	red	0	6	ml	2.7.3	lorasick	sub-09_ses-01_task-ml_proj-lorasick_2021-02-03-14-13-22.275917
278	9	1	6	279	volatile	4	20	19	sv	blue	red	red	blue	right	left	0.30000000000000004	0.7	2	10	0.6000000000000001	7.0	0	1	0.7	0.30000000000000004	10	2	7.0	0.6000000000000001	valid	0.3665850520010281	51200	0	0	2	51200	1	51200	1	51200	1	0.7	51200	blue	red	1	10	ml	2.7.3	lorasick	sub-09_ses-01_task-ml_proj-lorasick_2021-02-03-14-13-22.275917
279	9	1	6	280	volatile	4	20	20	sv	red	blue	red	blue	left	right	0.30000000000000004	0.7	2	2	0.6000000000000001	1.4	1	0	0.30000000000000004	0.7	2	2	0.6000000000000001	1.4	invalid	0.4832192130015756	51200	0	0	1	53248	0	53248	0	53248	0	0.7	53248	blue	red	0	2	ml	2.7.3	lorasick	sub-09_ses-01_task-ml_proj-lorasick_2021-02-03-14-13-22.275917
280	9	1	6	281	volatile	5	40	1	sv	blue	red	red	blue	right	left	0.7	0.30000000000000004	10	2	7.0	0.6000000000000001	1	0	0.30000000000000004	0.7	2	10	0.6000000000000001	7.0	valid	0.6665067060021101	53248	0	1	1	53248	1	53248	1	53248	1	0.7	53248	red	blue	1	10	ml	2.7.3	lorasick	sub-09_ses-01_task-ml_proj-lorasick_2021-02-03-14-13-22.275917
281	9	1	6	282	volatile	5	40	2	sv	red	blue	red	blue	left	right	0.7	0.30000000000000004	10	2	7.0	0.6000000000000001	1	0	0.7	0.30000000000000004	10	2	7.0	0.6000000000000001	valid	0.4165766939986497	53248	0	1	2	51200	0	51200	0	51200	0	0.7	51200	red	blue	1	0	ml	2.7.3	lorasick	sub-09_ses-01_task-ml_proj-lorasick_2021-02-03-14-13-22.275917
282	9	1	6	283	volatile	5	40	3	sv	blue	red	red	blue	right	left	0.7	0.30000000000000004	10	2	7.0	0.6000000000000001	1	0	0.30000000000000004	0.7	2	10	0.6000000000000001	7.0	valid	0.6331825369998114	51200	0	0	2	53248	0	53248	0	53248	0	0.7	53248	red	blue	1	0	ml	2.7.3	lorasick	sub-09_ses-01_task-ml_proj-lorasick_2021-02-03-14-13-22.275917
283	9	1	6	284	volatile	5	40	4	sv	blue	red	red	blue	right	left	0.7	0.30000000000000004	2	2	1.4	0.6000000000000001	0	1	0.30000000000000004	0.7	2	2	0.6000000000000001	1.4	invalid	0.5998533640013193	51200	0	0	2	53248	0	53248	0	53248	0	0.7	53248	red	blue	0	2	ml	2.7.3	lorasick	sub-09_ses-01_task-ml_proj-lorasick_2021-02-03-14-13-22.275917
284	9	1	6	285	volatile	5	40	5	sv	red	blue	red	blue	left	right	0.7	0.30000000000000004	6	6	4.199999999999998	1.8000000000000005	0	1	0.7	0.30000000000000004	6	6	4.199999999999998	1.8000000000000005	invalid	0.3832577160028449	53248	0	1	2	51200	0	51200	0	53248	1	0.7	51200	red	blue	1	6	ml	2.7.3	lorasick	sub-09_ses-01_task-ml_proj-lorasick_2021-02-03-14-13-22.275917
285	9	1	6	286	volatile	5	40	6	sv	red	blue	red	blue	left	right	0.7	0.30000000000000004	6	6	4.199999999999998	1.8000000000000005	1	0	0.7	0.30000000000000004	6	6	4.199999999999998	1.8000000000000005	valid	0.466571914999804	53248	0	1	2	51200	0	51200	0	53248	1	0.7	51200	red	blue	1	0	ml	2.7.3	lorasick	sub-09_ses-01_task-ml_proj-lorasick_2021-02-03-14-13-22.275917
286	9	1	6	287	volatile	5	40	7	sv	blue	red	red	blue	right	left	0.7	0.30000000000000004	6	2	4.199999999999998	0.6000000000000001	1	0	0.30000000000000004	0.7	2	6	0.6000000000000001	4.199999999999998	valid	0.5165543440016336	53248	0	1	1	53248	1	53248	1	53248	1	0.7	53248	red	blue	1	6	ml	2.7.3	lorasick	sub-09_ses-01_task-ml_proj-lorasick_2021-02-03-14-13-22.275917
287	9	1	6	288	volatile	5	40	8	sv	red	blue	red	blue	left	right	0.7	0.30000000000000004	2	4	1.4	1.2000000000000002	1	0	0.7	0.30000000000000004	2	4	1.4	1.2000000000000002	valid	0.3499418899991724	51200	0	0	1	51200	1	51200	1	53248	0	0.7	51200	red	blue	0	2	ml	2.7.3	lorasick	sub-09_ses-01_task-ml_proj-lorasick_2021-02-03-14-13-22.275917
288	9	1	6	289	volatile	5	40	9	sv	blue	red	red	blue	right	left	0.7	0.30000000000000004	10	2	7.0	0.6000000000000001	1	0	0.30000000000000004	0.7	2	10	0.6000000000000001	7.0	valid	0.34993573999963695	53248	0	1	1	53248	1	53248	1	53248	1	0.7	53248	red	blue	1	10	ml	2.7.3	lorasick	sub-09_ses-01_task-ml_proj-lorasick_2021-02-03-14-13-22.275917
