Unnamed: 0	sub_id	ses_id	block_no	trial_no	phase_type	phase_no	phase_length	trialInPhase_no	phase_type_order	color_left	color_right	color1	color2	position1	position2	prob1	prob2	mag1	mag2	ev1	ev2	outcome1	outcome2	prob_left	prob_right	mag_left	mag_right	ev_left	ev_right	reward_validity	resp_time	resp_key	timeout	choice_side	choice	ev_corr_resp	ev_correct	prob_corr_resp	prob_correct	mag_corr_resp	mag_correct	high_prob	high_prob_side	high_prob_color	low_prob_color	no_brain	reward	name	version	proj_id	logFileID
0	3	1	1	1	volatile	1	20	1	vs	blue	red	red	blue	right	left	0.7	0.30000000000000004	4	2	2.8	0.6000000000000001	1	0	0.30000000000000004	0.7	2	4	0.6000000000000001	2.8	valid	0.6498457280031289	53248	0	1	1	53248	1	53248	1	53248	1	0.7	53248	red	blue	1	4	ml	2.7.3	lorasick	sub-03_ses-01_task-ml_proj-lorasick_2020-10-13-15-24-34.608933
1	3	1	1	2	volatile	1	20	2	vs	red	blue	red	blue	left	right	0.7	0.30000000000000004	4	6	2.8	1.8000000000000005	1	0	0.7	0.30000000000000004	4	6	2.8	1.8000000000000005	valid	0.4665546119977079	51200	0	0	1	51200	1	51200	1	53248	0	0.7	51200	red	blue	0	4	ml	2.7.3	lorasick	sub-03_ses-01_task-ml_proj-lorasick_2020-10-13-15-24-34.608933
2	3	1	1	3	volatile	1	20	3	vs	blue	red	red	blue	right	left	0.7	0.30000000000000004	2	4	1.4	1.2000000000000002	1	0	0.30000000000000004	0.7	4	2	1.2000000000000002	1.4	valid	0.4832259640024858	53248	0	1	1	53248	1	53248	1	51200	0	0.7	53248	red	blue	0	2	ml	2.7.3	lorasick	sub-03_ses-01_task-ml_proj-lorasick_2020-10-13-15-24-34.608933
3	3	1	1	4	volatile	1	20	4	vs	red	blue	red	blue	left	right	0.7	0.30000000000000004	2	2	1.4	0.6000000000000001	1	0	0.7	0.30000000000000004	2	2	1.4	0.6000000000000001	valid	0.6498287909998908	51200	0	0	1	51200	1	51200	1	53248	0	0.7	51200	red	blue	1	2	ml	2.7.3	lorasick	sub-03_ses-01_task-ml_proj-lorasick_2020-10-13-15-24-34.608933
4	3	1	1	5	volatile	1	20	5	vs	red	blue	red	blue	left	right	0.7	0.30000000000000004	2	10	1.4	3.0000000000000004	0	1	0.7	0.30000000000000004	2	10	1.4	3.0000000000000004	invalid	0.8497797599993646	53248	0	1	2	53248	1	51200	0	53248	1	0.7	51200	red	blue	0	10	ml	2.7.3	lorasick	sub-03_ses-01_task-ml_proj-lorasick_2020-10-13-15-24-34.608933
5	3	1	1	6	volatile	1	20	6	vs	blue	red	red	blue	right	left	0.7	0.30000000000000004	6	4	4.199999999999998	1.2000000000000002	1	0	0.30000000000000004	0.7	4	6	1.2000000000000002	4.199999999999998	valid	0.5665361640021729	53248	0	1	1	53248	1	53248	1	53248	1	0.7	53248	red	blue	1	6	ml	2.7.3	lorasick	sub-03_ses-01_task-ml_proj-lorasick_2020-10-13-15-24-34.608933
6	3	1	1	7	volatile	1	20	7	vs	red	blue	red	blue	left	right	0.7	0.30000000000000004	10	2	7.0	0.6000000000000001	1	0	0.7	0.30000000000000004	10	2	7.0	0.6000000000000001	valid	0.5165358810008911	51200	0	0	1	51200	1	51200	1	51200	1	0.7	51200	red	blue	1	10	ml	2.7.3	lorasick	sub-03_ses-01_task-ml_proj-lorasick_2020-10-13-15-24-34.608933
7	3	1	1	8	volatile	1	20	8	vs	red	blue	red	blue	left	right	0.7	0.30000000000000004	2	2	1.4	0.6000000000000001	1	0	0.7	0.30000000000000004	2	2	1.4	0.6000000000000001	valid	0.4498957310024707	51200	0	0	1	51200	1	51200	1	53248	0	0.7	51200	red	blue	1	2	ml	2.7.3	lorasick	sub-03_ses-01_task-ml_proj-lorasick_2020-10-13-15-24-34.608933
8	3	1	1	9	volatile	1	20	9	vs	blue	red	red	blue	right	left	0.7	0.30000000000000004	2	4	1.4	1.2000000000000002	0	1	0.30000000000000004	0.7	4	2	1.2000000000000002	1.4	invalid	0.5332101530002546	53248	0	1	1	53248	1	53248	1	51200	0	0.7	53248	red	blue	0	0	ml	2.7.3	lorasick	sub-03_ses-01_task-ml_proj-lorasick_2020-10-13-15-24-34.608933
9	3	1	1	10	volatile	1	20	10	vs	red	blue	red	blue	left	right	0.7	0.30000000000000004	6	6	4.199999999999998	1.8000000000000005	1	0	0.7	0.30000000000000004	6	6	4.199999999999998	1.8000000000000005	valid	0.41656648500065785	51200	0	0	1	51200	1	51200	1	53248	0	0.7	51200	red	blue	1	6	ml	2.7.3	lorasick	sub-03_ses-01_task-ml_proj-lorasick_2020-10-13-15-24-34.608933
10	3	1	1	11	volatile	1	20	11	vs	red	blue	red	blue	left	right	0.7	0.30000000000000004	6	2	4.199999999999998	0.6000000000000001	0	1	0.7	0.30000000000000004	6	2	4.199999999999998	0.6000000000000001	invalid	0.4165680400001293	51200	0	0	1	51200	1	51200	1	51200	1	0.7	51200	red	blue	1	0	ml	2.7.3	lorasick	sub-03_ses-01_task-ml_proj-lorasick_2020-10-13-15-24-34.608933
11	3	1	1	12	volatile	1	20	12	vs	blue	red	red	blue	right	left	0.7	0.30000000000000004	4	2	2.8	0.6000000000000001	1	0	0.30000000000000004	0.7	2	4	0.6000000000000001	2.8	valid	0.3999187029985478	53248	0	1	1	53248	1	53248	1	53248	1	0.7	53248	red	blue	1	4	ml	2.7.3	lorasick	sub-03_ses-01_task-ml_proj-lorasick_2020-10-13-15-24-34.608933
12	3	1	1	13	volatile	1	20	13	vs	red	blue	red	blue	left	right	0.7	0.30000000000000004	6	2	4.199999999999998	0.6000000000000001	1	0	0.7	0.30000000000000004	6	2	4.199999999999998	0.6000000000000001	valid	0.41656584500015015	51200	0	0	1	51200	1	51200	1	51200	1	0.7	51200	red	blue	1	6	ml	2.7.3	lorasick	sub-03_ses-01_task-ml_proj-lorasick_2020-10-13-15-24-34.608933
13	3	1	1	14	volatile	1	20	14	vs	red	blue	red	blue	left	right	0.7	0.30000000000000004	6	4	4.199999999999998	1.2000000000000002	1	0	0.7	0.30000000000000004	6	4	4.199999999999998	1.2000000000000002	valid	0.4332312799997453	51200	0	0	1	51200	1	51200	1	51200	1	0.7	51200	red	blue	1	6	ml	2.7.3	lorasick	sub-03_ses-01_task-ml_proj-lorasick_2020-10-13-15-24-34.608933
14	3	1	1	15	volatile	1	20	15	vs	blue	red	red	blue	right	left	0.7	0.30000000000000004	6	2	4.199999999999998	0.6000000000000001	1	0	0.30000000000000004	0.7	2	6	0.6000000000000001	4.199999999999998	valid	0.3999170800016145	53248	0	1	1	53248	1	53248	1	53248	1	0.7	53248	red	blue	1	6	ml	2.7.3	lorasick	sub-03_ses-01_task-ml_proj-lorasick_2020-10-13-15-24-34.608933
15	3	1	1	16	volatile	1	20	16	vs	blue	red	red	blue	right	left	0.7	0.30000000000000004	6	6	4.199999999999998	1.8000000000000005	1	0	0.30000000000000004	0.7	6	6	1.8000000000000005	4.199999999999998	valid	0.5165483499986294	53248	0	1	1	53248	1	53248	1	53248	1	0.7	53248	red	blue	0	6	ml	2.7.3	lorasick	sub-03_ses-01_task-ml_proj-lorasick_2020-10-13-15-24-34.608933
16	3	1	1	17	volatile	1	20	17	vs	blue	red	red	blue	right	left	0.7	0.30000000000000004	10	2	7.0	0.6000000000000001	0	1	0.30000000000000004	0.7	2	10	0.6000000000000001	7.0	invalid	0.4998835639999015	53248	0	1	1	53248	1	53248	1	53248	1	0.7	53248	red	blue	1	0	ml	2.7.3	lorasick	sub-03_ses-01_task-ml_proj-lorasick_2020-10-13-15-24-34.608933
17	3	1	1	18	volatile	1	20	18	vs	red	blue	red	blue	left	right	0.7	0.30000000000000004	10	2	7.0	0.6000000000000001	0	1	0.7	0.30000000000000004	10	2	7.0	0.6000000000000001	invalid	0.5331975930021144	51200	0	0	1	51200	1	51200	1	51200	1	0.7	51200	red	blue	1	0	ml	2.7.3	lorasick	sub-03_ses-01_task-ml_proj-lorasick_2020-10-13-15-24-34.608933
18	3	1	1	19	volatile	1	20	19	vs	blue	red	red	blue	right	left	0.7	0.30000000000000004	6	2	4.199999999999998	0.6000000000000001	1	0	0.30000000000000004	0.7	2	6	0.6000000000000001	4.199999999999998	valid	0.7164948329991603	53248	0	1	1	53248	1	53248	1	53248	1	0.7	53248	red	blue	1	6	ml	2.7.3	lorasick	sub-03_ses-01_task-ml_proj-lorasick_2020-10-13-15-24-34.608933
19	3	1	1	20	volatile	1	20	20	vs	blue	red	red	blue	right	left	0.7	0.30000000000000004	4	6	2.8	1.8000000000000005	0	1	0.30000000000000004	0.7	6	4	1.8000000000000005	2.8	invalid	0.7164882069992018	53248	0	1	1	53248	1	53248	1	51200	0	0.7	53248	red	blue	0	0	ml	2.7.3	lorasick	sub-03_ses-01_task-ml_proj-lorasick_2020-10-13-15-24-34.608933
20	3	1	1	21	volatile	2	20	1	vs	blue	red	red	blue	right	left	0.30000000000000004	0.7	4	6	1.2000000000000002	4.199999999999998	0	1	0.7	0.30000000000000004	6	4	4.199999999999998	1.2000000000000002	valid	0.4832138099991426	51200	0	0	2	51200	1	51200	1	51200	1	0.7	51200	blue	red	1	6	ml	2.7.3	lorasick	sub-03_ses-01_task-ml_proj-lorasick_2020-10-13-15-24-34.608933
21	3	1	1	22	volatile	2	20	2	vs	red	blue	red	blue	left	right	0.30000000000000004	0.7	2	10	0.6000000000000001	7.0	0	1	0.30000000000000004	0.7	2	10	0.6000000000000001	7.0	valid	0.4832174039984238	53248	0	1	2	53248	1	53248	1	53248	1	0.7	53248	blue	red	1	10	ml	2.7.3	lorasick	sub-03_ses-01_task-ml_proj-lorasick_2020-10-13-15-24-34.608933
22	3	1	1	23	volatile	2	20	3	vs	red	blue	red	blue	left	right	0.30000000000000004	0.7	6	2	1.8000000000000005	1.4	0	1	0.30000000000000004	0.7	6	2	1.8000000000000005	1.4	valid	0.6998138329981884	51200	0	0	1	51200	1	53248	0	51200	1	0.7	53248	blue	red	0	0	ml	2.7.3	lorasick	sub-03_ses-01_task-ml_proj-lorasick_2020-10-13-15-24-34.608933
23	3	1	1	24	volatile	2	20	4	vs	blue	red	red	blue	right	left	0.30000000000000004	0.7	2	6	0.6000000000000001	4.199999999999998	1	0	0.7	0.30000000000000004	6	2	4.199999999999998	0.6000000000000001	invalid	0.4998754499974893	51200	0	0	2	51200	1	51200	1	51200	1	0.7	51200	blue	red	1	0	ml	2.7.3	lorasick	sub-03_ses-01_task-ml_proj-lorasick_2020-10-13-15-24-34.608933
24	3	1	1	25	volatile	2	20	5	vs	red	blue	red	blue	left	right	0.30000000000000004	0.7	6	6	1.8000000000000005	4.199999999999998	0	1	0.30000000000000004	0.7	6	6	1.8000000000000005	4.199999999999998	valid	0.5998589009977877	53248	0	1	2	53248	1	53248	1	53248	1	0.7	53248	blue	red	0	6	ml	2.7.3	lorasick	sub-03_ses-01_task-ml_proj-lorasick_2020-10-13-15-24-34.608933
25	3	1	1	26	volatile	2	20	6	vs	red	blue	red	blue	left	right	0.30000000000000004	0.7	2	2	0.6000000000000001	1.4	1	0	0.30000000000000004	0.7	2	2	0.6000000000000001	1.4	invalid	0.6331739440029196	53248	0	1	2	53248	1	53248	1	53248	1	0.7	53248	blue	red	0	0	ml	2.7.3	lorasick	sub-03_ses-01_task-ml_proj-lorasick_2020-10-13-15-24-34.608933
26	3	1	1	27	volatile	2	20	7	vs	blue	red	red	blue	right	left	0.30000000000000004	0.7	6	2	1.8000000000000005	1.4	1	0	0.7	0.30000000000000004	2	6	1.4	1.8000000000000005	invalid	0.6831643449986586	53248	0	1	1	53248	1	51200	0	53248	1	0.7	51200	blue	red	0	6	ml	2.7.3	lorasick	sub-03_ses-01_task-ml_proj-lorasick_2020-10-13-15-24-34.608933
27	3	1	1	28	volatile	2	20	8	vs	blue	red	red	blue	right	left	0.30000000000000004	0.7	2	4	0.6000000000000001	2.8	0	1	0.7	0.30000000000000004	4	2	2.8	0.6000000000000001	valid	0.833108506998542	51200	0	0	2	51200	1	51200	1	51200	1	0.7	51200	blue	red	1	4	ml	2.7.3	lorasick	sub-03_ses-01_task-ml_proj-lorasick_2020-10-13-15-24-34.608933
28	3	1	1	29	volatile	2	20	9	vs	red	blue	red	blue	left	right	0.30000000000000004	0.7	10	2	3.0000000000000004	1.4	1	0	0.30000000000000004	0.7	10	2	3.0000000000000004	1.4	invalid	0.5332014500017976	51200	0	0	1	51200	1	53248	0	51200	1	0.7	53248	blue	red	0	10	ml	2.7.3	lorasick	sub-03_ses-01_task-ml_proj-lorasick_2020-10-13-15-24-34.608933
29	3	1	1	30	volatile	2	20	10	vs	blue	red	red	blue	right	left	0.30000000000000004	0.7	10	2	3.0000000000000004	1.4	0	1	0.7	0.30000000000000004	2	10	1.4	3.0000000000000004	valid	0.5665325369991479	53248	0	1	1	53248	1	51200	0	53248	1	0.7	51200	blue	red	0	0	ml	2.7.3	lorasick	sub-03_ses-01_task-ml_proj-lorasick_2020-10-13-15-24-34.608933
30	3	1	1	31	volatile	2	20	11	vs	red	blue	red	blue	left	right	0.30000000000000004	0.7	6	6	1.8000000000000005	4.199999999999998	1	0	0.30000000000000004	0.7	6	6	1.8000000000000005	4.199999999999998	invalid	0.6331679390023055	51200	0	0	1	53248	0	53248	0	53248	0	0.7	53248	blue	red	0	6	ml	2.7.3	lorasick	sub-03_ses-01_task-ml_proj-lorasick_2020-10-13-15-24-34.608933
31	3	1	1	32	volatile	2	20	12	vs	red	blue	red	blue	left	right	0.30000000000000004	0.7	4	2	1.2000000000000002	1.4	0	1	0.30000000000000004	0.7	4	2	1.2000000000000002	1.4	valid	0.5831765719995019	51200	0	0	1	53248	0	53248	0	51200	1	0.7	53248	blue	red	0	0	ml	2.7.3	lorasick	sub-03_ses-01_task-ml_proj-lorasick_2020-10-13-15-24-34.608933
32	3	1	1	33	volatile	2	20	13	vs	blue	red	red	blue	right	left	0.30000000000000004	0.7	2	10	0.6000000000000001	7.0	0	1	0.7	0.30000000000000004	10	2	7.0	0.6000000000000001	valid	0.4832236779984669	51200	0	0	2	51200	1	51200	1	51200	1	0.7	51200	blue	red	1	10	ml	2.7.3	lorasick	sub-03_ses-01_task-ml_proj-lorasick_2020-10-13-15-24-34.608933
33	3	1	1	34	volatile	2	20	14	vs	red	blue	red	blue	left	right	0.30000000000000004	0.7	2	4	0.6000000000000001	2.8	0	1	0.30000000000000004	0.7	2	4	0.6000000000000001	2.8	valid	0.4998899919992255	53248	0	1	2	53248	1	53248	1	53248	1	0.7	53248	blue	red	1	4	ml	2.7.3	lorasick	sub-03_ses-01_task-ml_proj-lorasick_2020-10-13-15-24-34.608933
34	3	1	1	35	volatile	2	20	15	vs	blue	red	red	blue	right	left	0.30000000000000004	0.7	4	2	1.2000000000000002	1.4	1	0	0.7	0.30000000000000004	2	4	1.4	1.2000000000000002	invalid	0.6665005450013268	53248	0	1	1	51200	0	51200	0	53248	1	0.7	51200	blue	red	0	4	ml	2.7.3	lorasick	sub-03_ses-01_task-ml_proj-lorasick_2020-10-13-15-24-34.608933
35	3	1	1	36	volatile	2	20	16	vs	blue	red	red	blue	right	left	0.30000000000000004	0.7	6	4	1.8000000000000005	2.8	0	1	0.7	0.30000000000000004	4	6	2.8	1.8000000000000005	valid	0.766468136000185	53248	0	1	1	51200	0	51200	0	53248	1	0.7	51200	blue	red	0	0	ml	2.7.3	lorasick	sub-03_ses-01_task-ml_proj-lorasick_2020-10-13-15-24-34.608933
36	3	1	1	37	volatile	2	20	17	vs	blue	red	red	blue	right	left	0.30000000000000004	0.7	6	4	1.8000000000000005	2.8	0	1	0.7	0.30000000000000004	4	6	2.8	1.8000000000000005	valid	0.7164769709997927	51200	0	0	2	51200	1	51200	1	53248	0	0.7	51200	blue	red	0	4	ml	2.7.3	lorasick	sub-03_ses-01_task-ml_proj-lorasick_2020-10-13-15-24-34.608933
37	3	1	1	38	volatile	2	20	18	vs	red	blue	red	blue	left	right	0.30000000000000004	0.7	6	4	1.8000000000000005	2.8	0	1	0.30000000000000004	0.7	6	4	1.8000000000000005	2.8	valid	0.583193221998954	53248	0	1	2	53248	1	53248	1	51200	0	0.7	53248	blue	red	0	4	ml	2.7.3	lorasick	sub-03_ses-01_task-ml_proj-lorasick_2020-10-13-15-24-34.608933
38	3	1	1	39	volatile	2	20	19	vs	blue	red	red	blue	right	left	0.30000000000000004	0.7	2	2	0.6000000000000001	1.4	0	1	0.7	0.30000000000000004	2	2	1.4	0.6000000000000001	valid	0.5498536599989166	51200	0	0	2	51200	1	51200	1	53248	0	0.7	51200	blue	red	1	2	ml	2.7.3	lorasick	sub-03_ses-01_task-ml_proj-lorasick_2020-10-13-15-24-34.608933
39	3	1	1	40	volatile	2	20	20	vs	red	blue	red	blue	left	right	0.30000000000000004	0.7	2	6	0.6000000000000001	4.199999999999998	0	1	0.30000000000000004	0.7	2	6	0.6000000000000001	4.199999999999998	valid	0.4165778690003208	53248	0	1	2	53248	1	53248	1	53248	1	0.7	53248	blue	red	1	6	ml	2.7.3	lorasick	sub-03_ses-01_task-ml_proj-lorasick_2020-10-13-15-24-34.608933
40	3	1	1	41	volatile	3	40	1	vs	red	blue	red	blue	left	right	0.7	0.30000000000000004	4	6	2.8	1.8000000000000005	1	0	0.7	0.30000000000000004	4	6	2.8	1.8000000000000005	valid	0.5332100609994086	53248	0	1	2	51200	0	51200	0	53248	1	0.7	51200	red	blue	0	0	ml	2.7.3	lorasick	sub-03_ses-01_task-ml_proj-lorasick_2020-10-13-15-24-34.608933
41	3	1	1	42	volatile	3	40	2	vs	blue	red	red	blue	right	left	0.7	0.30000000000000004	2	4	1.4	1.2000000000000002	1	0	0.30000000000000004	0.7	4	2	1.2000000000000002	1.4	valid	0.41656870800215984	51200	0	0	2	53248	0	53248	0	51200	1	0.7	53248	red	blue	0	0	ml	2.7.3	lorasick	sub-03_ses-01_task-ml_proj-lorasick_2020-10-13-15-24-34.608933
42	3	1	1	43	volatile	3	40	3	vs	blue	red	red	blue	right	left	0.7	0.30000000000000004	2	2	1.4	0.6000000000000001	1	0	0.30000000000000004	0.7	2	2	0.6000000000000001	1.4	valid	0.5498605029970349	51200	0	0	2	53248	0	53248	0	53248	0	0.7	53248	red	blue	0	0	ml	2.7.3	lorasick	sub-03_ses-01_task-ml_proj-lorasick_2020-10-13-15-24-34.608933
43	3	1	1	44	volatile	3	40	4	vs	blue	red	red	blue	right	left	0.7	0.30000000000000004	6	4	4.199999999999998	1.2000000000000002	1	0	0.30000000000000004	0.7	4	6	1.2000000000000002	4.199999999999998	valid	0.4165817670000251	53248	0	1	1	53248	1	53248	1	53248	1	0.7	53248	red	blue	1	6	ml	2.7.3	lorasick	sub-03_ses-01_task-ml_proj-lorasick_2020-10-13-15-24-34.608933
44	3	1	1	45	volatile	3	40	5	vs	red	blue	red	blue	left	right	0.7	0.30000000000000004	2	6	1.4	1.8000000000000005	1	0	0.7	0.30000000000000004	2	6	1.4	1.8000000000000005	valid	0.4498903659987264	51200	0	0	1	53248	0	51200	1	53248	0	0.7	51200	red	blue	0	2	ml	2.7.3	lorasick	sub-03_ses-01_task-ml_proj-lorasick_2020-10-13-15-24-34.608933
45	3	1	1	46	volatile	3	40	6	vs	red	blue	red	blue	left	right	0.7	0.30000000000000004	2	6	1.4	1.8000000000000005	1	0	0.7	0.30000000000000004	2	6	1.4	1.8000000000000005	valid	0.8664266699997825	51200	0	0	1	53248	0	51200	1	53248	0	0.7	51200	red	blue	0	2	ml	2.7.3	lorasick	sub-03_ses-01_task-ml_proj-lorasick_2020-10-13-15-24-34.608933
46	3	1	1	47	volatile	3	40	7	vs	red	blue	red	blue	left	right	0.7	0.30000000000000004	4	2	2.8	0.6000000000000001	1	0	0.7	0.30000000000000004	4	2	2.8	0.6000000000000001	valid	0.4332311739999568	51200	0	0	1	51200	1	51200	1	51200	1	0.7	51200	red	blue	1	4	ml	2.7.3	lorasick	sub-03_ses-01_task-ml_proj-lorasick_2020-10-13-15-24-34.608933
47	3	1	1	48	volatile	3	40	8	vs	blue	red	red	blue	right	left	0.7	0.30000000000000004	4	6	2.8	1.8000000000000005	1	0	0.30000000000000004	0.7	6	4	1.8000000000000005	2.8	valid	0.599852761002694	53248	0	1	1	53248	1	53248	1	51200	0	0.7	53248	red	blue	0	4	ml	2.7.3	lorasick	sub-03_ses-01_task-ml_proj-lorasick_2020-10-13-15-24-34.608933
48	3	1	1	49	volatile	3	40	9	vs	red	blue	red	blue	left	right	0.7	0.30000000000000004	6	6	4.199999999999998	1.8000000000000005	1	0	0.7	0.30000000000000004	6	6	4.199999999999998	1.8000000000000005	valid	0.4332314189996396	51200	0	0	1	51200	1	51200	1	53248	0	0.7	51200	red	blue	1	6	ml	2.7.3	lorasick	sub-03_ses-01_task-ml_proj-lorasick_2020-10-13-15-24-34.608933
49	3	1	1	50	volatile	3	40	10	vs	blue	red	red	blue	right	left	0.7	0.30000000000000004	2	10	1.4	3.0000000000000004	1	0	0.30000000000000004	0.7	10	2	3.0000000000000004	1.4	valid	0.6498304449996795	51200	0	0	2	51200	1	53248	0	51200	1	0.7	53248	red	blue	0	0	ml	2.7.3	lorasick	sub-03_ses-01_task-ml_proj-lorasick_2020-10-13-15-24-34.608933
50	3	1	2	51	volatile	3	40	11	vs	red	blue	red	blue	left	right	0.7	0.30000000000000004	4	6	2.8	1.8000000000000005	0	1	0.7	0.30000000000000004	4	6	2.8	1.8000000000000005	invalid	0.8331181260000449	53248	0	1	2	51200	0	51200	0	53248	1	0.7	51200	red	blue	0	6	ml	2.7.3	lorasick	sub-03_ses-01_task-ml_proj-lorasick_2020-10-13-15-24-34.608933
51	3	1	2	52	volatile	3	40	12	vs	red	blue	red	blue	left	right	0.7	0.30000000000000004	6	6	4.199999999999998	1.8000000000000005	1	0	0.7	0.30000000000000004	6	6	4.199999999999998	1.8000000000000005	valid	0.4665777490008622	53248	0	1	2	51200	0	51200	0	53248	1	0.7	51200	red	blue	1	0	ml	2.7.3	lorasick	sub-03_ses-01_task-ml_proj-lorasick_2020-10-13-15-24-34.608933
52	3	1	2	53	volatile	3	40	13	vs	blue	red	red	blue	right	left	0.7	0.30000000000000004	2	6	1.4	1.8000000000000005	1	0	0.30000000000000004	0.7	6	2	1.8000000000000005	1.4	valid	0.5165422259997285	51200	0	0	2	51200	1	53248	0	51200	1	0.7	53248	red	blue	0	0	ml	2.7.3	lorasick	sub-03_ses-01_task-ml_proj-lorasick_2020-10-13-15-24-34.608933
53	3	1	2	54	volatile	3	40	14	vs	red	blue	red	blue	left	right	0.7	0.30000000000000004	4	2	2.8	0.6000000000000001	0	1	0.7	0.30000000000000004	4	2	2.8	0.6000000000000001	invalid	0.6498309229973529	51200	0	0	1	51200	1	51200	1	51200	1	0.7	51200	red	blue	1	0	ml	2.7.3	lorasick	sub-03_ses-01_task-ml_proj-lorasick_2020-10-13-15-24-34.608933
54	3	1	2	55	volatile	3	40	15	vs	red	blue	red	blue	left	right	0.7	0.30000000000000004	2	4	1.4	1.2000000000000002	0	1	0.7	0.30000000000000004	2	4	1.4	1.2000000000000002	invalid	0.5998469549995207	51200	0	0	1	51200	1	51200	1	53248	0	0.7	51200	red	blue	0	0	ml	2.7.3	lorasick	sub-03_ses-01_task-ml_proj-lorasick_2020-10-13-15-24-34.608933
55	3	1	2	56	volatile	3	40	16	vs	red	blue	red	blue	left	right	0.7	0.30000000000000004	2	2	1.4	0.6000000000000001	1	0	0.7	0.30000000000000004	2	2	1.4	0.6000000000000001	valid	0.6165168359984818	53248	0	1	2	51200	0	51200	0	53248	1	0.7	51200	red	blue	1	0	ml	2.7.3	lorasick	sub-03_ses-01_task-ml_proj-lorasick_2020-10-13-15-24-34.608933
56	3	1	2	57	volatile	3	40	17	vs	blue	red	red	blue	right	left	0.7	0.30000000000000004	2	6	1.4	1.8000000000000005	1	0	0.30000000000000004	0.7	6	2	1.8000000000000005	1.4	valid	0.5665276559993799	51200	0	0	2	51200	1	53248	0	51200	1	0.7	53248	red	blue	0	0	ml	2.7.3	lorasick	sub-03_ses-01_task-ml_proj-lorasick_2020-10-13-15-24-34.608933
57	3	1	2	58	volatile	3	40	18	vs	red	blue	red	blue	left	right	0.7	0.30000000000000004	4	2	2.8	0.6000000000000001	0	1	0.7	0.30000000000000004	4	2	2.8	0.6000000000000001	invalid	0.5665319580002688	51200	0	0	1	51200	1	51200	1	51200	1	0.7	51200	red	blue	1	0	ml	2.7.3	lorasick	sub-03_ses-01_task-ml_proj-lorasick_2020-10-13-15-24-34.608933
58	3	1	2	59	volatile	3	40	19	vs	red	blue	red	blue	left	right	0.7	0.30000000000000004	6	4	4.199999999999998	1.2000000000000002	1	0	0.7	0.30000000000000004	6	4	4.199999999999998	1.2000000000000002	valid	0.5831832799995027	51200	0	0	1	51200	1	51200	1	51200	1	0.7	51200	red	blue	1	6	ml	2.7.3	lorasick	sub-03_ses-01_task-ml_proj-lorasick_2020-10-13-15-24-34.608933
59	3	1	2	60	volatile	3	40	20	vs	blue	red	red	blue	right	left	0.7	0.30000000000000004	2	6	1.4	1.8000000000000005	0	1	0.30000000000000004	0.7	6	2	1.8000000000000005	1.4	invalid	0.7164681629983534	51200	0	0	2	51200	1	53248	0	51200	1	0.7	53248	red	blue	0	6	ml	2.7.3	lorasick	sub-03_ses-01_task-ml_proj-lorasick_2020-10-13-15-24-34.608933
60	3	1	2	61	volatile	3	40	21	vs	red	blue	red	blue	left	right	0.7	0.30000000000000004	6	4	4.199999999999998	1.2000000000000002	1	0	0.7	0.30000000000000004	6	4	4.199999999999998	1.2000000000000002	valid	0.5665226989985968	51200	0	0	1	51200	1	51200	1	51200	1	0.7	51200	red	blue	1	6	ml	2.7.3	lorasick	sub-03_ses-01_task-ml_proj-lorasick_2020-10-13-15-24-34.608933
61	3	1	2	62	volatile	3	40	22	vs	blue	red	red	blue	right	left	0.7	0.30000000000000004	6	2	4.199999999999998	0.6000000000000001	1	0	0.30000000000000004	0.7	2	6	0.6000000000000001	4.199999999999998	valid	0.5165475180001522	53248	0	1	1	53248	1	53248	1	53248	1	0.7	53248	red	blue	1	6	ml	2.7.3	lorasick	sub-03_ses-01_task-ml_proj-lorasick_2020-10-13-15-24-34.608933
62	3	1	2	63	volatile	3	40	23	vs	blue	red	red	blue	right	left	0.7	0.30000000000000004	2	6	1.4	1.8000000000000005	1	0	0.30000000000000004	0.7	6	2	1.8000000000000005	1.4	valid	0.4998748660000274	51200	0	0	2	51200	1	53248	0	51200	1	0.7	53248	red	blue	0	0	ml	2.7.3	lorasick	sub-03_ses-01_task-ml_proj-lorasick_2020-10-13-15-24-34.608933
63	3	1	2	64	volatile	3	40	24	vs	red	blue	red	blue	left	right	0.7	0.30000000000000004	6	6	4.199999999999998	1.8000000000000005	1	0	0.7	0.30000000000000004	6	6	4.199999999999998	1.8000000000000005	valid	0.9830592699981936	51200	0	0	1	51200	1	51200	1	53248	0	0.7	51200	red	blue	1	6	ml	2.7.3	lorasick	sub-03_ses-01_task-ml_proj-lorasick_2020-10-13-15-24-34.608933
64	3	1	2	65	volatile	3	40	25	vs	blue	red	red	blue	right	left	0.7	0.30000000000000004	6	2	4.199999999999998	0.6000000000000001	0	1	0.30000000000000004	0.7	2	6	0.6000000000000001	4.199999999999998	invalid	0.5498698869996588	53248	0	1	1	53248	1	53248	1	53248	1	0.7	53248	red	blue	1	0	ml	2.7.3	lorasick	sub-03_ses-01_task-ml_proj-lorasick_2020-10-13-15-24-34.608933
65	3	1	2	66	volatile	3	40	26	vs	blue	red	red	blue	right	left	0.7	0.30000000000000004	6	4	4.199999999999998	1.2000000000000002	1	0	0.30000000000000004	0.7	4	6	1.2000000000000002	4.199999999999998	valid	0.4665552840015153	53248	0	1	1	53248	1	53248	1	53248	1	0.7	53248	red	blue	1	6	ml	2.7.3	lorasick	sub-03_ses-01_task-ml_proj-lorasick_2020-10-13-15-24-34.608933
66	3	1	2	67	volatile	3	40	27	vs	red	blue	red	blue	left	right	0.7	0.30000000000000004	2	10	1.4	3.0000000000000004	0	1	0.7	0.30000000000000004	2	10	1.4	3.0000000000000004	invalid	0.8497767459994066	53248	0	1	2	53248	1	51200	0	53248	1	0.7	51200	red	blue	0	10	ml	2.7.3	lorasick	sub-03_ses-01_task-ml_proj-lorasick_2020-10-13-15-24-34.608933
67	3	1	2	68	volatile	3	40	28	vs	red	blue	red	blue	left	right	0.7	0.30000000000000004	10	2	7.0	0.6000000000000001	1	0	0.7	0.30000000000000004	10	2	7.0	0.6000000000000001	valid	0.5165478219969373	51200	0	0	1	51200	1	51200	1	51200	1	0.7	51200	red	blue	1	10	ml	2.7.3	lorasick	sub-03_ses-01_task-ml_proj-lorasick_2020-10-13-15-24-34.608933
68	3	1	2	69	volatile	3	40	29	vs	blue	red	red	blue	right	left	0.7	0.30000000000000004	2	2	1.4	0.6000000000000001	0	1	0.30000000000000004	0.7	2	2	0.6000000000000001	1.4	invalid	0.7831339410004148	53248	0	1	1	53248	1	53248	1	53248	1	0.7	53248	red	blue	0	0	ml	2.7.3	lorasick	sub-03_ses-01_task-ml_proj-lorasick_2020-10-13-15-24-34.608933
69	3	1	2	70	volatile	3	40	30	vs	red	blue	red	blue	left	right	0.7	0.30000000000000004	6	6	4.199999999999998	1.8000000000000005	1	0	0.7	0.30000000000000004	6	6	4.199999999999998	1.8000000000000005	valid	0.44989446999898064	51200	0	0	1	51200	1	51200	1	53248	0	0.7	51200	red	blue	1	6	ml	2.7.3	lorasick	sub-03_ses-01_task-ml_proj-lorasick_2020-10-13-15-24-34.608933
70	3	1	2	71	volatile	3	40	31	vs	blue	red	red	blue	right	left	0.7	0.30000000000000004	4	2	2.8	0.6000000000000001	1	0	0.30000000000000004	0.7	2	4	0.6000000000000001	2.8	valid	0.4498986579965276	53248	0	1	1	53248	1	53248	1	53248	1	0.7	53248	red	blue	1	4	ml	2.7.3	lorasick	sub-03_ses-01_task-ml_proj-lorasick_2020-10-13-15-24-34.608933
71	3	1	2	72	volatile	3	40	32	vs	blue	red	red	blue	right	left	0.7	0.30000000000000004	2	10	1.4	3.0000000000000004	0	1	0.30000000000000004	0.7	10	2	3.0000000000000004	1.4	invalid	0.5165398589997494	51200	0	0	2	51200	1	53248	0	51200	1	0.7	53248	red	blue	0	10	ml	2.7.3	lorasick	sub-03_ses-01_task-ml_proj-lorasick_2020-10-13-15-24-34.608933
72	3	1	2	73	volatile	3	40	33	vs	red	blue	red	blue	left	right	0.7	0.30000000000000004	2	4	1.4	1.2000000000000002	1	0	0.7	0.30000000000000004	2	4	1.4	1.2000000000000002	valid	0.8831029220018536	53248	0	1	2	51200	0	51200	0	53248	1	0.7	51200	red	blue	0	0	ml	2.7.3	lorasick	sub-03_ses-01_task-ml_proj-lorasick_2020-10-13-15-24-34.608933
73	3	1	2	74	volatile	3	40	34	vs	blue	red	red	blue	right	left	0.7	0.30000000000000004	10	2	7.0	0.6000000000000001	0	1	0.30000000000000004	0.7	2	10	0.6000000000000001	7.0	invalid	0.4998863500004518	53248	0	1	1	53248	1	53248	1	53248	1	0.7	53248	red	blue	1	0	ml	2.7.3	lorasick	sub-03_ses-01_task-ml_proj-lorasick_2020-10-13-15-24-34.608933
74	3	1	2	75	volatile	3	40	35	vs	red	blue	red	blue	left	right	0.7	0.30000000000000004	6	4	4.199999999999998	1.2000000000000002	0	1	0.7	0.30000000000000004	6	4	4.199999999999998	1.2000000000000002	invalid	0.44989204299781693	51200	0	0	1	51200	1	51200	1	51200	1	0.7	51200	red	blue	1	0	ml	2.7.3	lorasick	sub-03_ses-01_task-ml_proj-lorasick_2020-10-13-15-24-34.608933
75	3	1	2	76	volatile	3	40	36	vs	blue	red	red	blue	right	left	0.7	0.30000000000000004	2	10	1.4	3.0000000000000004	1	0	0.30000000000000004	0.7	10	2	3.0000000000000004	1.4	valid	0.43323061099727056	51200	0	0	2	51200	1	53248	0	51200	1	0.7	53248	red	blue	0	0	ml	2.7.3	lorasick	sub-03_ses-01_task-ml_proj-lorasick_2020-10-13-15-24-34.608933
76	3	1	2	77	volatile	3	40	37	vs	blue	red	red	blue	right	left	0.7	0.30000000000000004	2	2	1.4	0.6000000000000001	1	0	0.30000000000000004	0.7	2	2	0.6000000000000001	1.4	valid	0.5498608369998692	51200	0	0	2	53248	0	53248	0	53248	0	0.7	53248	red	blue	0	0	ml	2.7.3	lorasick	sub-03_ses-01_task-ml_proj-lorasick_2020-10-13-15-24-34.608933
77	3	1	2	78	volatile	3	40	38	vs	blue	red	red	blue	right	left	0.7	0.30000000000000004	10	2	7.0	0.6000000000000001	0	1	0.30000000000000004	0.7	2	10	0.6000000000000001	7.0	invalid	0.4832264479991864	53248	0	1	1	53248	1	53248	1	53248	1	0.7	53248	red	blue	1	0	ml	2.7.3	lorasick	sub-03_ses-01_task-ml_proj-lorasick_2020-10-13-15-24-34.608933
78	3	1	2	79	volatile	3	40	39	vs	red	blue	red	blue	left	right	0.7	0.30000000000000004	2	10	1.4	3.0000000000000004	1	0	0.7	0.30000000000000004	2	10	1.4	3.0000000000000004	valid	0.9164290899971091	53248	0	1	2	53248	1	51200	0	53248	1	0.7	51200	red	blue	0	0	ml	2.7.3	lorasick	sub-03_ses-01_task-ml_proj-lorasick_2020-10-13-15-24-34.608933
79	3	1	2	80	volatile	3	40	40	vs	blue	red	red	blue	right	left	0.7	0.30000000000000004	4	2	2.8	0.6000000000000001	1	0	0.30000000000000004	0.7	2	4	0.6000000000000001	2.8	valid	0.7498168499987514	53248	0	1	1	53248	1	53248	1	53248	1	0.7	53248	red	blue	1	4	ml	2.7.3	lorasick	sub-03_ses-01_task-ml_proj-lorasick_2020-10-13-15-24-34.608933
80	3	1	2	81	volatile	4	40	1	vs	red	blue	red	blue	left	right	0.30000000000000004	0.7	2	2	0.6000000000000001	1.4	0	1	0.30000000000000004	0.7	2	2	0.6000000000000001	1.4	valid	0.4665489760009223	51200	0	0	1	53248	0	53248	0	53248	0	0.7	53248	blue	red	0	0	ml	2.7.3	lorasick	sub-03_ses-01_task-ml_proj-lorasick_2020-10-13-15-24-34.608933
81	3	1	2	82	volatile	4	40	2	vs	red	blue	red	blue	left	right	0.30000000000000004	0.7	6	2	1.8000000000000005	1.4	1	0	0.30000000000000004	0.7	6	2	1.8000000000000005	1.4	invalid	0.5665201480005635	51200	0	0	1	51200	1	53248	0	51200	1	0.7	53248	blue	red	0	6	ml	2.7.3	lorasick	sub-03_ses-01_task-ml_proj-lorasick_2020-10-13-15-24-34.608933
82	3	1	2	83	volatile	4	40	3	vs	red	blue	red	blue	left	right	0.30000000000000004	0.7	2	6	0.6000000000000001	4.199999999999998	0	1	0.30000000000000004	0.7	2	6	0.6000000000000001	4.199999999999998	valid	0.6665017390005232	53248	0	1	2	53248	1	53248	1	53248	1	0.7	53248	blue	red	1	6	ml	2.7.3	lorasick	sub-03_ses-01_task-ml_proj-lorasick_2020-10-13-15-24-34.608933
83	3	1	2	84	volatile	4	40	4	vs	blue	red	red	blue	right	left	0.30000000000000004	0.7	6	6	1.8000000000000005	4.199999999999998	0	1	0.7	0.30000000000000004	6	6	4.199999999999998	1.8000000000000005	valid	0.4165681479971681	51200	0	0	2	51200	1	51200	1	53248	0	0.7	51200	blue	red	1	6	ml	2.7.3	lorasick	sub-03_ses-01_task-ml_proj-lorasick_2020-10-13-15-24-34.608933
84	3	1	2	85	volatile	4	40	5	vs	red	blue	red	blue	left	right	0.30000000000000004	0.7	6	6	1.8000000000000005	4.199999999999998	0	1	0.30000000000000004	0.7	6	6	1.8000000000000005	4.199999999999998	valid	0.49988182499873796	53248	0	1	2	53248	1	53248	1	53248	1	0.7	53248	blue	red	0	6	ml	2.7.3	lorasick	sub-03_ses-01_task-ml_proj-lorasick_2020-10-13-15-24-34.608933
85	3	1	2	86	volatile	4	40	6	vs	blue	red	red	blue	right	left	0.30000000000000004	0.7	2	10	0.6000000000000001	7.0	0	1	0.7	0.30000000000000004	10	2	7.0	0.6000000000000001	valid	0.4498863400003757	51200	0	0	2	51200	1	51200	1	51200	1	0.7	51200	blue	red	1	10	ml	2.7.3	lorasick	sub-03_ses-01_task-ml_proj-lorasick_2020-10-13-15-24-34.608933
86	3	1	2	87	volatile	4	40	7	vs	blue	red	red	blue	right	left	0.30000000000000004	0.7	2	10	0.6000000000000001	7.0	0	1	0.7	0.30000000000000004	10	2	7.0	0.6000000000000001	valid	0.4832128550006018	51200	0	0	2	51200	1	51200	1	51200	1	0.7	51200	blue	red	1	10	ml	2.7.3	lorasick	sub-03_ses-01_task-ml_proj-lorasick_2020-10-13-15-24-34.608933
87	3	1	2	88	volatile	4	40	8	vs	blue	red	red	blue	right	left	0.30000000000000004	0.7	4	2	1.2000000000000002	1.4	0	1	0.7	0.30000000000000004	2	4	1.4	1.2000000000000002	valid	0.5998563030007062	53248	0	1	1	51200	0	51200	0	53248	1	0.7	51200	blue	red	0	0	ml	2.7.3	lorasick	sub-03_ses-01_task-ml_proj-lorasick_2020-10-13-15-24-34.608933
88	3	1	2	89	volatile	4	40	9	vs	blue	red	red	blue	right	left	0.30000000000000004	0.7	2	10	0.6000000000000001	7.0	0	1	0.7	0.30000000000000004	10	2	7.0	0.6000000000000001	valid	0.3665841580004781	51200	0	0	2	51200	1	51200	1	51200	1	0.7	51200	blue	red	1	10	ml	2.7.3	lorasick	sub-03_ses-01_task-ml_proj-lorasick_2020-10-13-15-24-34.608933
89	3	1	2	90	volatile	4	40	10	vs	red	blue	red	blue	left	right	0.30000000000000004	0.7	2	4	0.6000000000000001	2.8	1	0	0.30000000000000004	0.7	2	4	0.6000000000000001	2.8	invalid	0.4665714120019402	53248	0	1	2	53248	1	53248	1	53248	1	0.7	53248	blue	red	1	0	ml	2.7.3	lorasick	sub-03_ses-01_task-ml_proj-lorasick_2020-10-13-15-24-34.608933
90	3	1	2	91	volatile	4	40	11	vs	red	blue	red	blue	left	right	0.30000000000000004	0.7	2	10	0.6000000000000001	7.0	1	0	0.30000000000000004	0.7	2	10	0.6000000000000001	7.0	invalid	0.3999162959989917	53248	0	1	2	53248	1	53248	1	53248	1	0.7	53248	blue	red	1	0	ml	2.7.3	lorasick	sub-03_ses-01_task-ml_proj-lorasick_2020-10-13-15-24-34.608933
91	3	1	2	92	volatile	4	40	12	vs	red	blue	red	blue	left	right	0.30000000000000004	0.7	10	2	3.0000000000000004	1.4	0	1	0.30000000000000004	0.7	10	2	3.0000000000000004	1.4	valid	0.4998751299972355	51200	0	0	1	51200	1	53248	0	51200	1	0.7	53248	blue	red	0	0	ml	2.7.3	lorasick	sub-03_ses-01_task-ml_proj-lorasick_2020-10-13-15-24-34.608933
92	3	1	2	93	volatile	4	40	13	vs	red	blue	red	blue	left	right	0.30000000000000004	0.7	4	2	1.2000000000000002	1.4	0	1	0.30000000000000004	0.7	4	2	1.2000000000000002	1.4	valid	0.4998770359998162	51200	0	0	1	53248	0	53248	0	51200	1	0.7	53248	blue	red	0	0	ml	2.7.3	lorasick	sub-03_ses-01_task-ml_proj-lorasick_2020-10-13-15-24-34.608933
93	3	1	2	94	volatile	4	40	14	vs	blue	red	red	blue	right	left	0.30000000000000004	0.7	4	6	1.2000000000000002	4.199999999999998	1	0	0.7	0.30000000000000004	6	4	4.199999999999998	1.2000000000000002	invalid	0.41656259000228596	51200	0	0	2	51200	1	51200	1	51200	1	0.7	51200	blue	red	1	0	ml	2.7.3	lorasick	sub-03_ses-01_task-ml_proj-lorasick_2020-10-13-15-24-34.608933
94	3	1	2	95	volatile	4	40	15	vs	red	blue	red	blue	left	right	0.30000000000000004	0.7	2	10	0.6000000000000001	7.0	1	0	0.30000000000000004	0.7	2	10	0.6000000000000001	7.0	invalid	0.4332411399991543	53248	0	1	2	53248	1	53248	1	53248	1	0.7	53248	blue	red	1	0	ml	2.7.3	lorasick	sub-03_ses-01_task-ml_proj-lorasick_2020-10-13-15-24-34.608933
95	3	1	2	96	volatile	4	40	16	vs	red	blue	red	blue	left	right	0.30000000000000004	0.7	2	6	0.6000000000000001	4.199999999999998	1	0	0.30000000000000004	0.7	2	6	0.6000000000000001	4.199999999999998	invalid	0.8997529600019334	51200	0	0	1	53248	0	53248	0	53248	0	0.7	53248	blue	red	1	2	ml	2.7.3	lorasick	sub-03_ses-01_task-ml_proj-lorasick_2020-10-13-15-24-34.608933
96	3	1	2	97	volatile	4	40	17	vs	blue	red	red	blue	right	left	0.30000000000000004	0.7	2	4	0.6000000000000001	2.8	1	0	0.7	0.30000000000000004	4	2	2.8	0.6000000000000001	invalid	0.5165461370015692	53248	0	1	1	51200	0	51200	0	51200	0	0.7	51200	blue	red	1	2	ml	2.7.3	lorasick	sub-03_ses-01_task-ml_proj-lorasick_2020-10-13-15-24-34.608933
97	3	1	2	98	volatile	4	40	18	vs	red	blue	red	blue	left	right	0.30000000000000004	0.7	2	6	0.6000000000000001	4.199999999999998	0	1	0.30000000000000004	0.7	2	6	0.6000000000000001	4.199999999999998	valid	0.4165657439989445	51200	0	0	1	53248	0	53248	0	53248	0	0.7	53248	blue	red	1	0	ml	2.7.3	lorasick	sub-03_ses-01_task-ml_proj-lorasick_2020-10-13-15-24-34.608933
98	3	1	2	99	volatile	4	40	19	vs	blue	red	red	blue	right	left	0.30000000000000004	0.7	2	4	0.6000000000000001	2.8	0	1	0.7	0.30000000000000004	4	2	2.8	0.6000000000000001	valid	0.4665632319993165	53248	0	1	1	51200	0	51200	0	51200	0	0.7	51200	blue	red	1	0	ml	2.7.3	lorasick	sub-03_ses-01_task-ml_proj-lorasick_2020-10-13-15-24-34.608933
99	3	1	2	100	volatile	4	40	20	vs	blue	red	red	blue	right	left	0.30000000000000004	0.7	6	4	1.8000000000000005	2.8	0	1	0.7	0.30000000000000004	4	6	2.8	1.8000000000000005	valid	0.4165708079999604	51200	0	0	2	51200	1	51200	1	53248	0	0.7	51200	blue	red	0	4	ml	2.7.3	lorasick	sub-03_ses-01_task-ml_proj-lorasick_2020-10-13-15-24-34.608933
100	3	1	3	101	volatile	4	40	21	vs	red	blue	red	blue	left	right	0.30000000000000004	0.7	6	4	1.8000000000000005	2.8	0	1	0.30000000000000004	0.7	6	4	1.8000000000000005	2.8	valid	0.6664931470004376	51200	0	0	1	53248	0	53248	0	51200	1	0.7	53248	blue	red	0	0	ml	2.7.3	lorasick	sub-03_ses-01_task-ml_proj-lorasick_2020-10-13-15-24-34.608933
101	3	1	3	102	volatile	4	40	22	vs	red	blue	red	blue	left	right	0.30000000000000004	0.7	4	2	1.2000000000000002	1.4	0	1	0.30000000000000004	0.7	4	2	1.2000000000000002	1.4	valid	0.5998586570021871	53248	0	1	2	53248	1	53248	1	51200	0	0.7	53248	blue	red	0	2	ml	2.7.3	lorasick	sub-03_ses-01_task-ml_proj-lorasick_2020-10-13-15-24-34.608933
102	3	1	3	103	volatile	4	40	23	vs	red	blue	red	blue	left	right	0.30000000000000004	0.7	2	2	0.6000000000000001	1.4	0	1	0.30000000000000004	0.7	2	2	0.6000000000000001	1.4	valid	0.4998858229992038	53248	0	1	2	53248	1	53248	1	53248	1	0.7	53248	blue	red	0	2	ml	2.7.3	lorasick	sub-03_ses-01_task-ml_proj-lorasick_2020-10-13-15-24-34.608933
103	3	1	3	104	volatile	4	40	24	vs	blue	red	red	blue	right	left	0.30000000000000004	0.7	2	6	0.6000000000000001	4.199999999999998	0	1	0.7	0.30000000000000004	6	2	4.199999999999998	0.6000000000000001	valid	0.41656476700154604	51200	0	0	2	51200	1	51200	1	51200	1	0.7	51200	blue	red	1	6	ml	2.7.3	lorasick	sub-03_ses-01_task-ml_proj-lorasick_2020-10-13-15-24-34.608933
104	3	1	3	105	volatile	4	40	25	vs	blue	red	red	blue	right	left	0.30000000000000004	0.7	4	6	1.2000000000000002	4.199999999999998	1	0	0.7	0.30000000000000004	6	4	4.199999999999998	1.2000000000000002	invalid	0.34991852899838705	51200	0	0	2	51200	1	51200	1	51200	1	0.7	51200	blue	red	1	0	ml	2.7.3	lorasick	sub-03_ses-01_task-ml_proj-lorasick_2020-10-13-15-24-34.608933
105	3	1	3	106	volatile	4	40	26	vs	red	blue	red	blue	left	right	0.30000000000000004	0.7	2	2	0.6000000000000001	1.4	1	0	0.30000000000000004	0.7	2	2	0.6000000000000001	1.4	invalid	0.4499035370026832	53248	0	1	2	53248	1	53248	1	53248	1	0.7	53248	blue	red	0	0	ml	2.7.3	lorasick	sub-03_ses-01_task-ml_proj-lorasick_2020-10-13-15-24-34.608933
106	3	1	3	107	volatile	4	40	27	vs	red	blue	red	blue	left	right	0.30000000000000004	0.7	6	6	1.8000000000000005	4.199999999999998	0	1	0.30000000000000004	0.7	6	6	1.8000000000000005	4.199999999999998	valid	0.39992767500007176	53248	0	1	2	53248	1	53248	1	53248	1	0.7	53248	blue	red	0	6	ml	2.7.3	lorasick	sub-03_ses-01_task-ml_proj-lorasick_2020-10-13-15-24-34.608933
107	3	1	3	108	volatile	4	40	28	vs	blue	red	red	blue	right	left	0.30000000000000004	0.7	2	2	0.6000000000000001	1.4	0	1	0.7	0.30000000000000004	2	2	1.4	0.6000000000000001	valid	0.4665505789998861	51200	0	0	2	51200	1	51200	1	53248	0	0.7	51200	blue	red	1	2	ml	2.7.3	lorasick	sub-03_ses-01_task-ml_proj-lorasick_2020-10-13-15-24-34.608933
108	3	1	3	109	volatile	4	40	29	vs	red	blue	red	blue	left	right	0.30000000000000004	0.7	4	6	1.2000000000000002	4.199999999999998	0	1	0.30000000000000004	0.7	4	6	1.2000000000000002	4.199999999999998	valid	0.4832228040031623	53248	0	1	2	53248	1	53248	1	53248	1	0.7	53248	blue	red	1	6	ml	2.7.3	lorasick	sub-03_ses-01_task-ml_proj-lorasick_2020-10-13-15-24-34.608933
109	3	1	3	110	volatile	4	40	30	vs	red	blue	red	blue	left	right	0.30000000000000004	0.7	2	4	0.6000000000000001	2.8	0	1	0.30000000000000004	0.7	2	4	0.6000000000000001	2.8	valid	0.4665613930010295	53248	0	1	2	53248	1	53248	1	53248	1	0.7	53248	blue	red	1	4	ml	2.7.3	lorasick	sub-03_ses-01_task-ml_proj-lorasick_2020-10-13-15-24-34.608933
110	3	1	3	111	volatile	4	40	31	vs	blue	red	red	blue	right	left	0.30000000000000004	0.7	6	4	1.8000000000000005	2.8	0	1	0.7	0.30000000000000004	4	6	2.8	1.8000000000000005	valid	0.3665807350007526	51200	0	0	2	51200	1	51200	1	53248	0	0.7	51200	blue	red	0	4	ml	2.7.3	lorasick	sub-03_ses-01_task-ml_proj-lorasick_2020-10-13-15-24-34.608933
111	3	1	3	112	volatile	4	40	32	vs	blue	red	red	blue	right	left	0.30000000000000004	0.7	10	2	3.0000000000000004	1.4	0	1	0.7	0.30000000000000004	2	10	1.4	3.0000000000000004	valid	0.6165482049982529	53248	0	1	1	53248	1	51200	0	53248	1	0.7	51200	blue	red	0	0	ml	2.7.3	lorasick	sub-03_ses-01_task-ml_proj-lorasick_2020-10-13-15-24-34.608933
112	3	1	3	113	volatile	4	40	33	vs	blue	red	red	blue	right	left	0.30000000000000004	0.7	10	2	3.0000000000000004	1.4	0	1	0.7	0.30000000000000004	2	10	1.4	3.0000000000000004	valid	0.7331553430012718	53248	0	1	1	53248	1	51200	0	53248	1	0.7	51200	blue	red	0	0	ml	2.7.3	lorasick	sub-03_ses-01_task-ml_proj-lorasick_2020-10-13-15-24-34.608933
113	3	1	3	114	volatile	4	40	34	vs	blue	red	red	blue	right	left	0.30000000000000004	0.7	2	6	0.6000000000000001	4.199999999999998	1	0	0.7	0.30000000000000004	6	2	4.199999999999998	0.6000000000000001	invalid	0.5165376430013566	51200	0	0	2	51200	1	51200	1	51200	1	0.7	51200	blue	red	1	0	ml	2.7.3	lorasick	sub-03_ses-01_task-ml_proj-lorasick_2020-10-13-15-24-34.608933
114	3	1	3	115	volatile	4	40	35	vs	blue	red	red	blue	right	left	0.30000000000000004	0.7	4	2	1.2000000000000002	1.4	1	0	0.7	0.30000000000000004	2	4	1.4	1.2000000000000002	invalid	0.4832134379976196	51200	0	0	2	51200	1	51200	1	53248	0	0.7	51200	blue	red	0	0	ml	2.7.3	lorasick	sub-03_ses-01_task-ml_proj-lorasick_2020-10-13-15-24-34.608933
115	3	1	3	116	volatile	4	40	36	vs	blue	red	red	blue	right	left	0.30000000000000004	0.7	2	6	0.6000000000000001	4.199999999999998	0	1	0.7	0.30000000000000004	6	2	4.199999999999998	0.6000000000000001	valid	0.5998503350019746	51200	0	0	2	51200	1	51200	1	51200	1	0.7	51200	blue	red	1	6	ml	2.7.3	lorasick	sub-03_ses-01_task-ml_proj-lorasick_2020-10-13-15-24-34.608933
116	3	1	3	117	volatile	4	40	37	vs	red	blue	red	blue	left	right	0.30000000000000004	0.7	6	4	1.8000000000000005	2.8	0	1	0.30000000000000004	0.7	6	4	1.8000000000000005	2.8	valid	0.8497755300013523	51200	0	0	1	53248	0	53248	0	51200	1	0.7	53248	blue	red	0	0	ml	2.7.3	lorasick	sub-03_ses-01_task-ml_proj-lorasick_2020-10-13-15-24-34.608933
117	3	1	3	118	volatile	4	40	38	vs	blue	red	red	blue	right	left	0.30000000000000004	0.7	6	6	1.8000000000000005	4.199999999999998	1	0	0.7	0.30000000000000004	6	6	4.199999999999998	1.8000000000000005	invalid	0.4998761560018466	51200	0	0	2	51200	1	51200	1	53248	0	0.7	51200	blue	red	1	0	ml	2.7.3	lorasick	sub-03_ses-01_task-ml_proj-lorasick_2020-10-13-15-24-34.608933
118	3	1	3	119	volatile	4	40	39	vs	red	blue	red	blue	left	right	0.30000000000000004	0.7	2	6	0.6000000000000001	4.199999999999998	0	1	0.30000000000000004	0.7	2	6	0.6000000000000001	4.199999999999998	valid	0.4665619009974762	53248	0	1	2	53248	1	53248	1	53248	1	0.7	53248	blue	red	1	6	ml	2.7.3	lorasick	sub-03_ses-01_task-ml_proj-lorasick_2020-10-13-15-24-34.608933
119	3	1	3	120	volatile	4	40	40	vs	blue	red	red	blue	right	left	0.30000000000000004	0.7	6	4	1.8000000000000005	2.8	0	1	0.7	0.30000000000000004	4	6	2.8	1.8000000000000005	valid	0.5998452889980399	51200	0	0	2	51200	1	51200	1	53248	0	0.7	51200	blue	red	0	4	ml	2.7.3	lorasick	sub-03_ses-01_task-ml_proj-lorasick_2020-10-13-15-24-34.608933
120	3	1	3	121	volatile	5	40	1	vs	red	blue	red	blue	left	right	0.7	0.30000000000000004	2	6	1.4	1.8000000000000005	1	0	0.7	0.30000000000000004	2	6	1.4	1.8000000000000005	valid	0.4832219679992704	53248	0	1	2	53248	1	51200	0	53248	1	0.7	51200	red	blue	0	0	ml	2.7.3	lorasick	sub-03_ses-01_task-ml_proj-lorasick_2020-10-13-15-24-34.608933
121	3	1	3	122	volatile	5	40	2	vs	red	blue	red	blue	left	right	0.7	0.30000000000000004	10	2	7.0	0.6000000000000001	1	0	0.7	0.30000000000000004	10	2	7.0	0.6000000000000001	valid	0.5332066209994082	51200	0	0	1	51200	1	51200	1	51200	1	0.7	51200	red	blue	1	10	ml	2.7.3	lorasick	sub-03_ses-01_task-ml_proj-lorasick_2020-10-13-15-24-34.608933
122	3	1	3	123	volatile	5	40	3	vs	red	blue	red	blue	left	right	0.7	0.30000000000000004	4	2	2.8	0.6000000000000001	1	0	0.7	0.30000000000000004	4	2	2.8	0.6000000000000001	valid	0.5331990819977364	51200	0	0	1	51200	1	51200	1	51200	1	0.7	51200	red	blue	1	4	ml	2.7.3	lorasick	sub-03_ses-01_task-ml_proj-lorasick_2020-10-13-15-24-34.608933
123	3	1	3	124	volatile	5	40	4	vs	blue	red	red	blue	right	left	0.7	0.30000000000000004	10	2	7.0	0.6000000000000001	1	0	0.30000000000000004	0.7	2	10	0.6000000000000001	7.0	valid	0.4332372440003383	53248	0	1	1	53248	1	53248	1	53248	1	0.7	53248	red	blue	1	10	ml	2.7.3	lorasick	sub-03_ses-01_task-ml_proj-lorasick_2020-10-13-15-24-34.608933
124	3	1	3	125	volatile	5	40	5	vs	red	blue	red	blue	left	right	0.7	0.30000000000000004	4	6	2.8	1.8000000000000005	0	1	0.7	0.30000000000000004	4	6	2.8	1.8000000000000005	invalid	0.4165753019988188	51200	0	0	1	51200	1	51200	1	53248	0	0.7	51200	red	blue	0	0	ml	2.7.3	lorasick	sub-03_ses-01_task-ml_proj-lorasick_2020-10-13-15-24-34.608933
125	3	1	3	126	volatile	5	40	6	vs	red	blue	red	blue	left	right	0.7	0.30000000000000004	6	4	4.199999999999998	1.2000000000000002	1	0	0.7	0.30000000000000004	6	4	4.199999999999998	1.2000000000000002	valid	0.3332555080014572	51200	0	0	1	51200	1	51200	1	51200	1	0.7	51200	red	blue	1	6	ml	2.7.3	lorasick	sub-03_ses-01_task-ml_proj-lorasick_2020-10-13-15-24-34.608933
126	3	1	3	127	volatile	5	40	7	vs	red	blue	red	blue	left	right	0.7	0.30000000000000004	2	6	1.4	1.8000000000000005	0	1	0.7	0.30000000000000004	2	6	1.4	1.8000000000000005	invalid	0.7164998949992878	53248	0	1	2	53248	1	51200	0	53248	1	0.7	51200	red	blue	0	6	ml	2.7.3	lorasick	sub-03_ses-01_task-ml_proj-lorasick_2020-10-13-15-24-34.608933
127	3	1	3	128	volatile	5	40	8	vs	red	blue	red	blue	left	right	0.7	0.30000000000000004	4	6	2.8	1.8000000000000005	1	0	0.7	0.30000000000000004	4	6	2.8	1.8000000000000005	valid	0.36658142899977975	51200	0	0	1	51200	1	51200	1	53248	0	0.7	51200	red	blue	0	4	ml	2.7.3	lorasick	sub-03_ses-01_task-ml_proj-lorasick_2020-10-13-15-24-34.608933
128	3	1	3	129	volatile	5	40	9	vs	blue	red	red	blue	right	left	0.7	0.30000000000000004	6	4	4.199999999999998	1.2000000000000002	0	1	0.30000000000000004	0.7	4	6	1.2000000000000002	4.199999999999998	invalid	0.4165764539975497	53248	0	1	1	53248	1	53248	1	53248	1	0.7	53248	red	blue	1	0	ml	2.7.3	lorasick	sub-03_ses-01_task-ml_proj-lorasick_2020-10-13-15-24-34.608933
129	3	1	3	130	volatile	5	40	10	vs	red	blue	red	blue	left	right	0.7	0.30000000000000004	2	10	1.4	3.0000000000000004	1	0	0.7	0.30000000000000004	2	10	1.4	3.0000000000000004	valid	0.5498517650012218	53248	0	1	2	53248	1	51200	0	53248	1	0.7	51200	red	blue	0	0	ml	2.7.3	lorasick	sub-03_ses-01_task-ml_proj-lorasick_2020-10-13-15-24-34.608933
130	3	1	3	131	volatile	5	40	11	vs	blue	red	red	blue	right	left	0.7	0.30000000000000004	2	2	1.4	0.6000000000000001	1	0	0.30000000000000004	0.7	2	2	0.6000000000000001	1.4	valid	0.6332165269996041	53248	0	1	1	53248	1	53248	1	53248	1	0.7	53248	red	blue	0	2	ml	2.7.3	lorasick	sub-03_ses-01_task-ml_proj-lorasick_2020-10-13-15-24-34.608933
131	3	1	3	132	volatile	5	40	12	vs	blue	red	red	blue	right	left	0.7	0.30000000000000004	4	6	2.8	1.8000000000000005	1	0	0.30000000000000004	0.7	6	4	1.8000000000000005	2.8	valid	0.5998511549987597	53248	0	1	1	53248	1	53248	1	51200	0	0.7	53248	red	blue	0	4	ml	2.7.3	lorasick	sub-03_ses-01_task-ml_proj-lorasick_2020-10-13-15-24-34.608933
132	3	1	3	133	volatile	5	40	13	vs	red	blue	red	blue	left	right	0.7	0.30000000000000004	6	6	4.199999999999998	1.8000000000000005	0	1	0.7	0.30000000000000004	6	6	4.199999999999998	1.8000000000000005	invalid	0.4498910559996148	51200	0	0	1	51200	1	51200	1	53248	0	0.7	51200	red	blue	1	0	ml	2.7.3	lorasick	sub-03_ses-01_task-ml_proj-lorasick_2020-10-13-15-24-34.608933
133	3	1	3	134	volatile	5	40	14	vs	red	blue	red	blue	left	right	0.7	0.30000000000000004	6	2	4.199999999999998	0.6000000000000001	1	0	0.7	0.30000000000000004	6	2	4.199999999999998	0.6000000000000001	valid	0.4832150509973872	51200	0	0	1	51200	1	51200	1	51200	1	0.7	51200	red	blue	1	6	ml	2.7.3	lorasick	sub-03_ses-01_task-ml_proj-lorasick_2020-10-13-15-24-34.608933
134	3	1	3	135	volatile	5	40	15	vs	red	blue	red	blue	left	right	0.7	0.30000000000000004	6	6	4.199999999999998	1.8000000000000005	0	1	0.7	0.30000000000000004	6	6	4.199999999999998	1.8000000000000005	invalid	0.3665813980005623	51200	0	0	1	51200	1	51200	1	53248	0	0.7	51200	red	blue	1	0	ml	2.7.3	lorasick	sub-03_ses-01_task-ml_proj-lorasick_2020-10-13-15-24-34.608933
135	3	1	3	136	volatile	5	40	16	vs	red	blue	red	blue	left	right	0.7	0.30000000000000004	6	6	4.199999999999998	1.8000000000000005	1	0	0.7	0.30000000000000004	6	6	4.199999999999998	1.8000000000000005	valid	0.3832445200023358	51200	0	0	1	51200	1	51200	1	53248	0	0.7	51200	red	blue	1	6	ml	2.7.3	lorasick	sub-03_ses-01_task-ml_proj-lorasick_2020-10-13-15-24-34.608933
136	3	1	3	137	volatile	5	40	17	vs	red	blue	red	blue	left	right	0.7	0.30000000000000004	10	2	7.0	0.6000000000000001	0	1	0.7	0.30000000000000004	10	2	7.0	0.6000000000000001	invalid	0.4665539410016208	51200	0	0	1	51200	1	51200	1	51200	1	0.7	51200	red	blue	1	0	ml	2.7.3	lorasick	sub-03_ses-01_task-ml_proj-lorasick_2020-10-13-15-24-34.608933
137	3	1	3	138	volatile	5	40	18	vs	red	blue	red	blue	left	right	0.7	0.30000000000000004	6	2	4.199999999999998	0.6000000000000001	1	0	0.7	0.30000000000000004	6	2	4.199999999999998	0.6000000000000001	valid	0.44988983099756297	51200	0	0	1	51200	1	51200	1	51200	1	0.7	51200	red	blue	1	6	ml	2.7.3	lorasick	sub-03_ses-01_task-ml_proj-lorasick_2020-10-13-15-24-34.608933
138	3	1	3	139	volatile	5	40	19	vs	blue	red	red	blue	right	left	0.7	0.30000000000000004	4	2	2.8	0.6000000000000001	1	0	0.30000000000000004	0.7	2	4	0.6000000000000001	2.8	valid	0.5831956520014501	53248	0	1	1	53248	1	53248	1	53248	1	0.7	53248	red	blue	1	4	ml	2.7.3	lorasick	sub-03_ses-01_task-ml_proj-lorasick_2020-10-13-15-24-34.608933
139	3	1	3	140	volatile	5	40	20	vs	blue	red	red	blue	right	left	0.7	0.30000000000000004	6	6	4.199999999999998	1.8000000000000005	0	1	0.30000000000000004	0.7	6	6	1.8000000000000005	4.199999999999998	invalid	0.4832241739968594	53248	0	1	1	53248	1	53248	1	53248	1	0.7	53248	red	blue	0	0	ml	2.7.3	lorasick	sub-03_ses-01_task-ml_proj-lorasick_2020-10-13-15-24-34.608933
140	3	1	3	141	volatile	5	40	21	vs	red	blue	red	blue	left	right	0.7	0.30000000000000004	2	6	1.4	1.8000000000000005	0	1	0.7	0.30000000000000004	2	6	1.4	1.8000000000000005	invalid	0.5165537140019296	53248	0	1	2	53248	1	51200	0	53248	1	0.7	51200	red	blue	0	6	ml	2.7.3	lorasick	sub-03_ses-01_task-ml_proj-lorasick_2020-10-13-15-24-34.608933
141	3	1	3	142	volatile	5	40	22	vs	blue	red	red	blue	right	left	0.7	0.30000000000000004	2	10	1.4	3.0000000000000004	1	0	0.30000000000000004	0.7	10	2	3.0000000000000004	1.4	valid	0.3832427960005589	51200	0	0	2	51200	1	53248	0	51200	1	0.7	53248	red	blue	0	0	ml	2.7.3	lorasick	sub-03_ses-01_task-ml_proj-lorasick_2020-10-13-15-24-34.608933
142	3	1	3	143	volatile	5	40	23	vs	blue	red	red	blue	right	left	0.7	0.30000000000000004	2	4	1.4	1.2000000000000002	0	1	0.30000000000000004	0.7	4	2	1.2000000000000002	1.4	invalid	0.4665548519988079	51200	0	0	2	53248	0	53248	0	51200	1	0.7	53248	red	blue	0	4	ml	2.7.3	lorasick	sub-03_ses-01_task-ml_proj-lorasick_2020-10-13-15-24-34.608933
143	3	1	3	144	volatile	5	40	24	vs	blue	red	red	blue	right	left	0.7	0.30000000000000004	2	4	1.4	1.2000000000000002	0	1	0.30000000000000004	0.7	4	2	1.2000000000000002	1.4	invalid	0.4498890280010528	51200	0	0	2	53248	0	53248	0	51200	1	0.7	53248	red	blue	0	4	ml	2.7.3	lorasick	sub-03_ses-01_task-ml_proj-lorasick_2020-10-13-15-24-34.608933
144	3	1	3	145	volatile	5	40	25	vs	blue	red	red	blue	right	left	0.7	0.30000000000000004	10	2	7.0	0.6000000000000001	1	0	0.30000000000000004	0.7	2	10	0.6000000000000001	7.0	valid	0.5498706889993628	53248	0	1	1	53248	1	53248	1	53248	1	0.7	53248	red	blue	1	10	ml	2.7.3	lorasick	sub-03_ses-01_task-ml_proj-lorasick_2020-10-13-15-24-34.608933
145	3	1	3	146	volatile	5	40	26	vs	blue	red	red	blue	right	left	0.7	0.30000000000000004	10	2	7.0	0.6000000000000001	0	1	0.30000000000000004	0.7	2	10	0.6000000000000001	7.0	invalid	0.416579509001167	53248	0	1	1	53248	1	53248	1	53248	1	0.7	53248	red	blue	1	0	ml	2.7.3	lorasick	sub-03_ses-01_task-ml_proj-lorasick_2020-10-13-15-24-34.608933
146	3	1	3	147	volatile	5	40	27	vs	blue	red	red	blue	right	left	0.7	0.30000000000000004	6	2	4.199999999999998	0.6000000000000001	0	1	0.30000000000000004	0.7	2	6	0.6000000000000001	4.199999999999998	invalid	0.4332408220034267	53248	0	1	1	53248	1	53248	1	53248	1	0.7	53248	red	blue	1	0	ml	2.7.3	lorasick	sub-03_ses-01_task-ml_proj-lorasick_2020-10-13-15-24-34.608933
147	3	1	3	148	volatile	5	40	28	vs	blue	red	red	blue	right	left	0.7	0.30000000000000004	2	10	1.4	3.0000000000000004	1	0	0.30000000000000004	0.7	10	2	3.0000000000000004	1.4	valid	0.3832429600006435	51200	0	0	2	51200	1	53248	0	51200	1	0.7	53248	red	blue	0	0	ml	2.7.3	lorasick	sub-03_ses-01_task-ml_proj-lorasick_2020-10-13-15-24-34.608933
148	3	1	3	149	volatile	5	40	29	vs	red	blue	red	blue	left	right	0.7	0.30000000000000004	4	2	2.8	0.6000000000000001	1	0	0.7	0.30000000000000004	4	2	2.8	0.6000000000000001	valid	0.5498699019990454	53248	0	1	2	51200	0	51200	0	51200	0	0.7	51200	red	blue	1	0	ml	2.7.3	lorasick	sub-03_ses-01_task-ml_proj-lorasick_2020-10-13-15-24-34.608933
149	3	1	3	150	volatile	5	40	30	vs	blue	red	red	blue	right	left	0.7	0.30000000000000004	2	2	1.4	0.6000000000000001	1	0	0.30000000000000004	0.7	2	2	0.6000000000000001	1.4	valid	0.5332051629993657	51200	0	0	2	53248	0	53248	0	53248	0	0.7	53248	red	blue	0	0	ml	2.7.3	lorasick	sub-03_ses-01_task-ml_proj-lorasick_2020-10-13-15-24-34.608933
150	3	1	4	151	volatile	5	40	31	vs	blue	red	red	blue	right	left	0.7	0.30000000000000004	2	2	1.4	0.6000000000000001	1	0	0.30000000000000004	0.7	2	2	0.6000000000000001	1.4	valid	0.7164783699990949	51200	0	0	2	53248	0	53248	0	53248	0	0.7	53248	red	blue	0	0	ml	2.7.3	lorasick	sub-03_ses-01_task-ml_proj-lorasick_2020-10-13-15-24-34.608933
151	3	1	4	152	volatile	5	40	32	vs	red	blue	red	blue	left	right	0.7	0.30000000000000004	6	4	4.199999999999998	1.2000000000000002	1	0	0.7	0.30000000000000004	6	4	4.199999999999998	1.2000000000000002	valid	0.4665609139992739	53248	0	1	2	51200	0	51200	0	51200	0	0.7	51200	red	blue	1	0	ml	2.7.3	lorasick	sub-03_ses-01_task-ml_proj-lorasick_2020-10-13-15-24-34.608933
152	3	1	4	153	volatile	5	40	33	vs	blue	red	red	blue	right	left	0.7	0.30000000000000004	4	2	2.8	0.6000000000000001	1	0	0.30000000000000004	0.7	2	4	0.6000000000000001	2.8	valid	0.4832110819988884	51200	0	0	2	53248	0	53248	0	53248	0	0.7	53248	red	blue	1	0	ml	2.7.3	lorasick	sub-03_ses-01_task-ml_proj-lorasick_2020-10-13-15-24-34.608933
153	3	1	4	154	volatile	5	40	34	vs	blue	red	red	blue	right	left	0.7	0.30000000000000004	2	6	1.4	1.8000000000000005	1	0	0.30000000000000004	0.7	6	2	1.8000000000000005	1.4	valid	0.5332076000013329	53248	0	1	1	51200	0	53248	1	51200	0	0.7	53248	red	blue	0	2	ml	2.7.3	lorasick	sub-03_ses-01_task-ml_proj-lorasick_2020-10-13-15-24-34.608933
154	3	1	4	155	volatile	5	40	35	vs	red	blue	red	blue	left	right	0.7	0.30000000000000004	2	4	1.4	1.2000000000000002	1	0	0.7	0.30000000000000004	2	4	1.4	1.2000000000000002	valid	0.4165674390023924	51200	0	0	1	51200	1	51200	1	53248	0	0.7	51200	red	blue	0	2	ml	2.7.3	lorasick	sub-03_ses-01_task-ml_proj-lorasick_2020-10-13-15-24-34.608933
155	3	1	4	156	volatile	5	40	36	vs	red	blue	red	blue	left	right	0.7	0.30000000000000004	6	2	4.199999999999998	0.6000000000000001	1	0	0.7	0.30000000000000004	6	2	4.199999999999998	0.6000000000000001	valid	0.3499283439996361	51200	0	0	1	51200	1	51200	1	51200	1	0.7	51200	red	blue	1	6	ml	2.7.3	lorasick	sub-03_ses-01_task-ml_proj-lorasick_2020-10-13-15-24-34.608933
156	3	1	4	157	volatile	5	40	37	vs	blue	red	red	blue	right	left	0.7	0.30000000000000004	6	4	4.199999999999998	1.2000000000000002	1	0	0.30000000000000004	0.7	4	6	1.2000000000000002	4.199999999999998	valid	0.3665939829988929	53248	0	1	1	53248	1	53248	1	53248	1	0.7	53248	red	blue	1	6	ml	2.7.3	lorasick	sub-03_ses-01_task-ml_proj-lorasick_2020-10-13-15-24-34.608933
157	3	1	4	158	volatile	5	40	38	vs	blue	red	red	blue	right	left	0.7	0.30000000000000004	2	2	1.4	0.6000000000000001	1	0	0.30000000000000004	0.7	2	2	0.6000000000000001	1.4	valid	0.3999193420022493	53248	0	1	1	53248	1	53248	1	53248	1	0.7	53248	red	blue	0	2	ml	2.7.3	lorasick	sub-03_ses-01_task-ml_proj-lorasick_2020-10-13-15-24-34.608933
158	3	1	4	159	volatile	5	40	39	vs	blue	red	red	blue	right	left	0.7	0.30000000000000004	4	6	2.8	1.8000000000000005	1	0	0.30000000000000004	0.7	6	4	1.8000000000000005	2.8	valid	0.5832002169991028	53248	0	1	1	53248	1	53248	1	51200	0	0.7	53248	red	blue	0	4	ml	2.7.3	lorasick	sub-03_ses-01_task-ml_proj-lorasick_2020-10-13-15-24-34.608933
159	3	1	4	160	volatile	5	40	40	vs	red	blue	red	blue	left	right	0.7	0.30000000000000004	2	4	1.4	1.2000000000000002	1	0	0.7	0.30000000000000004	2	4	1.4	1.2000000000000002	valid	0.4665511079983844	51200	0	0	1	51200	1	51200	1	53248	0	0.7	51200	red	blue	0	2	ml	2.7.3	lorasick	sub-03_ses-01_task-ml_proj-lorasick_2020-10-13-15-24-34.608933
160	3	1	4	161	volatile	6	20	1	vs	blue	red	red	blue	right	left	0.30000000000000004	0.7	6	2	1.8000000000000005	1.4	1	0	0.7	0.30000000000000004	2	6	1.4	1.8000000000000005	invalid	0.38325447299939697	53248	0	1	1	53248	1	51200	0	53248	1	0.7	51200	blue	red	0	6	ml	2.7.3	lorasick	sub-03_ses-01_task-ml_proj-lorasick_2020-10-13-15-24-34.608933
161	3	1	4	162	volatile	6	20	2	vs	red	blue	red	blue	left	right	0.30000000000000004	0.7	2	10	0.6000000000000001	7.0	0	1	0.30000000000000004	0.7	2	10	0.6000000000000001	7.0	valid	0.34992233900266	51200	0	0	1	53248	0	53248	0	53248	0	0.7	53248	blue	red	1	0	ml	2.7.3	lorasick	sub-03_ses-01_task-ml_proj-lorasick_2020-10-13-15-24-34.608933
162	3	1	4	163	volatile	6	20	3	vs	blue	red	red	blue	right	left	0.30000000000000004	0.7	4	2	1.2000000000000002	1.4	1	0	0.7	0.30000000000000004	2	4	1.4	1.2000000000000002	invalid	0.6165168180014007	53248	0	1	1	51200	0	51200	0	53248	1	0.7	51200	blue	red	0	4	ml	2.7.3	lorasick	sub-03_ses-01_task-ml_proj-lorasick_2020-10-13-15-24-34.608933
163	3	1	4	164	volatile	6	20	4	vs	blue	red	red	blue	right	left	0.30000000000000004	0.7	2	6	0.6000000000000001	4.199999999999998	0	1	0.7	0.30000000000000004	6	2	4.199999999999998	0.6000000000000001	valid	0.4665634220000357	53248	0	1	1	51200	0	51200	0	51200	0	0.7	51200	blue	red	1	0	ml	2.7.3	lorasick	sub-03_ses-01_task-ml_proj-lorasick_2020-10-13-15-24-34.608933
164	3	1	4	165	volatile	6	20	5	vs	blue	red	red	blue	right	left	0.30000000000000004	0.7	6	4	1.8000000000000005	2.8	0	1	0.7	0.30000000000000004	4	6	2.8	1.8000000000000005	valid	0.3665945739994641	53248	0	1	1	51200	0	51200	0	53248	1	0.7	51200	blue	red	0	0	ml	2.7.3	lorasick	sub-03_ses-01_task-ml_proj-lorasick_2020-10-13-15-24-34.608933
165	3	1	4	166	volatile	6	20	6	vs	blue	red	red	blue	right	left	0.30000000000000004	0.7	2	4	0.6000000000000001	2.8	0	1	0.7	0.30000000000000004	4	2	2.8	0.6000000000000001	valid	0.4165833040024154	53248	0	1	1	51200	0	51200	0	51200	0	0.7	51200	blue	red	1	0	ml	2.7.3	lorasick	sub-03_ses-01_task-ml_proj-lorasick_2020-10-13-15-24-34.608933
166	3	1	4	167	volatile	6	20	7	vs	blue	red	red	blue	right	left	0.30000000000000004	0.7	6	6	1.8000000000000005	4.199999999999998	0	1	0.7	0.30000000000000004	6	6	4.199999999999998	1.8000000000000005	valid	0.3665891300006479	51200	0	0	2	51200	1	51200	1	53248	0	0.7	51200	blue	red	1	6	ml	2.7.3	lorasick	sub-03_ses-01_task-ml_proj-lorasick_2020-10-13-15-24-34.608933
167	3	1	4	168	volatile	6	20	8	vs	blue	red	red	blue	right	left	0.30000000000000004	0.7	6	2	1.8000000000000005	1.4	1	0	0.7	0.30000000000000004	2	6	1.4	1.8000000000000005	invalid	0.4498891750008625	51200	0	0	2	53248	0	51200	1	53248	0	0.7	51200	blue	red	0	0	ml	2.7.3	lorasick	sub-03_ses-01_task-ml_proj-lorasick_2020-10-13-15-24-34.608933
168	3	1	4	169	volatile	6	20	9	vs	red	blue	red	blue	left	right	0.30000000000000004	0.7	4	2	1.2000000000000002	1.4	0	1	0.30000000000000004	0.7	4	2	1.2000000000000002	1.4	valid	0.4665500120026991	51200	0	0	1	53248	0	53248	0	51200	1	0.7	53248	blue	red	0	0	ml	2.7.3	lorasick	sub-03_ses-01_task-ml_proj-lorasick_2020-10-13-15-24-34.608933
169	3	1	4	170	volatile	6	20	10	vs	red	blue	red	blue	left	right	0.30000000000000004	0.7	6	2	1.8000000000000005	1.4	0	1	0.30000000000000004	0.7	6	2	1.8000000000000005	1.4	valid	0.5331998369983921	51200	0	0	1	51200	1	53248	0	51200	1	0.7	53248	blue	red	0	0	ml	2.7.3	lorasick	sub-03_ses-01_task-ml_proj-lorasick_2020-10-13-15-24-34.608933
170	3	1	4	171	volatile	6	20	11	vs	blue	red	red	blue	right	left	0.30000000000000004	0.7	4	6	1.2000000000000002	4.199999999999998	0	1	0.7	0.30000000000000004	6	4	4.199999999999998	1.2000000000000002	valid	0.4165684660001716	51200	0	0	2	51200	1	51200	1	51200	1	0.7	51200	blue	red	1	6	ml	2.7.3	lorasick	sub-03_ses-01_task-ml_proj-lorasick_2020-10-13-15-24-34.608933
171	3	1	4	172	volatile	6	20	12	vs	red	blue	red	blue	left	right	0.30000000000000004	0.7	4	6	1.2000000000000002	4.199999999999998	0	1	0.30000000000000004	0.7	4	6	1.2000000000000002	4.199999999999998	valid	0.3999170019997109	53248	0	1	2	53248	1	53248	1	53248	1	0.7	53248	blue	red	1	6	ml	2.7.3	lorasick	sub-03_ses-01_task-ml_proj-lorasick_2020-10-13-15-24-34.608933
172	3	1	4	173	volatile	6	20	13	vs	red	blue	red	blue	left	right	0.30000000000000004	0.7	10	2	3.0000000000000004	1.4	1	0	0.30000000000000004	0.7	10	2	3.0000000000000004	1.4	invalid	0.6165074520031341	51200	0	0	1	51200	1	53248	0	51200	1	0.7	53248	blue	red	0	10	ml	2.7.3	lorasick	sub-03_ses-01_task-ml_proj-lorasick_2020-10-13-15-24-34.608933
173	3	1	4	174	volatile	6	20	14	vs	blue	red	red	blue	right	left	0.30000000000000004	0.7	4	2	1.2000000000000002	1.4	0	1	0.7	0.30000000000000004	2	4	1.4	1.2000000000000002	valid	0.5165492939995602	53248	0	1	1	51200	0	51200	0	53248	1	0.7	51200	blue	red	0	0	ml	2.7.3	lorasick	sub-03_ses-01_task-ml_proj-lorasick_2020-10-13-15-24-34.608933
174	3	1	4	175	volatile	6	20	15	vs	red	blue	red	blue	left	right	0.30000000000000004	0.7	2	2	0.6000000000000001	1.4	1	0	0.30000000000000004	0.7	2	2	0.6000000000000001	1.4	invalid	0.4665720940029132	53248	0	1	2	53248	1	53248	1	53248	1	0.7	53248	blue	red	0	0	ml	2.7.3	lorasick	sub-03_ses-01_task-ml_proj-lorasick_2020-10-13-15-24-34.608933
175	3	1	4	176	volatile	6	20	16	vs	red	blue	red	blue	left	right	0.30000000000000004	0.7	2	10	0.6000000000000001	7.0	1	0	0.30000000000000004	0.7	2	10	0.6000000000000001	7.0	invalid	0.4165806319979311	53248	0	1	2	53248	1	53248	1	53248	1	0.7	53248	blue	red	1	0	ml	2.7.3	lorasick	sub-03_ses-01_task-ml_proj-lorasick_2020-10-13-15-24-34.608933
176	3	1	4	177	volatile	6	20	17	vs	red	blue	red	blue	left	right	0.30000000000000004	0.7	6	6	1.8000000000000005	4.199999999999998	0	1	0.30000000000000004	0.7	6	6	1.8000000000000005	4.199999999999998	valid	0.3999186859982729	53248	0	1	2	53248	1	53248	1	53248	1	0.7	53248	blue	red	0	6	ml	2.7.3	lorasick	sub-03_ses-01_task-ml_proj-lorasick_2020-10-13-15-24-34.608933
177	3	1	4	178	volatile	6	20	18	vs	blue	red	red	blue	right	left	0.30000000000000004	0.7	4	6	1.2000000000000002	4.199999999999998	0	1	0.7	0.30000000000000004	6	4	4.199999999999998	1.2000000000000002	valid	0.39990605000275536	51200	0	0	2	51200	1	51200	1	51200	1	0.7	51200	blue	red	1	6	ml	2.7.3	lorasick	sub-03_ses-01_task-ml_proj-lorasick_2020-10-13-15-24-34.608933
178	3	1	4	179	volatile	6	20	19	vs	red	blue	red	blue	left	right	0.30000000000000004	0.7	10	2	3.0000000000000004	1.4	0	1	0.30000000000000004	0.7	10	2	3.0000000000000004	1.4	valid	0.6165103149978677	51200	0	0	1	51200	1	53248	0	51200	1	0.7	53248	blue	red	0	0	ml	2.7.3	lorasick	sub-03_ses-01_task-ml_proj-lorasick_2020-10-13-15-24-34.608933
179	3	1	4	180	volatile	6	20	20	vs	red	blue	red	blue	left	right	0.30000000000000004	0.7	2	2	0.6000000000000001	1.4	0	1	0.30000000000000004	0.7	2	2	0.6000000000000001	1.4	valid	0.48322652600109	53248	0	1	2	53248	1	53248	1	53248	1	0.7	53248	blue	red	0	2	ml	2.7.3	lorasick	sub-03_ses-01_task-ml_proj-lorasick_2020-10-13-15-24-34.608933
180	3	1	4	181	volatile	7	20	1	vs	blue	red	red	blue	right	left	0.7	0.30000000000000004	6	2	4.199999999999998	0.6000000000000001	0	1	0.30000000000000004	0.7	2	6	0.6000000000000001	4.199999999999998	invalid	0.3665820650021488	51200	0	0	2	53248	0	53248	0	53248	0	0.7	53248	red	blue	1	2	ml	2.7.3	lorasick	sub-03_ses-01_task-ml_proj-lorasick_2020-10-13-15-24-34.608933
181	3	1	4	182	volatile	7	20	2	vs	red	blue	red	blue	left	right	0.7	0.30000000000000004	4	2	2.8	0.6000000000000001	0	1	0.7	0.30000000000000004	4	2	2.8	0.6000000000000001	invalid	0.3999175860008109	53248	0	1	2	51200	0	51200	0	51200	0	0.7	51200	red	blue	1	2	ml	2.7.3	lorasick	sub-03_ses-01_task-ml_proj-lorasick_2020-10-13-15-24-34.608933
182	3	1	4	183	volatile	7	20	3	vs	red	blue	red	blue	left	right	0.7	0.30000000000000004	4	6	2.8	1.8000000000000005	1	0	0.7	0.30000000000000004	4	6	2.8	1.8000000000000005	valid	0.3832543349999469	53248	0	1	2	51200	0	51200	0	53248	1	0.7	51200	red	blue	0	0	ml	2.7.3	lorasick	sub-03_ses-01_task-ml_proj-lorasick_2020-10-13-15-24-34.608933
183	3	1	4	184	volatile	7	20	4	vs	red	blue	red	blue	left	right	0.7	0.30000000000000004	6	6	4.199999999999998	1.8000000000000005	0	1	0.7	0.30000000000000004	6	6	4.199999999999998	1.8000000000000005	invalid	0.3499344720003137	53248	0	1	2	51200	0	51200	0	53248	1	0.7	51200	red	blue	1	6	ml	2.7.3	lorasick	sub-03_ses-01_task-ml_proj-lorasick_2020-10-13-15-24-34.608933
184	3	1	4	185	volatile	7	20	5	vs	blue	red	red	blue	right	left	0.7	0.30000000000000004	2	10	1.4	3.0000000000000004	1	0	0.30000000000000004	0.7	10	2	3.0000000000000004	1.4	valid	0.4665516880013456	51200	0	0	2	51200	1	53248	0	51200	1	0.7	53248	red	blue	0	0	ml	2.7.3	lorasick	sub-03_ses-01_task-ml_proj-lorasick_2020-10-13-15-24-34.608933
185	3	1	4	186	volatile	7	20	6	vs	blue	red	red	blue	right	left	0.7	0.30000000000000004	6	2	4.199999999999998	0.6000000000000001	1	0	0.30000000000000004	0.7	2	6	0.6000000000000001	4.199999999999998	valid	0.4332447240012698	53248	0	1	1	53248	1	53248	1	53248	1	0.7	53248	red	blue	1	6	ml	2.7.3	lorasick	sub-03_ses-01_task-ml_proj-lorasick_2020-10-13-15-24-34.608933
186	3	1	4	187	volatile	7	20	7	vs	red	blue	red	blue	left	right	0.7	0.30000000000000004	4	6	2.8	1.8000000000000005	1	0	0.7	0.30000000000000004	4	6	2.8	1.8000000000000005	valid	0.3665810109996528	51200	0	0	1	51200	1	51200	1	53248	0	0.7	51200	red	blue	0	4	ml	2.7.3	lorasick	sub-03_ses-01_task-ml_proj-lorasick_2020-10-13-15-24-34.608933
187	3	1	4	188	volatile	7	20	8	vs	blue	red	red	blue	right	left	0.7	0.30000000000000004	2	4	1.4	1.2000000000000002	0	1	0.30000000000000004	0.7	4	2	1.2000000000000002	1.4	invalid	0.6165160639975511	53248	0	1	1	53248	1	53248	1	51200	0	0.7	53248	red	blue	0	0	ml	2.7.3	lorasick	sub-03_ses-01_task-ml_proj-lorasick_2020-10-13-15-24-34.608933
188	3	1	4	189	volatile	7	20	9	vs	red	blue	red	blue	left	right	0.7	0.30000000000000004	2	10	1.4	3.0000000000000004	1	0	0.7	0.30000000000000004	2	10	1.4	3.0000000000000004	valid	0.516535713999474	51200	0	0	1	53248	0	51200	1	53248	0	0.7	51200	red	blue	0	2	ml	2.7.3	lorasick	sub-03_ses-01_task-ml_proj-lorasick_2020-10-13-15-24-34.608933
189	3	1	4	190	volatile	7	20	10	vs	blue	red	red	blue	right	left	0.7	0.30000000000000004	10	2	7.0	0.6000000000000001	1	0	0.30000000000000004	0.7	2	10	0.6000000000000001	7.0	valid	0.5498683980003989	53248	0	1	1	53248	1	53248	1	53248	1	0.7	53248	red	blue	1	10	ml	2.7.3	lorasick	sub-03_ses-01_task-ml_proj-lorasick_2020-10-13-15-24-34.608933
190	3	1	4	191	volatile	7	20	11	vs	blue	red	red	blue	right	left	0.7	0.30000000000000004	4	2	2.8	0.6000000000000001	1	0	0.30000000000000004	0.7	2	4	0.6000000000000001	2.8	valid	0.4332412910007406	53248	0	1	1	53248	1	53248	1	53248	1	0.7	53248	red	blue	1	4	ml	2.7.3	lorasick	sub-03_ses-01_task-ml_proj-lorasick_2020-10-13-15-24-34.608933
191	3	1	4	192	volatile	7	20	12	vs	blue	red	red	blue	right	left	0.7	0.30000000000000004	2	2	1.4	0.6000000000000001	0	1	0.30000000000000004	0.7	2	2	0.6000000000000001	1.4	invalid	0.4665652599978785	53248	0	1	1	53248	1	53248	1	53248	1	0.7	53248	red	blue	0	0	ml	2.7.3	lorasick	sub-03_ses-01_task-ml_proj-lorasick_2020-10-13-15-24-34.608933
192	3	1	4	193	volatile	7	20	13	vs	red	blue	red	blue	left	right	0.7	0.30000000000000004	6	2	4.199999999999998	0.6000000000000001	1	0	0.7	0.30000000000000004	6	2	4.199999999999998	0.6000000000000001	valid	0.3832440309997765	51200	0	0	1	51200	1	51200	1	51200	1	0.7	51200	red	blue	1	6	ml	2.7.3	lorasick	sub-03_ses-01_task-ml_proj-lorasick_2020-10-13-15-24-34.608933
193	3	1	4	194	volatile	7	20	14	vs	blue	red	red	blue	right	left	0.7	0.30000000000000004	4	6	2.8	1.8000000000000005	1	0	0.30000000000000004	0.7	6	4	1.8000000000000005	2.8	valid	0.48322303700115293	53248	0	1	1	53248	1	53248	1	51200	0	0.7	53248	red	blue	0	4	ml	2.7.3	lorasick	sub-03_ses-01_task-ml_proj-lorasick_2020-10-13-15-24-34.608933
194	3	1	4	195	volatile	7	20	15	vs	blue	red	red	blue	right	left	0.7	0.30000000000000004	2	10	1.4	3.0000000000000004	1	0	0.30000000000000004	0.7	10	2	3.0000000000000004	1.4	valid	0.4665495830013242	51200	0	0	2	51200	1	53248	0	51200	1	0.7	53248	red	blue	0	0	ml	2.7.3	lorasick	sub-03_ses-01_task-ml_proj-lorasick_2020-10-13-15-24-34.608933
195	3	1	4	196	volatile	7	20	16	vs	red	blue	red	blue	left	right	0.7	0.30000000000000004	2	4	1.4	1.2000000000000002	1	0	0.7	0.30000000000000004	2	4	1.4	1.2000000000000002	valid	0.8164471330019296	51200	0	0	1	51200	1	51200	1	53248	0	0.7	51200	red	blue	0	2	ml	2.7.3	lorasick	sub-03_ses-01_task-ml_proj-lorasick_2020-10-13-15-24-34.608933
196	3	1	4	197	volatile	7	20	17	vs	red	blue	red	blue	left	right	0.7	0.30000000000000004	6	6	4.199999999999998	1.8000000000000005	1	0	0.7	0.30000000000000004	6	6	4.199999999999998	1.8000000000000005	valid	0.3832371809985489	51200	0	0	1	51200	1	51200	1	53248	0	0.7	51200	red	blue	1	6	ml	2.7.3	lorasick	sub-03_ses-01_task-ml_proj-lorasick_2020-10-13-15-24-34.608933
197	3	1	4	198	volatile	7	20	18	vs	red	blue	red	blue	left	right	0.7	0.30000000000000004	6	4	4.199999999999998	1.2000000000000002	1	0	0.7	0.30000000000000004	6	4	4.199999999999998	1.2000000000000002	valid	0.3665846539988705	51200	0	0	1	51200	1	51200	1	51200	1	0.7	51200	red	blue	1	6	ml	2.7.3	lorasick	sub-03_ses-01_task-ml_proj-lorasick_2020-10-13-15-24-34.608933
198	3	1	4	199	volatile	7	20	19	vs	blue	red	red	blue	right	left	0.7	0.30000000000000004	2	6	1.4	1.8000000000000005	1	0	0.30000000000000004	0.7	6	2	1.8000000000000005	1.4	valid	0.4332403240005078	53248	0	1	1	51200	0	53248	1	51200	0	0.7	53248	red	blue	0	2	ml	2.7.3	lorasick	sub-03_ses-01_task-ml_proj-lorasick_2020-10-13-15-24-34.608933
199	3	1	4	200	volatile	7	20	20	vs	red	blue	red	blue	left	right	0.7	0.30000000000000004	2	2	1.4	0.6000000000000001	0	1	0.7	0.30000000000000004	2	2	1.4	0.6000000000000001	invalid	0.4165676590018848	51200	0	0	1	51200	1	51200	1	53248	0	0.7	51200	red	blue	1	0	ml	2.7.3	lorasick	sub-03_ses-01_task-ml_proj-lorasick_2020-10-13-15-24-34.608933
200	3	1	5	201	stable	8	200	1	vs	blue	red	red	blue	right	left	0.30000000000000004	0.7	4	2	1.2000000000000002	1.4	0	1	0.7	0.30000000000000004	2	4	1.4	1.2000000000000002	valid	0.4832224630008568	53248	0	1	1	51200	0	51200	0	53248	1	0.7	51200	blue	red	0	0	ml	2.7.3	lorasick	sub-03_ses-01_task-ml_proj-lorasick_2020-10-13-15-24-34.608933
201	3	1	5	202	stable	8	200	2	vs	red	blue	red	blue	left	right	0.30000000000000004	0.7	2	10	0.6000000000000001	7.0	0	1	0.30000000000000004	0.7	2	10	0.6000000000000001	7.0	valid	0.3832414319986128	51200	0	0	1	53248	0	53248	0	53248	0	0.7	53248	blue	red	1	0	ml	2.7.3	lorasick	sub-03_ses-01_task-ml_proj-lorasick_2020-10-13-15-24-34.608933
202	3	1	5	203	stable	8	200	3	vs	red	blue	red	blue	left	right	0.30000000000000004	0.7	4	6	1.2000000000000002	4.199999999999998	1	0	0.30000000000000004	0.7	4	6	1.2000000000000002	4.199999999999998	invalid	0.3165960339974845	51200	0	0	1	53248	0	53248	0	53248	0	0.7	53248	blue	red	1	4	ml	2.7.3	lorasick	sub-03_ses-01_task-ml_proj-lorasick_2020-10-13-15-24-34.608933
203	3	1	5	204	stable	8	200	4	vs	red	blue	red	blue	left	right	0.30000000000000004	0.7	2	6	0.6000000000000001	4.199999999999998	0	1	0.30000000000000004	0.7	2	6	0.6000000000000001	4.199999999999998	valid	0.3332600009998714	51200	0	0	1	53248	0	53248	0	53248	0	0.7	53248	blue	red	1	0	ml	2.7.3	lorasick	sub-03_ses-01_task-ml_proj-lorasick_2020-10-13-15-24-34.608933
204	3	1	5	205	stable	8	200	5	vs	red	blue	red	blue	left	right	0.30000000000000004	0.7	2	2	0.6000000000000001	1.4	1	0	0.30000000000000004	0.7	2	2	0.6000000000000001	1.4	invalid	0.44990129900179454	53248	0	1	2	53248	1	53248	1	53248	1	0.7	53248	blue	red	0	0	ml	2.7.3	lorasick	sub-03_ses-01_task-ml_proj-lorasick_2020-10-13-15-24-34.608933
205	3	1	5	206	stable	8	200	6	vs	red	blue	red	blue	left	right	0.30000000000000004	0.7	2	2	0.6000000000000001	1.4	0	1	0.30000000000000004	0.7	2	2	0.6000000000000001	1.4	valid	0.3832552130006661	53248	0	1	2	53248	1	53248	1	53248	1	0.7	53248	blue	red	0	2	ml	2.7.3	lorasick	sub-03_ses-01_task-ml_proj-lorasick_2020-10-13-15-24-34.608933
206	3	1	5	207	stable	8	200	7	vs	blue	red	red	blue	right	left	0.30000000000000004	0.7	2	2	0.6000000000000001	1.4	1	0	0.7	0.30000000000000004	2	2	1.4	0.6000000000000001	invalid	0.3499209680012427	51200	0	0	2	51200	1	51200	1	53248	0	0.7	51200	blue	red	1	0	ml	2.7.3	lorasick	sub-03_ses-01_task-ml_proj-lorasick_2020-10-13-15-24-34.608933
207	3	1	5	208	stable	8	200	8	vs	blue	red	red	blue	right	left	0.30000000000000004	0.7	6	4	1.8000000000000005	2.8	1	0	0.7	0.30000000000000004	4	6	2.8	1.8000000000000005	invalid	0.5165443719997711	53248	0	1	1	51200	0	51200	0	53248	1	0.7	51200	blue	red	0	6	ml	2.7.3	lorasick	sub-03_ses-01_task-ml_proj-lorasick_2020-10-13-15-24-34.608933
208	3	1	5	209	stable	8	200	9	vs	red	blue	red	blue	left	right	0.30000000000000004	0.7	2	2	0.6000000000000001	1.4	0	1	0.30000000000000004	0.7	2	2	0.6000000000000001	1.4	valid	0.3332544979966769	51200	0	0	1	53248	0	53248	0	53248	0	0.7	53248	blue	red	0	0	ml	2.7.3	lorasick	sub-03_ses-01_task-ml_proj-lorasick_2020-10-13-15-24-34.608933
209	3	1	5	210	stable	8	200	10	vs	blue	red	red	blue	right	left	0.30000000000000004	0.7	10	2	3.0000000000000004	1.4	0	1	0.7	0.30000000000000004	2	10	1.4	3.0000000000000004	valid	0.5165538889996242	53248	0	1	1	53248	1	51200	0	53248	1	0.7	51200	blue	red	0	0	ml	2.7.3	lorasick	sub-03_ses-01_task-ml_proj-lorasick_2020-10-13-15-24-34.608933
210	3	1	5	211	stable	8	200	11	vs	blue	red	red	blue	right	left	0.30000000000000004	0.7	6	6	1.8000000000000005	4.199999999999998	0	1	0.7	0.30000000000000004	6	6	4.199999999999998	1.8000000000000005	valid	0.4498906029984937	51200	0	0	2	51200	1	51200	1	53248	0	0.7	51200	blue	red	1	6	ml	2.7.3	lorasick	sub-03_ses-01_task-ml_proj-lorasick_2020-10-13-15-24-34.608933
211	3	1	5	212	stable	8	200	12	vs	blue	red	red	blue	right	left	0.30000000000000004	0.7	2	2	0.6000000000000001	1.4	0	1	0.7	0.30000000000000004	2	2	1.4	0.6000000000000001	valid	0.4165659020000021	51200	0	0	2	51200	1	51200	1	53248	0	0.7	51200	blue	red	1	2	ml	2.7.3	lorasick	sub-03_ses-01_task-ml_proj-lorasick_2020-10-13-15-24-34.608933
212	3	1	5	213	stable	8	200	13	vs	red	blue	red	blue	left	right	0.30000000000000004	0.7	4	6	1.2000000000000002	4.199999999999998	1	0	0.30000000000000004	0.7	4	6	1.2000000000000002	4.199999999999998	invalid	0.4332419040001696	53248	0	1	2	53248	1	53248	1	53248	1	0.7	53248	blue	red	1	0	ml	2.7.3	lorasick	sub-03_ses-01_task-ml_proj-lorasick_2020-10-13-15-24-34.608933
213	3	1	5	214	stable	8	200	14	vs	blue	red	red	blue	right	left	0.30000000000000004	0.7	6	6	1.8000000000000005	4.199999999999998	0	1	0.7	0.30000000000000004	6	6	4.199999999999998	1.8000000000000005	valid	0.3832380580024619	51200	0	0	2	51200	1	51200	1	53248	0	0.7	51200	blue	red	1	6	ml	2.7.3	lorasick	sub-03_ses-01_task-ml_proj-lorasick_2020-10-13-15-24-34.608933
214	3	1	5	215	stable	8	200	15	vs	red	blue	red	blue	left	right	0.30000000000000004	0.7	4	2	1.2000000000000002	1.4	0	1	0.30000000000000004	0.7	4	2	1.2000000000000002	1.4	valid	0.4665549119999923	53248	0	1	2	53248	1	53248	1	51200	0	0.7	53248	blue	red	0	2	ml	2.7.3	lorasick	sub-03_ses-01_task-ml_proj-lorasick_2020-10-13-15-24-34.608933
215	3	1	5	216	stable	8	200	16	vs	blue	red	red	blue	right	left	0.30000000000000004	0.7	6	4	1.8000000000000005	2.8	1	0	0.7	0.30000000000000004	4	6	2.8	1.8000000000000005	invalid	0.3999041220013169	51200	0	0	2	51200	1	51200	1	53248	0	0.7	51200	blue	red	0	0	ml	2.7.3	lorasick	sub-03_ses-01_task-ml_proj-lorasick_2020-10-13-15-24-34.608933
216	3	1	5	217	stable	8	200	17	vs	blue	red	red	blue	right	left	0.30000000000000004	0.7	6	6	1.8000000000000005	4.199999999999998	1	0	0.7	0.30000000000000004	6	6	4.199999999999998	1.8000000000000005	invalid	0.3832435050026106	51200	0	0	2	51200	1	51200	1	53248	0	0.7	51200	blue	red	1	0	ml	2.7.3	lorasick	sub-03_ses-01_task-ml_proj-lorasick_2020-10-13-15-24-34.608933
217	3	1	5	218	stable	8	200	18	vs	red	blue	red	blue	left	right	0.30000000000000004	0.7	4	6	1.2000000000000002	4.199999999999998	0	1	0.30000000000000004	0.7	4	6	1.2000000000000002	4.199999999999998	valid	0.3999184879976383	53248	0	1	2	53248	1	53248	1	53248	1	0.7	53248	blue	red	1	6	ml	2.7.3	lorasick	sub-03_ses-01_task-ml_proj-lorasick_2020-10-13-15-24-34.608933
218	3	1	5	219	stable	8	200	19	vs	red	blue	red	blue	left	right	0.30000000000000004	0.7	2	2	0.6000000000000001	1.4	0	1	0.30000000000000004	0.7	2	2	0.6000000000000001	1.4	valid	0.5498710719984956	53248	0	1	2	53248	1	53248	1	53248	1	0.7	53248	blue	red	0	2	ml	2.7.3	lorasick	sub-03_ses-01_task-ml_proj-lorasick_2020-10-13-15-24-34.608933
219	3	1	5	220	stable	8	200	20	vs	red	blue	red	blue	left	right	0.30000000000000004	0.7	2	4	0.6000000000000001	2.8	0	1	0.30000000000000004	0.7	2	4	0.6000000000000001	2.8	valid	0.399917839000409	53248	0	1	2	53248	1	53248	1	53248	1	0.7	53248	blue	red	1	4	ml	2.7.3	lorasick	sub-03_ses-01_task-ml_proj-lorasick_2020-10-13-15-24-34.608933
220	3	1	5	221	stable	8	200	21	vs	red	blue	red	blue	left	right	0.30000000000000004	0.7	2	6	0.6000000000000001	4.199999999999998	0	1	0.30000000000000004	0.7	2	6	0.6000000000000001	4.199999999999998	valid	0.3499332630017307	53248	0	1	2	53248	1	53248	1	53248	1	0.7	53248	blue	red	1	6	ml	2.7.3	lorasick	sub-03_ses-01_task-ml_proj-lorasick_2020-10-13-15-24-34.608933
221	3	1	5	222	stable	8	200	22	vs	red	blue	red	blue	left	right	0.30000000000000004	0.7	2	6	0.6000000000000001	4.199999999999998	0	1	0.30000000000000004	0.7	2	6	0.6000000000000001	4.199999999999998	valid	0.3832594479972613	53248	0	1	2	53248	1	53248	1	53248	1	0.7	53248	blue	red	1	6	ml	2.7.3	lorasick	sub-03_ses-01_task-ml_proj-lorasick_2020-10-13-15-24-34.608933
222	3	1	5	223	stable	8	200	23	vs	blue	red	red	blue	right	left	0.30000000000000004	0.7	6	4	1.8000000000000005	2.8	0	1	0.7	0.30000000000000004	4	6	2.8	1.8000000000000005	valid	0.833113543001673	51200	0	0	2	51200	1	51200	1	53248	0	0.7	51200	blue	red	0	4	ml	2.7.3	lorasick	sub-03_ses-01_task-ml_proj-lorasick_2020-10-13-15-24-34.608933
223	3	1	5	224	stable	8	200	24	vs	blue	red	red	blue	right	left	0.30000000000000004	0.7	2	4	0.6000000000000001	2.8	0	1	0.7	0.30000000000000004	4	2	2.8	0.6000000000000001	valid	0.34992151299957186	51200	0	0	2	51200	1	51200	1	51200	1	0.7	51200	blue	red	1	4	ml	2.7.3	lorasick	sub-03_ses-01_task-ml_proj-lorasick_2020-10-13-15-24-34.608933
224	3	1	5	225	stable	8	200	25	vs	red	blue	red	blue	left	right	0.30000000000000004	0.7	4	2	1.2000000000000002	1.4	0	1	0.30000000000000004	0.7	4	2	1.2000000000000002	1.4	valid	0.9497483230006764	53248	0	1	2	53248	1	53248	1	51200	0	0.7	53248	blue	red	0	2	ml	2.7.3	lorasick	sub-03_ses-01_task-ml_proj-lorasick_2020-10-13-15-24-34.608933
225	3	1	5	226	stable	8	200	26	vs	blue	red	red	blue	right	left	0.30000000000000004	0.7	2	6	0.6000000000000001	4.199999999999998	1	0	0.7	0.30000000000000004	6	2	4.199999999999998	0.6000000000000001	invalid	0.5332004359988787	51200	0	0	2	51200	1	51200	1	51200	1	0.7	51200	blue	red	1	0	ml	2.7.3	lorasick	sub-03_ses-01_task-ml_proj-lorasick_2020-10-13-15-24-34.608933
226	3	1	5	227	stable	8	200	27	vs	blue	red	red	blue	right	left	0.30000000000000004	0.7	4	6	1.2000000000000002	4.199999999999998	1	0	0.7	0.30000000000000004	6	4	4.199999999999998	1.2000000000000002	invalid	0.43322947900014697	51200	0	0	2	51200	1	51200	1	51200	1	0.7	51200	blue	red	1	0	ml	2.7.3	lorasick	sub-03_ses-01_task-ml_proj-lorasick_2020-10-13-15-24-34.608933
227	3	1	5	228	stable	8	200	28	vs	blue	red	red	blue	right	left	0.30000000000000004	0.7	2	4	0.6000000000000001	2.8	0	1	0.7	0.30000000000000004	4	2	2.8	0.6000000000000001	valid	0.3832444990002841	51200	0	0	2	51200	1	51200	1	51200	1	0.7	51200	blue	red	1	4	ml	2.7.3	lorasick	sub-03_ses-01_task-ml_proj-lorasick_2020-10-13-15-24-34.608933
228	3	1	5	229	stable	8	200	29	vs	blue	red	red	blue	right	left	0.30000000000000004	0.7	2	10	0.6000000000000001	7.0	1	0	0.7	0.30000000000000004	10	2	7.0	0.6000000000000001	invalid	0.3665901350032073	51200	0	0	2	51200	1	51200	1	51200	1	0.7	51200	blue	red	1	0	ml	2.7.3	lorasick	sub-03_ses-01_task-ml_proj-lorasick_2020-10-13-15-24-34.608933
229	3	1	5	230	stable	8	200	30	vs	blue	red	red	blue	right	left	0.30000000000000004	0.7	6	6	1.8000000000000005	4.199999999999998	0	1	0.7	0.30000000000000004	6	6	4.199999999999998	1.8000000000000005	valid	0.4832242900010897	53248	0	1	1	51200	0	51200	0	53248	1	0.7	51200	blue	red	1	0	ml	2.7.3	lorasick	sub-03_ses-01_task-ml_proj-lorasick_2020-10-13-15-24-34.608933
230	3	1	5	231	stable	8	200	31	vs	blue	red	red	blue	right	left	0.30000000000000004	0.7	4	6	1.2000000000000002	4.199999999999998	0	1	0.7	0.30000000000000004	6	4	4.199999999999998	1.2000000000000002	valid	0.4499029800026619	53248	0	1	1	51200	0	51200	0	51200	0	0.7	51200	blue	red	1	0	ml	2.7.3	lorasick	sub-03_ses-01_task-ml_proj-lorasick_2020-10-13-15-24-34.608933
231	3	1	5	232	stable	8	200	32	vs	blue	red	red	blue	right	left	0.30000000000000004	0.7	2	6	0.6000000000000001	4.199999999999998	1	0	0.7	0.30000000000000004	6	2	4.199999999999998	0.6000000000000001	invalid	0.34992013100054464	51200	0	0	2	51200	1	51200	1	51200	1	0.7	51200	blue	red	1	0	ml	2.7.3	lorasick	sub-03_ses-01_task-ml_proj-lorasick_2020-10-13-15-24-34.608933
232	3	1	5	233	stable	8	200	33	vs	blue	red	red	blue	right	left	0.30000000000000004	0.7	4	2	1.2000000000000002	1.4	1	0	0.7	0.30000000000000004	2	4	1.4	1.2000000000000002	invalid	0.5498674049995316	53248	0	1	1	51200	0	51200	0	53248	1	0.7	51200	blue	red	0	4	ml	2.7.3	lorasick	sub-03_ses-01_task-ml_proj-lorasick_2020-10-13-15-24-34.608933
233	3	1	5	234	stable	8	200	34	vs	red	blue	red	blue	left	right	0.30000000000000004	0.7	2	2	0.6000000000000001	1.4	1	0	0.30000000000000004	0.7	2	2	0.6000000000000001	1.4	invalid	0.9830750129985972	53248	0	1	2	53248	1	53248	1	53248	1	0.7	53248	blue	red	0	0	ml	2.7.3	lorasick	sub-03_ses-01_task-ml_proj-lorasick_2020-10-13-15-24-34.608933
234	3	1	5	235	stable	8	200	35	vs	blue	red	red	blue	right	left	0.30000000000000004	0.7	6	2	1.8000000000000005	1.4	0	1	0.7	0.30000000000000004	2	6	1.4	1.8000000000000005	valid	0.3999188849993516	53248	0	1	1	53248	1	51200	0	53248	1	0.7	51200	blue	red	0	0	ml	2.7.3	lorasick	sub-03_ses-01_task-ml_proj-lorasick_2020-10-13-15-24-34.608933
235	3	1	5	236	stable	8	200	36	vs	blue	red	red	blue	right	left	0.30000000000000004	0.7	2	4	0.6000000000000001	2.8	0	1	0.7	0.30000000000000004	4	2	2.8	0.6000000000000001	valid	0.4499002420016041	53248	0	1	1	51200	0	51200	0	51200	0	0.7	51200	blue	red	1	0	ml	2.7.3	lorasick	sub-03_ses-01_task-ml_proj-lorasick_2020-10-13-15-24-34.608933
236	3	1	5	237	stable	8	200	37	vs	red	blue	red	blue	left	right	0.30000000000000004	0.7	2	2	0.6000000000000001	1.4	0	1	0.30000000000000004	0.7	2	2	0.6000000000000001	1.4	valid	0.5498601920007786	51200	0	0	1	53248	0	53248	0	53248	0	0.7	53248	blue	red	0	0	ml	2.7.3	lorasick	sub-03_ses-01_task-ml_proj-lorasick_2020-10-13-15-24-34.608933
237	3	1	5	238	stable	8	200	38	vs	red	blue	red	blue	left	right	0.30000000000000004	0.7	6	2	1.8000000000000005	1.4	1	0	0.30000000000000004	0.7	6	2	1.8000000000000005	1.4	invalid	0.4832235449975997	53248	0	1	2	51200	0	53248	1	51200	0	0.7	53248	blue	red	0	0	ml	2.7.3	lorasick	sub-03_ses-01_task-ml_proj-lorasick_2020-10-13-15-24-34.608933
238	3	1	5	239	stable	8	200	39	vs	red	blue	red	blue	left	right	0.30000000000000004	0.7	2	10	0.6000000000000001	7.0	0	1	0.30000000000000004	0.7	2	10	0.6000000000000001	7.0	valid	0.39991500299947796	53248	0	1	2	53248	1	53248	1	53248	1	0.7	53248	blue	red	1	10	ml	2.7.3	lorasick	sub-03_ses-01_task-ml_proj-lorasick_2020-10-13-15-24-34.608933
239	3	1	5	240	stable	8	200	40	vs	blue	red	red	blue	right	left	0.30000000000000004	0.7	6	2	1.8000000000000005	1.4	0	1	0.7	0.30000000000000004	2	6	1.4	1.8000000000000005	valid	0.4498892439987685	51200	0	0	2	53248	0	51200	1	53248	0	0.7	51200	blue	red	0	2	ml	2.7.3	lorasick	sub-03_ses-01_task-ml_proj-lorasick_2020-10-13-15-24-34.608933
240	3	1	5	241	stable	8	200	41	vs	blue	red	red	blue	right	left	0.30000000000000004	0.7	2	6	0.6000000000000001	4.199999999999998	0	1	0.7	0.30000000000000004	6	2	4.199999999999998	0.6000000000000001	valid	0.4332264430013311	51200	0	0	2	51200	1	51200	1	51200	1	0.7	51200	blue	red	1	6	ml	2.7.3	lorasick	sub-03_ses-01_task-ml_proj-lorasick_2020-10-13-15-24-34.608933
241	3	1	5	242	stable	8	200	42	vs	blue	red	red	blue	right	left	0.30000000000000004	0.7	6	4	1.8000000000000005	2.8	0	1	0.7	0.30000000000000004	4	6	2.8	1.8000000000000005	valid	0.4165679690013349	51200	0	0	2	51200	1	51200	1	53248	0	0.7	51200	blue	red	0	4	ml	2.7.3	lorasick	sub-03_ses-01_task-ml_proj-lorasick_2020-10-13-15-24-34.608933
242	3	1	5	243	stable	8	200	43	vs	red	blue	red	blue	left	right	0.30000000000000004	0.7	6	2	1.8000000000000005	1.4	0	1	0.30000000000000004	0.7	6	2	1.8000000000000005	1.4	valid	0.4832267629972194	53248	0	1	2	51200	0	53248	1	51200	0	0.7	53248	blue	red	0	2	ml	2.7.3	lorasick	sub-03_ses-01_task-ml_proj-lorasick_2020-10-13-15-24-34.608933
243	3	1	5	244	stable	8	200	44	vs	red	blue	red	blue	left	right	0.30000000000000004	0.7	2	2	0.6000000000000001	1.4	0	1	0.30000000000000004	0.7	2	2	0.6000000000000001	1.4	valid	0.4665642639993166	53248	0	1	2	53248	1	53248	1	53248	1	0.7	53248	blue	red	0	2	ml	2.7.3	lorasick	sub-03_ses-01_task-ml_proj-lorasick_2020-10-13-15-24-34.608933
244	3	1	5	245	stable	8	200	45	vs	blue	red	red	blue	right	left	0.30000000000000004	0.7	10	2	3.0000000000000004	1.4	1	0	0.7	0.30000000000000004	2	10	1.4	3.0000000000000004	invalid	0.5165387899978668	51200	0	0	2	53248	0	51200	1	53248	0	0.7	51200	blue	red	0	0	ml	2.7.3	lorasick	sub-03_ses-01_task-ml_proj-lorasick_2020-10-13-15-24-34.608933
245	3	1	5	246	stable	8	200	46	vs	red	blue	red	blue	left	right	0.30000000000000004	0.7	2	6	0.6000000000000001	4.199999999999998	1	0	0.30000000000000004	0.7	2	6	0.6000000000000001	4.199999999999998	invalid	0.6331785770016722	53248	0	1	2	53248	1	53248	1	53248	1	0.7	53248	blue	red	1	0	ml	2.7.3	lorasick	sub-03_ses-01_task-ml_proj-lorasick_2020-10-13-15-24-34.608933
246	3	1	5	247	stable	8	200	47	vs	blue	red	red	blue	right	left	0.30000000000000004	0.7	2	10	0.6000000000000001	7.0	0	1	0.7	0.30000000000000004	10	2	7.0	0.6000000000000001	valid	0.4498889399983455	51200	0	0	2	51200	1	51200	1	51200	1	0.7	51200	blue	red	1	10	ml	2.7.3	lorasick	sub-03_ses-01_task-ml_proj-lorasick_2020-10-13-15-24-34.608933
247	3	1	5	248	stable	8	200	48	vs	blue	red	red	blue	right	left	0.30000000000000004	0.7	4	6	1.2000000000000002	4.199999999999998	1	0	0.7	0.30000000000000004	6	4	4.199999999999998	1.2000000000000002	invalid	0.8830926219998219	51200	0	0	2	51200	1	51200	1	51200	1	0.7	51200	blue	red	1	0	ml	2.7.3	lorasick	sub-03_ses-01_task-ml_proj-lorasick_2020-10-13-15-24-34.608933
248	3	1	5	249	stable	8	200	49	vs	red	blue	red	blue	left	right	0.30000000000000004	0.7	4	2	1.2000000000000002	1.4	1	0	0.30000000000000004	0.7	4	2	1.2000000000000002	1.4	invalid	0.3832512560002215	53248	0	1	2	53248	1	53248	1	51200	0	0.7	53248	blue	red	0	0	ml	2.7.3	lorasick	sub-03_ses-01_task-ml_proj-lorasick_2020-10-13-15-24-34.608933
249	3	1	5	250	stable	8	200	50	vs	red	blue	red	blue	left	right	0.30000000000000004	0.7	2	6	0.6000000000000001	4.199999999999998	0	1	0.30000000000000004	0.7	2	6	0.6000000000000001	4.199999999999998	valid	0.5665202700001828	51200	0	0	1	53248	0	53248	0	53248	0	0.7	53248	blue	red	1	0	ml	2.7.3	lorasick	sub-03_ses-01_task-ml_proj-lorasick_2020-10-13-15-24-34.608933
250	3	1	6	251	stable	8	200	51	vs	red	blue	red	blue	left	right	0.30000000000000004	0.7	10	2	3.0000000000000004	1.4	0	1	0.30000000000000004	0.7	10	2	3.0000000000000004	1.4	valid	0.63317267399907	51200	0	0	1	51200	1	53248	0	51200	1	0.7	53248	blue	red	0	0	ml	2.7.3	lorasick	sub-03_ses-01_task-ml_proj-lorasick_2020-10-13-15-24-34.608933
251	3	1	6	252	stable	8	200	52	vs	blue	red	red	blue	right	left	0.30000000000000004	0.7	6	6	1.8000000000000005	4.199999999999998	0	1	0.7	0.30000000000000004	6	6	4.199999999999998	1.8000000000000005	valid	0.4332362889981596	53248	0	1	1	51200	0	51200	0	53248	1	0.7	51200	blue	red	1	0	ml	2.7.3	lorasick	sub-03_ses-01_task-ml_proj-lorasick_2020-10-13-15-24-34.608933
252	3	1	6	253	stable	8	200	53	vs	red	blue	red	blue	left	right	0.30000000000000004	0.7	6	4	1.8000000000000005	2.8	1	0	0.30000000000000004	0.7	6	4	1.8000000000000005	2.8	invalid	0.34992131399849313	51200	0	0	1	53248	0	53248	0	51200	1	0.7	53248	blue	red	0	6	ml	2.7.3	lorasick	sub-03_ses-01_task-ml_proj-lorasick_2020-10-13-15-24-34.608933
253	3	1	6	254	stable	8	200	54	vs	blue	red	red	blue	right	left	0.30000000000000004	0.7	4	6	1.2000000000000002	4.199999999999998	0	1	0.7	0.30000000000000004	6	4	4.199999999999998	1.2000000000000002	valid	0.8997613829997135	51200	0	0	2	51200	1	51200	1	51200	1	0.7	51200	blue	red	1	6	ml	2.7.3	lorasick	sub-03_ses-01_task-ml_proj-lorasick_2020-10-13-15-24-34.608933
254	3	1	6	255	stable	8	200	55	vs	red	blue	red	blue	left	right	0.30000000000000004	0.7	2	2	0.6000000000000001	1.4	1	0	0.30000000000000004	0.7	2	2	0.6000000000000001	1.4	invalid	0.4165770439976768	53248	0	1	2	53248	1	53248	1	53248	1	0.7	53248	blue	red	0	0	ml	2.7.3	lorasick	sub-03_ses-01_task-ml_proj-lorasick_2020-10-13-15-24-34.608933
255	3	1	6	256	stable	8	200	56	vs	blue	red	red	blue	right	left	0.30000000000000004	0.7	6	6	1.8000000000000005	4.199999999999998	0	1	0.7	0.30000000000000004	6	6	4.199999999999998	1.8000000000000005	valid	0.33326059200044256	51200	0	0	2	51200	1	51200	1	53248	0	0.7	51200	blue	red	1	6	ml	2.7.3	lorasick	sub-03_ses-01_task-ml_proj-lorasick_2020-10-13-15-24-34.608933
256	3	1	6	257	stable	8	200	57	vs	red	blue	red	blue	left	right	0.30000000000000004	0.7	2	4	0.6000000000000001	2.8	0	1	0.30000000000000004	0.7	2	4	0.6000000000000001	2.8	valid	0.3999182129991823	53248	0	1	2	53248	1	53248	1	53248	1	0.7	53248	blue	red	1	4	ml	2.7.3	lorasick	sub-03_ses-01_task-ml_proj-lorasick_2020-10-13-15-24-34.608933
257	3	1	6	258	stable	8	200	58	vs	red	blue	red	blue	left	right	0.30000000000000004	0.7	6	6	1.8000000000000005	4.199999999999998	1	0	0.30000000000000004	0.7	6	6	1.8000000000000005	4.199999999999998	invalid	0.3832576089989743	53248	0	1	2	53248	1	53248	1	53248	1	0.7	53248	blue	red	0	0	ml	2.7.3	lorasick	sub-03_ses-01_task-ml_proj-lorasick_2020-10-13-15-24-34.608933
258	3	1	6	259	stable	8	200	59	vs	blue	red	red	blue	right	left	0.30000000000000004	0.7	6	4	1.8000000000000005	2.8	1	0	0.7	0.30000000000000004	4	6	2.8	1.8000000000000005	invalid	0.34992267500274465	51200	0	0	2	51200	1	51200	1	53248	0	0.7	51200	blue	red	0	0	ml	2.7.3	lorasick	sub-03_ses-01_task-ml_proj-lorasick_2020-10-13-15-24-34.608933
259	3	1	6	260	stable	8	200	60	vs	red	blue	red	blue	left	right	0.30000000000000004	0.7	2	2	0.6000000000000001	1.4	0	1	0.30000000000000004	0.7	2	2	0.6000000000000001	1.4	valid	0.43324259699875256	53248	0	1	2	53248	1	53248	1	53248	1	0.7	53248	blue	red	0	2	ml	2.7.3	lorasick	sub-03_ses-01_task-ml_proj-lorasick_2020-10-13-15-24-34.608933
260	3	1	6	261	stable	8	200	61	vs	blue	red	red	blue	right	left	0.30000000000000004	0.7	10	2	3.0000000000000004	1.4	1	0	0.7	0.30000000000000004	2	10	1.4	3.0000000000000004	invalid	0.3499194500000158	51200	0	0	2	53248	0	51200	1	53248	0	0.7	51200	blue	red	0	0	ml	2.7.3	lorasick	sub-03_ses-01_task-ml_proj-lorasick_2020-10-13-15-24-34.608933
261	3	1	6	262	stable	8	200	62	vs	red	blue	red	blue	left	right	0.30000000000000004	0.7	4	2	1.2000000000000002	1.4	1	0	0.30000000000000004	0.7	4	2	1.2000000000000002	1.4	invalid	0.5165373550007644	51200	0	0	1	53248	0	53248	0	51200	1	0.7	53248	blue	red	0	4	ml	2.7.3	lorasick	sub-03_ses-01_task-ml_proj-lorasick_2020-10-13-15-24-34.608933
262	3	1	6	263	stable	8	200	63	vs	red	blue	red	blue	left	right	0.30000000000000004	0.7	2	2	0.6000000000000001	1.4	0	1	0.30000000000000004	0.7	2	2	0.6000000000000001	1.4	valid	0.4498912229973939	51200	0	0	1	53248	0	53248	0	53248	0	0.7	53248	blue	red	0	0	ml	2.7.3	lorasick	sub-03_ses-01_task-ml_proj-lorasick_2020-10-13-15-24-34.608933
263	3	1	6	264	stable	8	200	64	vs	blue	red	red	blue	right	left	0.30000000000000004	0.7	10	2	3.0000000000000004	1.4	0	1	0.7	0.30000000000000004	2	10	1.4	3.0000000000000004	valid	0.4998908130000928	53248	0	1	1	53248	1	51200	0	53248	1	0.7	51200	blue	red	0	0	ml	2.7.3	lorasick	sub-03_ses-01_task-ml_proj-lorasick_2020-10-13-15-24-34.608933
264	3	1	6	265	stable	8	200	65	vs	red	blue	red	blue	left	right	0.30000000000000004	0.7	2	4	0.6000000000000001	2.8	1	0	0.30000000000000004	0.7	2	4	0.6000000000000001	2.8	invalid	0.53320998900017	53248	0	1	2	53248	1	53248	1	53248	1	0.7	53248	blue	red	1	0	ml	2.7.3	lorasick	sub-03_ses-01_task-ml_proj-lorasick_2020-10-13-15-24-34.608933
265	3	1	6	266	stable	8	200	66	vs	blue	red	red	blue	right	left	0.30000000000000004	0.7	2	4	0.6000000000000001	2.8	0	1	0.7	0.30000000000000004	4	2	2.8	0.6000000000000001	valid	0.3832434979995014	51200	0	0	2	51200	1	51200	1	51200	1	0.7	51200	blue	red	1	4	ml	2.7.3	lorasick	sub-03_ses-01_task-ml_proj-lorasick_2020-10-13-15-24-34.608933
266	3	1	6	267	stable	8	200	67	vs	red	blue	red	blue	left	right	0.30000000000000004	0.7	4	2	1.2000000000000002	1.4	0	1	0.30000000000000004	0.7	4	2	1.2000000000000002	1.4	valid	0.4665655309981958	53248	0	1	2	53248	1	53248	1	51200	0	0.7	53248	blue	red	0	2	ml	2.7.3	lorasick	sub-03_ses-01_task-ml_proj-lorasick_2020-10-13-15-24-34.608933
267	3	1	6	268	stable	8	200	68	vs	red	blue	red	blue	left	right	0.30000000000000004	0.7	4	6	1.2000000000000002	4.199999999999998	0	1	0.30000000000000004	0.7	4	6	1.2000000000000002	4.199999999999998	valid	0.4499021070005256	53248	0	1	2	53248	1	53248	1	53248	1	0.7	53248	blue	red	1	6	ml	2.7.3	lorasick	sub-03_ses-01_task-ml_proj-lorasick_2020-10-13-15-24-34.608933
268	3	1	6	269	stable	8	200	69	vs	blue	red	red	blue	right	left	0.30000000000000004	0.7	6	6	1.8000000000000005	4.199999999999998	1	0	0.7	0.30000000000000004	6	6	4.199999999999998	1.8000000000000005	invalid	0.38324267999996653	51200	0	0	2	51200	1	51200	1	53248	0	0.7	51200	blue	red	1	0	ml	2.7.3	lorasick	sub-03_ses-01_task-ml_proj-lorasick_2020-10-13-15-24-34.608933
269	3	1	6	270	stable	8	200	70	vs	blue	red	red	blue	right	left	0.30000000000000004	0.7	6	6	1.8000000000000005	4.199999999999998	1	0	0.7	0.30000000000000004	6	6	4.199999999999998	1.8000000000000005	invalid	0.3665825850002875	51200	0	0	2	51200	1	51200	1	53248	0	0.7	51200	blue	red	1	0	ml	2.7.3	lorasick	sub-03_ses-01_task-ml_proj-lorasick_2020-10-13-15-24-34.608933
270	3	1	6	271	stable	8	200	71	vs	blue	red	red	blue	right	left	0.30000000000000004	0.7	10	2	3.0000000000000004	1.4	1	0	0.7	0.30000000000000004	2	10	1.4	3.0000000000000004	invalid	0.4165896790000261	53248	0	1	1	53248	1	51200	0	53248	1	0.7	51200	blue	red	0	10	ml	2.7.3	lorasick	sub-03_ses-01_task-ml_proj-lorasick_2020-10-13-15-24-34.608933
271	3	1	6	272	stable	8	200	72	vs	blue	red	red	blue	right	left	0.30000000000000004	0.7	2	6	0.6000000000000001	4.199999999999998	0	1	0.7	0.30000000000000004	6	2	4.199999999999998	0.6000000000000001	valid	0.4499314599997888	53248	0	1	1	51200	0	51200	0	51200	0	0.7	51200	blue	red	1	0	ml	2.7.3	lorasick	sub-03_ses-01_task-ml_proj-lorasick_2020-10-13-15-24-34.608933
272	3	1	6	273	stable	8	200	73	vs	blue	red	red	blue	right	left	0.30000000000000004	0.7	2	4	0.6000000000000001	2.8	0	1	0.7	0.30000000000000004	4	2	2.8	0.6000000000000001	valid	0.43324167099854094	53248	0	1	1	51200	0	51200	0	51200	0	0.7	51200	blue	red	1	0	ml	2.7.3	lorasick	sub-03_ses-01_task-ml_proj-lorasick_2020-10-13-15-24-34.608933
273	3	1	6	274	stable	8	200	74	vs	red	blue	red	blue	left	right	0.30000000000000004	0.7	2	4	0.6000000000000001	2.8	0	1	0.30000000000000004	0.7	2	4	0.6000000000000001	2.8	valid	0.5665321630003746	53248	0	1	2	53248	1	53248	1	53248	1	0.7	53248	blue	red	1	4	ml	2.7.3	lorasick	sub-03_ses-01_task-ml_proj-lorasick_2020-10-13-15-24-34.608933
274	3	1	6	275	stable	8	200	75	vs	blue	red	red	blue	right	left	0.30000000000000004	0.7	2	2	0.6000000000000001	1.4	1	0	0.7	0.30000000000000004	2	2	1.4	0.6000000000000001	invalid	0.4498983630001021	51200	0	0	2	51200	1	51200	1	53248	0	0.7	51200	blue	red	1	0	ml	2.7.3	lorasick	sub-03_ses-01_task-ml_proj-lorasick_2020-10-13-15-24-34.608933
275	3	1	6	276	stable	8	200	76	vs	blue	red	red	blue	right	left	0.30000000000000004	0.7	4	6	1.2000000000000002	4.199999999999998	0	1	0.7	0.30000000000000004	6	4	4.199999999999998	1.2000000000000002	valid	0.39990737000334775	51200	0	0	2	51200	1	51200	1	51200	1	0.7	51200	blue	red	1	6	ml	2.7.3	lorasick	sub-03_ses-01_task-ml_proj-lorasick_2020-10-13-15-24-34.608933
276	3	1	6	277	stable	8	200	77	vs	blue	red	red	blue	right	left	0.30000000000000004	0.7	4	6	1.2000000000000002	4.199999999999998	0	1	0.7	0.30000000000000004	6	4	4.199999999999998	1.2000000000000002	valid	0.3665777040005196	51200	0	0	2	51200	1	51200	1	51200	1	0.7	51200	blue	red	1	6	ml	2.7.3	lorasick	sub-03_ses-01_task-ml_proj-lorasick_2020-10-13-15-24-34.608933
277	3	1	6	278	stable	8	200	78	vs	red	blue	red	blue	left	right	0.30000000000000004	0.7	6	6	1.8000000000000005	4.199999999999998	1	0	0.30000000000000004	0.7	6	6	1.8000000000000005	4.199999999999998	invalid	0.7664710079989163	53248	0	1	2	53248	1	53248	1	53248	1	0.7	53248	blue	red	0	0	ml	2.7.3	lorasick	sub-03_ses-01_task-ml_proj-lorasick_2020-10-13-15-24-34.608933
278	3	1	6	279	stable	8	200	79	vs	blue	red	red	blue	right	left	0.30000000000000004	0.7	6	2	1.8000000000000005	1.4	1	0	0.7	0.30000000000000004	2	6	1.4	1.8000000000000005	invalid	0.44988834200194106	51200	0	0	2	53248	0	51200	1	53248	0	0.7	51200	blue	red	0	0	ml	2.7.3	lorasick	sub-03_ses-01_task-ml_proj-lorasick_2020-10-13-15-24-34.608933
279	3	1	6	280	stable	8	200	80	vs	red	blue	red	blue	left	right	0.30000000000000004	0.7	6	2	1.8000000000000005	1.4	0	1	0.30000000000000004	0.7	6	2	1.8000000000000005	1.4	valid	0.4165772890009976	53248	0	1	2	51200	0	53248	1	51200	0	0.7	53248	blue	red	0	2	ml	2.7.3	lorasick	sub-03_ses-01_task-ml_proj-lorasick_2020-10-13-15-24-34.608933
280	3	1	6	281	stable	8	200	81	vs	blue	red	red	blue	right	left	0.30000000000000004	0.7	2	10	0.6000000000000001	7.0	0	1	0.7	0.30000000000000004	10	2	7.0	0.6000000000000001	valid	0.38324025299880304	51200	0	0	2	51200	1	51200	1	51200	1	0.7	51200	blue	red	1	10	ml	2.7.3	lorasick	sub-03_ses-01_task-ml_proj-lorasick_2020-10-13-15-24-34.608933
281	3	1	6	282	stable	8	200	82	vs	blue	red	red	blue	right	left	0.30000000000000004	0.7	2	10	0.6000000000000001	7.0	0	1	0.7	0.30000000000000004	10	2	7.0	0.6000000000000001	valid	0.43322777900175424	51200	0	0	2	51200	1	51200	1	51200	1	0.7	51200	blue	red	1	10	ml	2.7.3	lorasick	sub-03_ses-01_task-ml_proj-lorasick_2020-10-13-15-24-34.608933
282	3	1	6	283	stable	8	200	83	vs	red	blue	red	blue	left	right	0.30000000000000004	0.7	2	4	0.6000000000000001	2.8	0	1	0.30000000000000004	0.7	2	4	0.6000000000000001	2.8	valid	0.3999166579997109	53248	0	1	2	53248	1	53248	1	53248	1	0.7	53248	blue	red	1	4	ml	2.7.3	lorasick	sub-03_ses-01_task-ml_proj-lorasick_2020-10-13-15-24-34.608933
283	3	1	6	284	stable	8	200	84	vs	red	blue	red	blue	left	right	0.30000000000000004	0.7	4	6	1.2000000000000002	4.199999999999998	0	1	0.30000000000000004	0.7	4	6	1.2000000000000002	4.199999999999998	valid	0.4165803500000038	53248	0	1	2	53248	1	53248	1	53248	1	0.7	53248	blue	red	1	6	ml	2.7.3	lorasick	sub-03_ses-01_task-ml_proj-lorasick_2020-10-13-15-24-34.608933
284	3	1	6	285	stable	8	200	85	vs	red	blue	red	blue	left	right	0.30000000000000004	0.7	10	2	3.0000000000000004	1.4	0	1	0.30000000000000004	0.7	10	2	3.0000000000000004	1.4	valid	0.4832206789978954	51200	0	0	1	51200	1	53248	0	51200	1	0.7	53248	blue	red	0	0	ml	2.7.3	lorasick	sub-03_ses-01_task-ml_proj-lorasick_2020-10-13-15-24-34.608933
285	3	1	6	286	stable	8	200	86	vs	red	blue	red	blue	left	right	0.30000000000000004	0.7	2	10	0.6000000000000001	7.0	1	0	0.30000000000000004	0.7	2	10	0.6000000000000001	7.0	invalid	0.3665924240012828	53248	0	1	2	53248	1	53248	1	53248	1	0.7	53248	blue	red	1	0	ml	2.7.3	lorasick	sub-03_ses-01_task-ml_proj-lorasick_2020-10-13-15-24-34.608933
286	3	1	6	287	stable	8	200	87	vs	red	blue	red	blue	left	right	0.30000000000000004	0.7	2	6	0.6000000000000001	4.199999999999998	1	0	0.30000000000000004	0.7	2	6	0.6000000000000001	4.199999999999998	invalid	0.5831977000016195	53248	0	1	2	53248	1	53248	1	53248	1	0.7	53248	blue	red	1	0	ml	2.7.3	lorasick	sub-03_ses-01_task-ml_proj-lorasick_2020-10-13-15-24-34.608933
287	3	1	6	288	stable	8	200	88	vs	blue	red	red	blue	right	left	0.30000000000000004	0.7	6	6	1.8000000000000005	4.199999999999998	0	1	0.7	0.30000000000000004	6	6	4.199999999999998	1.8000000000000005	valid	0.4332292110011622	51200	0	0	2	51200	1	51200	1	53248	0	0.7	51200	blue	red	1	6	ml	2.7.3	lorasick	sub-03_ses-01_task-ml_proj-lorasick_2020-10-13-15-24-34.608933
288	3	1	6	289	stable	8	200	89	vs	blue	red	red	blue	right	left	0.30000000000000004	0.7	4	2	1.2000000000000002	1.4	1	0	0.7	0.30000000000000004	2	4	1.4	1.2000000000000002	invalid	0.5165503329990315	53248	0	1	1	51200	0	51200	0	53248	1	0.7	51200	blue	red	0	4	ml	2.7.3	lorasick	sub-03_ses-01_task-ml_proj-lorasick_2020-10-13-15-24-34.608933
289	3	1	6	290	stable	8	200	90	vs	blue	red	red	blue	right	left	0.30000000000000004	0.7	4	2	1.2000000000000002	1.4	0	1	0.7	0.30000000000000004	2	4	1.4	1.2000000000000002	valid	0.3999129260009795	53248	0	1	1	51200	0	51200	0	53248	1	0.7	51200	blue	red	0	0	ml	2.7.3	lorasick	sub-03_ses-01_task-ml_proj-lorasick_2020-10-13-15-24-34.608933
