Unnamed: 0	sub_id	ses_id	block_no	trial_no	phase_type	phase_no	phase_length	trialInPhase_no	phase_type_order	color_left	color_right	color1	color2	position1	position2	prob1	prob2	mag1	mag2	ev1	ev2	outcome1	outcome2	prob_left	prob_right	mag_left	mag_right	ev_left	ev_right	reward_validity	resp_time	resp_key	timeout	choice_side	choice	ev_corr_resp	ev_correct	prob_corr_resp	prob_correct	mag_corr_resp	mag_correct	high_prob	high_prob_side	high_prob_color	low_prob_color	no_brain	reward	name	version	proj_id	logFileID
0	1	1	1	1	volatile	1	20	1	vs	turquoise	purple	turquoise	purple	left	right	0.7	0.30000000000000004	6	6	4.199999999999998	1.8000000000000005	0	1	0.7	0.30000000000000004	6	6	4.199999999999998	1.8000000000000005	invalid	0.6831707000019378	53248	0	1	2	51200	0	51200	0	53248	1	0.7	51200	turquoise	purple	1	6	ml	2.7.3	lorasick	sub-01_ses-01_task-ml_proj-lorasick_2020-10-16-15-04-50.717385
1	1	1	1	2	volatile	1	20	2	vs	turquoise	purple	turquoise	purple	left	right	0.7	0.30000000000000004	2	10	1.4	3.0000000000000004	0	1	0.7	0.30000000000000004	2	10	1.4	3.0000000000000004	invalid	0.44990177399813547	53248	0	1	2	53248	1	51200	0	53248	1	0.7	51200	turquoise	purple	0	10	ml	2.7.3	lorasick	sub-01_ses-01_task-ml_proj-lorasick_2020-10-16-15-04-50.717385
2	1	1	1	3	volatile	1	20	3	vs	turquoise	purple	turquoise	purple	left	right	0.7	0.30000000000000004	6	6	4.199999999999998	1.8000000000000005	1	0	0.7	0.30000000000000004	6	6	4.199999999999998	1.8000000000000005	valid	0.4998873119984637	53248	0	1	2	51200	0	51200	0	53248	1	0.7	51200	turquoise	purple	1	0	ml	2.7.3	lorasick	sub-01_ses-01_task-ml_proj-lorasick_2020-10-16-15-04-50.717385
3	1	1	1	4	volatile	1	20	4	vs	turquoise	purple	turquoise	purple	left	right	0.7	0.30000000000000004	10	2	7.0	0.6000000000000001	1	0	0.7	0.30000000000000004	10	2	7.0	0.6000000000000001	valid	0.5498715809990244	53248	0	1	2	51200	0	51200	0	51200	0	0.7	51200	turquoise	purple	1	0	ml	2.7.3	lorasick	sub-01_ses-01_task-ml_proj-lorasick_2020-10-16-15-04-50.717385
4	1	1	1	5	volatile	1	20	5	vs	turquoise	purple	turquoise	purple	left	right	0.7	0.30000000000000004	2	2	1.4	0.6000000000000001	0	1	0.7	0.30000000000000004	2	2	1.4	0.6000000000000001	invalid	0.5665334569966944	53248	0	1	2	51200	0	51200	0	53248	1	0.7	51200	turquoise	purple	1	2	ml	2.7.3	lorasick	sub-01_ses-01_task-ml_proj-lorasick_2020-10-16-15-04-50.717385
5	1	1	1	6	volatile	1	20	6	vs	purple	turquoise	turquoise	purple	right	left	0.7	0.30000000000000004	4	2	2.8	0.6000000000000001	1	0	0.30000000000000004	0.7	2	4	0.6000000000000001	2.8	valid	0.5498608160014555	51200	0	0	2	53248	0	53248	0	53248	0	0.7	53248	turquoise	purple	1	0	ml	2.7.3	lorasick	sub-01_ses-01_task-ml_proj-lorasick_2020-10-16-15-04-50.717385
6	1	1	1	7	volatile	1	20	7	vs	purple	turquoise	turquoise	purple	right	left	0.7	0.30000000000000004	4	2	2.8	0.6000000000000001	1	0	0.30000000000000004	0.7	2	4	0.6000000000000001	2.8	valid	0.4832239259994822	51200	0	0	2	53248	0	53248	0	53248	0	0.7	53248	turquoise	purple	1	0	ml	2.7.3	lorasick	sub-01_ses-01_task-ml_proj-lorasick_2020-10-16-15-04-50.717385
7	1	1	1	8	volatile	1	20	8	vs	purple	turquoise	turquoise	purple	right	left	0.7	0.30000000000000004	6	2	4.199999999999998	0.6000000000000001	0	1	0.30000000000000004	0.7	2	6	0.6000000000000001	4.199999999999998	invalid	0.4832217910006875	53248	0	1	1	53248	1	53248	1	53248	1	0.7	53248	turquoise	purple	1	0	ml	2.7.3	lorasick	sub-01_ses-01_task-ml_proj-lorasick_2020-10-16-15-04-50.717385
8	1	1	1	9	volatile	1	20	9	vs	turquoise	purple	turquoise	purple	left	right	0.7	0.30000000000000004	10	2	7.0	0.6000000000000001	1	0	0.7	0.30000000000000004	10	2	7.0	0.6000000000000001	valid	0.6331670830004441	51200	0	0	1	51200	1	51200	1	51200	1	0.7	51200	turquoise	purple	1	10	ml	2.7.3	lorasick	sub-01_ses-01_task-ml_proj-lorasick_2020-10-16-15-04-50.717385
9	1	1	1	10	volatile	1	20	10	vs	purple	turquoise	turquoise	purple	right	left	0.7	0.30000000000000004	2	6	1.4	1.8000000000000005	1	0	0.30000000000000004	0.7	6	2	1.8000000000000005	1.4	valid	0.5665336289966945	53248	0	1	1	51200	0	53248	1	51200	0	0.7	53248	turquoise	purple	0	2	ml	2.7.3	lorasick	sub-01_ses-01_task-ml_proj-lorasick_2020-10-16-15-04-50.717385
10	1	1	1	11	volatile	1	20	11	vs	purple	turquoise	turquoise	purple	right	left	0.7	0.30000000000000004	4	6	2.8	1.8000000000000005	0	1	0.30000000000000004	0.7	6	4	1.8000000000000005	2.8	invalid	0.5165493759996025	53248	0	1	1	53248	1	53248	1	51200	0	0.7	53248	turquoise	purple	0	0	ml	2.7.3	lorasick	sub-01_ses-01_task-ml_proj-lorasick_2020-10-16-15-04-50.717385
11	1	1	1	12	volatile	1	20	12	vs	purple	turquoise	turquoise	purple	right	left	0.7	0.30000000000000004	2	6	1.4	1.8000000000000005	0	1	0.30000000000000004	0.7	6	2	1.8000000000000005	1.4	invalid	0.8997551310021663	51200	0	0	2	51200	1	53248	0	51200	1	0.7	53248	turquoise	purple	0	6	ml	2.7.3	lorasick	sub-01_ses-01_task-ml_proj-lorasick_2020-10-16-15-04-50.717385
12	1	1	1	13	volatile	1	20	13	vs	turquoise	purple	turquoise	purple	left	right	0.7	0.30000000000000004	2	6	1.4	1.8000000000000005	1	0	0.7	0.30000000000000004	2	6	1.4	1.8000000000000005	valid	0.48322390799876297	53248	0	1	2	53248	1	51200	0	53248	1	0.7	51200	turquoise	purple	0	0	ml	2.7.3	lorasick	sub-01_ses-01_task-ml_proj-lorasick_2020-10-16-15-04-50.717385
13	1	1	1	14	volatile	1	20	14	vs	purple	turquoise	turquoise	purple	right	left	0.7	0.30000000000000004	2	4	1.4	1.2000000000000002	1	0	0.30000000000000004	0.7	4	2	1.2000000000000002	1.4	valid	0.71648662699954	53248	0	1	1	53248	1	53248	1	51200	0	0.7	53248	turquoise	purple	0	2	ml	2.7.3	lorasick	sub-01_ses-01_task-ml_proj-lorasick_2020-10-16-15-04-50.717385
14	1	1	1	15	volatile	1	20	15	vs	turquoise	purple	turquoise	purple	left	right	0.7	0.30000000000000004	4	6	2.8	1.8000000000000005	1	0	0.7	0.30000000000000004	4	6	2.8	1.8000000000000005	valid	0.5498686979990453	51200	0	0	1	51200	1	51200	1	53248	0	0.7	51200	turquoise	purple	0	4	ml	2.7.3	lorasick	sub-01_ses-01_task-ml_proj-lorasick_2020-10-16-15-04-50.717385
15	1	1	1	16	volatile	1	20	16	vs	turquoise	purple	turquoise	purple	left	right	0.7	0.30000000000000004	4	2	2.8	0.6000000000000001	1	0	0.7	0.30000000000000004	4	2	2.8	0.6000000000000001	valid	0.6498327070003143	51200	0	0	1	51200	1	51200	1	51200	1	0.7	51200	turquoise	purple	1	4	ml	2.7.3	lorasick	sub-01_ses-01_task-ml_proj-lorasick_2020-10-16-15-04-50.717385
16	1	1	1	17	volatile	1	20	17	vs	purple	turquoise	turquoise	purple	right	left	0.7	0.30000000000000004	4	6	2.8	1.8000000000000005	1	0	0.30000000000000004	0.7	6	4	1.8000000000000005	2.8	valid	0.5165458100018441	53248	0	1	1	53248	1	53248	1	51200	0	0.7	53248	turquoise	purple	0	4	ml	2.7.3	lorasick	sub-01_ses-01_task-ml_proj-lorasick_2020-10-16-15-04-50.717385
17	1	1	1	18	volatile	1	20	18	vs	purple	turquoise	turquoise	purple	right	left	0.7	0.30000000000000004	6	4	4.199999999999998	1.2000000000000002	1	0	0.30000000000000004	0.7	4	6	1.2000000000000002	4.199999999999998	valid	0.4498998609997216	53248	0	1	1	53248	1	53248	1	53248	1	0.7	53248	turquoise	purple	1	6	ml	2.7.3	lorasick	sub-01_ses-01_task-ml_proj-lorasick_2020-10-16-15-04-50.717385
18	1	1	1	19	volatile	1	20	19	vs	purple	turquoise	turquoise	purple	right	left	0.7	0.30000000000000004	10	2	7.0	0.6000000000000001	1	0	0.30000000000000004	0.7	2	10	0.6000000000000001	7.0	valid	0.4332388849979907	53248	0	1	1	53248	1	53248	1	53248	1	0.7	53248	turquoise	purple	1	10	ml	2.7.3	lorasick	sub-01_ses-01_task-ml_proj-lorasick_2020-10-16-15-04-50.717385
19	1	1	1	20	volatile	1	20	20	vs	turquoise	purple	turquoise	purple	left	right	0.7	0.30000000000000004	2	2	1.4	0.6000000000000001	1	0	0.7	0.30000000000000004	2	2	1.4	0.6000000000000001	valid	0.4498916199991072	51200	0	0	1	51200	1	51200	1	53248	0	0.7	51200	turquoise	purple	1	2	ml	2.7.3	lorasick	sub-01_ses-01_task-ml_proj-lorasick_2020-10-16-15-04-50.717385
20	1	1	1	21	volatile	2	40	1	vs	purple	turquoise	turquoise	purple	right	left	0.30000000000000004	0.7	6	6	1.8000000000000005	4.199999999999998	0	1	0.7	0.30000000000000004	6	6	4.199999999999998	1.8000000000000005	valid	0.3999168800000916	53248	0	1	1	51200	0	51200	0	53248	1	0.7	51200	purple	turquoise	1	0	ml	2.7.3	lorasick	sub-01_ses-01_task-ml_proj-lorasick_2020-10-16-15-04-50.717385
21	1	1	1	22	volatile	2	40	2	vs	turquoise	purple	turquoise	purple	left	right	0.30000000000000004	0.7	2	6	0.6000000000000001	4.199999999999998	1	0	0.30000000000000004	0.7	2	6	0.6000000000000001	4.199999999999998	invalid	0.4332315829997242	53248	0	1	2	53248	1	53248	1	53248	1	0.7	53248	purple	turquoise	1	0	ml	2.7.3	lorasick	sub-01_ses-01_task-ml_proj-lorasick_2020-10-16-15-04-50.717385
22	1	1	1	23	volatile	2	40	3	vs	purple	turquoise	turquoise	purple	right	left	0.30000000000000004	0.7	6	4	1.8000000000000005	2.8	1	0	0.7	0.30000000000000004	4	6	2.8	1.8000000000000005	invalid	0.36659200099893496	53248	0	1	1	51200	0	51200	0	53248	1	0.7	51200	purple	turquoise	0	6	ml	2.7.3	lorasick	sub-01_ses-01_task-ml_proj-lorasick_2020-10-16-15-04-50.717385
23	1	1	1	24	volatile	2	40	4	vs	purple	turquoise	turquoise	purple	right	left	0.30000000000000004	0.7	6	6	1.8000000000000005	4.199999999999998	0	1	0.7	0.30000000000000004	6	6	4.199999999999998	1.8000000000000005	valid	0.4499002349984949	53248	0	1	1	51200	0	51200	0	53248	1	0.7	51200	purple	turquoise	1	0	ml	2.7.3	lorasick	sub-01_ses-01_task-ml_proj-lorasick_2020-10-16-15-04-50.717385
24	1	1	1	25	volatile	2	40	5	vs	turquoise	purple	turquoise	purple	left	right	0.30000000000000004	0.7	10	2	3.0000000000000004	1.4	0	1	0.30000000000000004	0.7	10	2	3.0000000000000004	1.4	valid	0.6998181710005156	51200	0	0	1	51200	1	53248	0	51200	1	0.7	53248	purple	turquoise	0	0	ml	2.7.3	lorasick	sub-01_ses-01_task-ml_proj-lorasick_2020-10-16-15-04-50.717385
25	1	1	1	26	volatile	2	40	6	vs	turquoise	purple	turquoise	purple	left	right	0.30000000000000004	0.7	2	6	0.6000000000000001	4.199999999999998	0	1	0.30000000000000004	0.7	2	6	0.6000000000000001	4.199999999999998	valid	0.6165085979991999	51200	0	0	1	53248	0	53248	0	53248	0	0.7	53248	purple	turquoise	1	0	ml	2.7.3	lorasick	sub-01_ses-01_task-ml_proj-lorasick_2020-10-16-15-04-50.717385
26	1	1	1	27	volatile	2	40	7	vs	purple	turquoise	turquoise	purple	right	left	0.30000000000000004	0.7	2	6	0.6000000000000001	4.199999999999998	1	0	0.7	0.30000000000000004	6	2	4.199999999999998	0.6000000000000001	invalid	0.3665820629976224	51200	0	0	2	51200	1	51200	1	51200	1	0.7	51200	purple	turquoise	1	0	ml	2.7.3	lorasick	sub-01_ses-01_task-ml_proj-lorasick_2020-10-16-15-04-50.717385
27	1	1	1	28	volatile	2	40	8	vs	turquoise	purple	turquoise	purple	left	right	0.30000000000000004	0.7	10	2	3.0000000000000004	1.4	0	1	0.30000000000000004	0.7	10	2	3.0000000000000004	1.4	valid	0.549879089998285	53248	0	1	2	51200	0	53248	1	51200	0	0.7	53248	purple	turquoise	0	2	ml	2.7.3	lorasick	sub-01_ses-01_task-ml_proj-lorasick_2020-10-16-15-04-50.717385
28	1	1	1	29	volatile	2	40	9	vs	turquoise	purple	turquoise	purple	left	right	0.30000000000000004	0.7	10	2	3.0000000000000004	1.4	1	0	0.30000000000000004	0.7	10	2	3.0000000000000004	1.4	invalid	0.5498743839998497	53248	0	1	2	51200	0	53248	1	51200	0	0.7	53248	purple	turquoise	0	0	ml	2.7.3	lorasick	sub-01_ses-01_task-ml_proj-lorasick_2020-10-16-15-04-50.717385
29	1	1	1	30	volatile	2	40	10	vs	turquoise	purple	turquoise	purple	left	right	0.30000000000000004	0.7	6	2	1.8000000000000005	1.4	0	1	0.30000000000000004	0.7	6	2	1.8000000000000005	1.4	valid	0.5498526429983029	51200	0	0	1	51200	1	53248	0	51200	1	0.7	53248	purple	turquoise	0	0	ml	2.7.3	lorasick	sub-01_ses-01_task-ml_proj-lorasick_2020-10-16-15-04-50.717385
30	1	1	1	31	volatile	2	40	11	vs	purple	turquoise	turquoise	purple	right	left	0.30000000000000004	0.7	4	2	1.2000000000000002	1.4	1	0	0.7	0.30000000000000004	2	4	1.4	1.2000000000000002	invalid	0.7664918500013299	53248	0	1	1	51200	0	51200	0	53248	1	0.7	51200	purple	turquoise	0	4	ml	2.7.3	lorasick	sub-01_ses-01_task-ml_proj-lorasick_2020-10-16-15-04-50.717385
31	1	1	1	32	volatile	2	40	12	vs	purple	turquoise	turquoise	purple	right	left	0.30000000000000004	0.7	4	6	1.2000000000000002	4.199999999999998	1	0	0.7	0.30000000000000004	6	4	4.199999999999998	1.2000000000000002	invalid	0.6165084189997287	51200	0	0	2	51200	1	51200	1	51200	1	0.7	51200	purple	turquoise	1	0	ml	2.7.3	lorasick	sub-01_ses-01_task-ml_proj-lorasick_2020-10-16-15-04-50.717385
32	1	1	1	33	volatile	2	40	13	vs	purple	turquoise	turquoise	purple	right	left	0.30000000000000004	0.7	2	2	0.6000000000000001	1.4	0	1	0.7	0.30000000000000004	2	2	1.4	0.6000000000000001	valid	0.4832262919990171	53248	0	1	1	51200	0	51200	0	53248	1	0.7	51200	purple	turquoise	1	0	ml	2.7.3	lorasick	sub-01_ses-01_task-ml_proj-lorasick_2020-10-16-15-04-50.717385
33	1	1	1	34	volatile	2	40	14	vs	purple	turquoise	turquoise	purple	right	left	0.30000000000000004	0.7	4	6	1.2000000000000002	4.199999999999998	1	0	0.7	0.30000000000000004	6	4	4.199999999999998	1.2000000000000002	invalid	0.6498407930012036	53248	0	1	1	51200	0	51200	0	51200	0	0.7	51200	purple	turquoise	1	4	ml	2.7.3	lorasick	sub-01_ses-01_task-ml_proj-lorasick_2020-10-16-15-04-50.717385
34	1	1	1	35	volatile	2	40	15	vs	purple	turquoise	turquoise	purple	right	left	0.30000000000000004	0.7	6	6	1.8000000000000005	4.199999999999998	0	1	0.7	0.30000000000000004	6	6	4.199999999999998	1.8000000000000005	valid	0.7164965999982087	53248	0	1	1	51200	0	51200	0	53248	1	0.7	51200	purple	turquoise	1	0	ml	2.7.3	lorasick	sub-01_ses-01_task-ml_proj-lorasick_2020-10-16-15-04-50.717385
35	1	1	1	36	volatile	2	40	16	vs	purple	turquoise	turquoise	purple	right	left	0.30000000000000004	0.7	6	2	1.8000000000000005	1.4	0	1	0.7	0.30000000000000004	2	6	1.4	1.8000000000000005	valid	0.6831648379993567	53248	0	1	1	53248	1	51200	0	53248	1	0.7	51200	purple	turquoise	0	0	ml	2.7.3	lorasick	sub-01_ses-01_task-ml_proj-lorasick_2020-10-16-15-04-50.717385
36	1	1	1	37	volatile	2	40	17	vs	turquoise	purple	turquoise	purple	left	right	0.30000000000000004	0.7	4	6	1.2000000000000002	4.199999999999998	0	1	0.30000000000000004	0.7	4	6	1.2000000000000002	4.199999999999998	valid	1.0163839250017193	51200	0	0	1	53248	0	53248	0	53248	0	0.7	53248	purple	turquoise	1	0	ml	2.7.3	lorasick	sub-01_ses-01_task-ml_proj-lorasick_2020-10-16-15-04-50.717385
37	1	1	1	38	volatile	2	40	18	vs	purple	turquoise	turquoise	purple	right	left	0.30000000000000004	0.7	2	6	0.6000000000000001	4.199999999999998	0	1	0.7	0.30000000000000004	6	2	4.199999999999998	0.6000000000000001	valid	0.3999054890009575	51200	0	0	2	51200	1	51200	1	51200	1	0.7	51200	purple	turquoise	1	6	ml	2.7.3	lorasick	sub-01_ses-01_task-ml_proj-lorasick_2020-10-16-15-04-50.717385
38	1	1	1	39	volatile	2	40	19	vs	turquoise	purple	turquoise	purple	left	right	0.30000000000000004	0.7	2	10	0.6000000000000001	7.0	0	1	0.30000000000000004	0.7	2	10	0.6000000000000001	7.0	valid	0.4998876649988233	53248	0	1	2	53248	1	53248	1	53248	1	0.7	53248	purple	turquoise	1	10	ml	2.7.3	lorasick	sub-01_ses-01_task-ml_proj-lorasick_2020-10-16-15-04-50.717385
39	1	1	1	40	volatile	2	40	20	vs	purple	turquoise	turquoise	purple	right	left	0.30000000000000004	0.7	6	2	1.8000000000000005	1.4	0	1	0.7	0.30000000000000004	2	6	1.4	1.8000000000000005	valid	0.5165296669983945	51200	0	0	2	53248	0	51200	1	53248	0	0.7	51200	purple	turquoise	0	2	ml	2.7.3	lorasick	sub-01_ses-01_task-ml_proj-lorasick_2020-10-16-15-04-50.717385
40	1	1	1	41	volatile	2	40	21	vs	purple	turquoise	turquoise	purple	right	left	0.30000000000000004	0.7	6	4	1.8000000000000005	2.8	0	1	0.7	0.30000000000000004	4	6	2.8	1.8000000000000005	valid	0.4332559879985638	51200	0	0	2	51200	1	51200	1	53248	0	0.7	51200	purple	turquoise	0	4	ml	2.7.3	lorasick	sub-01_ses-01_task-ml_proj-lorasick_2020-10-16-15-04-50.717385
41	1	1	1	42	volatile	2	40	22	vs	turquoise	purple	turquoise	purple	left	right	0.30000000000000004	0.7	4	2	1.2000000000000002	1.4	0	1	0.30000000000000004	0.7	4	2	1.2000000000000002	1.4	valid	0.5998573520009813	53248	0	1	2	53248	1	53248	1	51200	0	0.7	53248	purple	turquoise	0	2	ml	2.7.3	lorasick	sub-01_ses-01_task-ml_proj-lorasick_2020-10-16-15-04-50.717385
42	1	1	1	43	volatile	2	40	23	vs	turquoise	purple	turquoise	purple	left	right	0.30000000000000004	0.7	6	2	1.8000000000000005	1.4	1	0	0.30000000000000004	0.7	6	2	1.8000000000000005	1.4	invalid	0.7165144030004741	53248	0	1	2	51200	0	53248	1	51200	0	0.7	53248	purple	turquoise	0	0	ml	2.7.3	lorasick	sub-01_ses-01_task-ml_proj-lorasick_2020-10-16-15-04-50.717385
43	1	1	1	44	volatile	2	40	24	vs	turquoise	purple	turquoise	purple	left	right	0.30000000000000004	0.7	2	2	0.6000000000000001	1.4	0	1	0.30000000000000004	0.7	2	2	0.6000000000000001	1.4	valid	0.36659093299749657	51200	0	0	1	53248	0	53248	0	53248	0	0.7	53248	purple	turquoise	0	0	ml	2.7.3	lorasick	sub-01_ses-01_task-ml_proj-lorasick_2020-10-16-15-04-50.717385
44	1	1	1	45	volatile	2	40	25	vs	turquoise	purple	turquoise	purple	left	right	0.30000000000000004	0.7	2	4	0.6000000000000001	2.8	0	1	0.30000000000000004	0.7	2	4	0.6000000000000001	2.8	valid	0.4832240870018722	53248	0	1	2	53248	1	53248	1	53248	1	0.7	53248	purple	turquoise	1	4	ml	2.7.3	lorasick	sub-01_ses-01_task-ml_proj-lorasick_2020-10-16-15-04-50.717385
45	1	1	1	46	volatile	2	40	26	vs	turquoise	purple	turquoise	purple	left	right	0.30000000000000004	0.7	2	10	0.6000000000000001	7.0	0	1	0.30000000000000004	0.7	2	10	0.6000000000000001	7.0	valid	0.5332097409991547	53248	0	1	2	53248	1	53248	1	53248	1	0.7	53248	purple	turquoise	1	10	ml	2.7.3	lorasick	sub-01_ses-01_task-ml_proj-lorasick_2020-10-16-15-04-50.717385
46	1	1	1	47	volatile	2	40	27	vs	turquoise	purple	turquoise	purple	left	right	0.30000000000000004	0.7	4	2	1.2000000000000002	1.4	0	1	0.30000000000000004	0.7	4	2	1.2000000000000002	1.4	valid	0.5998571390009602	53248	0	1	2	53248	1	53248	1	51200	0	0.7	53248	purple	turquoise	0	2	ml	2.7.3	lorasick	sub-01_ses-01_task-ml_proj-lorasick_2020-10-16-15-04-50.717385
47	1	1	1	48	volatile	2	40	28	vs	purple	turquoise	turquoise	purple	right	left	0.30000000000000004	0.7	4	6	1.2000000000000002	4.199999999999998	0	1	0.7	0.30000000000000004	6	4	4.199999999999998	1.2000000000000002	valid	1.0996951369997987	51200	0	0	2	51200	1	51200	1	51200	1	0.7	51200	purple	turquoise	1	6	ml	2.7.3	lorasick	sub-01_ses-01_task-ml_proj-lorasick_2020-10-16-15-04-50.717385
48	1	1	1	49	volatile	2	40	29	vs	turquoise	purple	turquoise	purple	left	right	0.30000000000000004	0.7	4	2	1.2000000000000002	1.4	1	0	0.30000000000000004	0.7	4	2	1.2000000000000002	1.4	invalid	0.5665229389996966	53248	0	1	2	53248	1	53248	1	51200	0	0.7	53248	purple	turquoise	0	0	ml	2.7.3	lorasick	sub-01_ses-01_task-ml_proj-lorasick_2020-10-16-15-04-50.717385
49	1	1	1	50	volatile	2	40	30	vs	turquoise	purple	turquoise	purple	left	right	0.30000000000000004	0.7	2	2	0.6000000000000001	1.4	1	0	0.30000000000000004	0.7	2	2	0.6000000000000001	1.4	invalid	0.4332421539984352	53248	0	1	2	53248	1	53248	1	53248	1	0.7	53248	purple	turquoise	0	0	ml	2.7.3	lorasick	sub-01_ses-01_task-ml_proj-lorasick_2020-10-16-15-04-50.717385
50	1	1	2	51	volatile	2	40	31	vs	purple	turquoise	turquoise	purple	right	left	0.30000000000000004	0.7	4	6	1.2000000000000002	4.199999999999998	0	1	0.7	0.30000000000000004	6	4	4.199999999999998	1.2000000000000002	valid	0.7164783369989891	51200	0	0	2	51200	1	51200	1	51200	1	0.7	51200	purple	turquoise	1	6	ml	2.7.3	lorasick	sub-01_ses-01_task-ml_proj-lorasick_2020-10-16-15-04-50.717385
51	1	1	2	52	volatile	2	40	32	vs	purple	turquoise	turquoise	purple	right	left	0.30000000000000004	0.7	2	10	0.6000000000000001	7.0	0	1	0.7	0.30000000000000004	10	2	7.0	0.6000000000000001	valid	0.4498922130005667	51200	0	0	2	51200	1	51200	1	51200	1	0.7	51200	purple	turquoise	1	10	ml	2.7.3	lorasick	sub-01_ses-01_task-ml_proj-lorasick_2020-10-16-15-04-50.717385
52	1	1	2	53	volatile	2	40	33	vs	purple	turquoise	turquoise	purple	right	left	0.30000000000000004	0.7	10	2	3.0000000000000004	1.4	1	0	0.7	0.30000000000000004	2	10	1.4	3.0000000000000004	invalid	1.1830027249998238	51200	0	0	2	53248	0	51200	1	53248	0	0.7	51200	purple	turquoise	0	0	ml	2.7.3	lorasick	sub-01_ses-01_task-ml_proj-lorasick_2020-10-16-15-04-50.717385
53	1	1	2	54	volatile	2	40	34	vs	purple	turquoise	turquoise	purple	right	left	0.30000000000000004	0.7	4	2	1.2000000000000002	1.4	0	1	0.7	0.30000000000000004	2	4	1.4	1.2000000000000002	valid	0.7498139750023256	53248	0	1	1	51200	0	51200	0	53248	1	0.7	51200	purple	turquoise	0	0	ml	2.7.3	lorasick	sub-01_ses-01_task-ml_proj-lorasick_2020-10-16-15-04-50.717385
54	1	1	2	55	volatile	2	40	35	vs	purple	turquoise	turquoise	purple	right	left	0.30000000000000004	0.7	4	2	1.2000000000000002	1.4	0	1	0.7	0.30000000000000004	2	4	1.4	1.2000000000000002	valid	0.5998478709989286	51200	0	0	2	51200	1	51200	1	53248	0	0.7	51200	purple	turquoise	0	2	ml	2.7.3	lorasick	sub-01_ses-01_task-ml_proj-lorasick_2020-10-16-15-04-50.717385
55	1	1	2	56	volatile	2	40	36	vs	turquoise	purple	turquoise	purple	left	right	0.30000000000000004	0.7	2	10	0.6000000000000001	7.0	0	1	0.30000000000000004	0.7	2	10	0.6000000000000001	7.0	valid	0.3999155719975533	53248	0	1	2	53248	1	53248	1	53248	1	0.7	53248	purple	turquoise	1	10	ml	2.7.3	lorasick	sub-01_ses-01_task-ml_proj-lorasick_2020-10-16-15-04-50.717385
56	1	1	2	57	volatile	2	40	37	vs	purple	turquoise	turquoise	purple	right	left	0.30000000000000004	0.7	6	4	1.8000000000000005	2.8	0	1	0.7	0.30000000000000004	4	6	2.8	1.8000000000000005	valid	0.6831553729971347	51200	0	0	2	51200	1	51200	1	53248	0	0.7	51200	purple	turquoise	0	4	ml	2.7.3	lorasick	sub-01_ses-01_task-ml_proj-lorasick_2020-10-16-15-04-50.717385
57	1	1	2	58	volatile	2	40	38	vs	turquoise	purple	turquoise	purple	left	right	0.30000000000000004	0.7	4	2	1.2000000000000002	1.4	0	1	0.30000000000000004	0.7	4	2	1.2000000000000002	1.4	valid	0.6831670790015778	53248	0	1	2	53248	1	53248	1	51200	0	0.7	53248	purple	turquoise	0	2	ml	2.7.3	lorasick	sub-01_ses-01_task-ml_proj-lorasick_2020-10-16-15-04-50.717385
58	1	1	2	59	volatile	2	40	39	vs	turquoise	purple	turquoise	purple	left	right	0.30000000000000004	0.7	6	6	1.8000000000000005	4.199999999999998	1	0	0.30000000000000004	0.7	6	6	1.8000000000000005	4.199999999999998	invalid	0.5998666389969003	53248	0	1	2	53248	1	53248	1	53248	1	0.7	53248	purple	turquoise	0	0	ml	2.7.3	lorasick	sub-01_ses-01_task-ml_proj-lorasick_2020-10-16-15-04-50.717385
59	1	1	2	60	volatile	2	40	40	vs	turquoise	purple	turquoise	purple	left	right	0.30000000000000004	0.7	2	2	0.6000000000000001	1.4	0	1	0.30000000000000004	0.7	2	2	0.6000000000000001	1.4	valid	0.5165625139998156	53248	0	1	2	53248	1	53248	1	53248	1	0.7	53248	purple	turquoise	0	2	ml	2.7.3	lorasick	sub-01_ses-01_task-ml_proj-lorasick_2020-10-16-15-04-50.717385
60	1	1	2	61	volatile	3	20	1	vs	purple	turquoise	turquoise	purple	right	left	0.7	0.30000000000000004	4	6	2.8	1.8000000000000005	0	1	0.30000000000000004	0.7	6	4	1.8000000000000005	2.8	invalid	0.5831831770010467	51200	0	0	2	53248	0	53248	0	51200	1	0.7	53248	turquoise	purple	0	6	ml	2.7.3	lorasick	sub-01_ses-01_task-ml_proj-lorasick_2020-10-16-15-04-50.717385
61	1	1	2	62	volatile	3	20	2	vs	turquoise	purple	turquoise	purple	left	right	0.7	0.30000000000000004	2	4	1.4	1.2000000000000002	1	0	0.7	0.30000000000000004	2	4	1.4	1.2000000000000002	valid	0.5665361220017076	53248	0	1	2	51200	0	51200	0	53248	1	0.7	51200	turquoise	purple	0	0	ml	2.7.3	lorasick	sub-01_ses-01_task-ml_proj-lorasick_2020-10-16-15-04-50.717385
62	1	1	2	63	volatile	3	20	3	vs	purple	turquoise	turquoise	purple	right	left	0.7	0.30000000000000004	4	6	2.8	1.8000000000000005	0	1	0.30000000000000004	0.7	6	4	1.8000000000000005	2.8	invalid	0.4998694720015919	51200	0	0	2	53248	0	53248	0	51200	1	0.7	53248	turquoise	purple	0	6	ml	2.7.3	lorasick	sub-01_ses-01_task-ml_proj-lorasick_2020-10-16-15-04-50.717385
63	1	1	2	64	volatile	3	20	4	vs	purple	turquoise	turquoise	purple	right	left	0.7	0.30000000000000004	6	4	4.199999999999998	1.2000000000000002	1	0	0.30000000000000004	0.7	4	6	1.2000000000000002	4.199999999999998	valid	0.5331974789987726	51200	0	0	2	53248	0	53248	0	53248	0	0.7	53248	turquoise	purple	1	0	ml	2.7.3	lorasick	sub-01_ses-01_task-ml_proj-lorasick_2020-10-16-15-04-50.717385
64	1	1	2	65	volatile	3	20	5	vs	purple	turquoise	turquoise	purple	right	left	0.7	0.30000000000000004	10	2	7.0	0.6000000000000001	0	1	0.30000000000000004	0.7	2	10	0.6000000000000001	7.0	invalid	0.7664742819979438	53248	0	1	1	53248	1	53248	1	53248	1	0.7	53248	turquoise	purple	1	0	ml	2.7.3	lorasick	sub-01_ses-01_task-ml_proj-lorasick_2020-10-16-15-04-50.717385
65	1	1	2	66	volatile	3	20	6	vs	turquoise	purple	turquoise	purple	left	right	0.7	0.30000000000000004	2	10	1.4	3.0000000000000004	1	0	0.7	0.30000000000000004	2	10	1.4	3.0000000000000004	valid	0.5332162260019686	53248	0	1	2	53248	1	51200	0	53248	1	0.7	51200	turquoise	purple	0	0	ml	2.7.3	lorasick	sub-01_ses-01_task-ml_proj-lorasick_2020-10-16-15-04-50.717385
66	1	1	2	67	volatile	3	20	7	vs	purple	turquoise	turquoise	purple	right	left	0.7	0.30000000000000004	6	2	4.199999999999998	0.6000000000000001	1	0	0.30000000000000004	0.7	2	6	0.6000000000000001	4.199999999999998	valid	1.28297283700158	51200	0	0	2	53248	0	53248	0	53248	0	0.7	53248	turquoise	purple	1	0	ml	2.7.3	lorasick	sub-01_ses-01_task-ml_proj-lorasick_2020-10-16-15-04-50.717385
67	1	1	2	68	volatile	3	20	8	vs	turquoise	purple	turquoise	purple	left	right	0.7	0.30000000000000004	2	4	1.4	1.2000000000000002	1	0	0.7	0.30000000000000004	2	4	1.4	1.2000000000000002	valid	0.4832150580004964	51200	0	0	1	51200	1	51200	1	53248	0	0.7	51200	turquoise	purple	0	2	ml	2.7.3	lorasick	sub-01_ses-01_task-ml_proj-lorasick_2020-10-16-15-04-50.717385
68	1	1	2	69	volatile	3	20	9	vs	turquoise	purple	turquoise	purple	left	right	0.7	0.30000000000000004	4	2	2.8	0.6000000000000001	0	1	0.7	0.30000000000000004	4	2	2.8	0.6000000000000001	invalid	0.4498911730006512	51200	0	0	1	51200	1	51200	1	51200	1	0.7	51200	turquoise	purple	1	0	ml	2.7.3	lorasick	sub-01_ses-01_task-ml_proj-lorasick_2020-10-16-15-04-50.717385
69	1	1	2	70	volatile	3	20	10	vs	turquoise	purple	turquoise	purple	left	right	0.7	0.30000000000000004	10	2	7.0	0.6000000000000001	0	1	0.7	0.30000000000000004	10	2	7.0	0.6000000000000001	invalid	0.4998754869993718	51200	0	0	1	51200	1	51200	1	51200	1	0.7	51200	turquoise	purple	1	0	ml	2.7.3	lorasick	sub-01_ses-01_task-ml_proj-lorasick_2020-10-16-15-04-50.717385
70	1	1	2	71	volatile	3	20	11	vs	turquoise	purple	turquoise	purple	left	right	0.7	0.30000000000000004	4	6	2.8	1.8000000000000005	1	0	0.7	0.30000000000000004	4	6	2.8	1.8000000000000005	valid	0.6331763929993031	53248	0	1	2	51200	0	51200	0	53248	1	0.7	51200	turquoise	purple	0	0	ml	2.7.3	lorasick	sub-01_ses-01_task-ml_proj-lorasick_2020-10-16-15-04-50.717385
71	1	1	2	72	volatile	3	20	12	vs	turquoise	purple	turquoise	purple	left	right	0.7	0.30000000000000004	6	2	4.199999999999998	0.6000000000000001	1	0	0.7	0.30000000000000004	6	2	4.199999999999998	0.6000000000000001	valid	0.7664506740002253	51200	0	0	1	51200	1	51200	1	51200	1	0.7	51200	turquoise	purple	1	6	ml	2.7.3	lorasick	sub-01_ses-01_task-ml_proj-lorasick_2020-10-16-15-04-50.717385
72	1	1	2	73	volatile	3	20	13	vs	turquoise	purple	turquoise	purple	left	right	0.7	0.30000000000000004	6	6	4.199999999999998	1.8000000000000005	0	1	0.7	0.30000000000000004	6	6	4.199999999999998	1.8000000000000005	invalid	0.5998394870002812	51200	0	0	1	51200	1	51200	1	53248	0	0.7	51200	turquoise	purple	1	0	ml	2.7.3	lorasick	sub-01_ses-01_task-ml_proj-lorasick_2020-10-16-15-04-50.717385
73	1	1	2	74	volatile	3	20	14	vs	turquoise	purple	turquoise	purple	left	right	0.7	0.30000000000000004	2	2	1.4	0.6000000000000001	1	0	0.7	0.30000000000000004	2	2	1.4	0.6000000000000001	valid	0.6165103530001943	51200	0	0	1	51200	1	51200	1	53248	0	0.7	51200	turquoise	purple	1	2	ml	2.7.3	lorasick	sub-01_ses-01_task-ml_proj-lorasick_2020-10-16-15-04-50.717385
74	1	1	2	75	volatile	3	20	15	vs	purple	turquoise	turquoise	purple	right	left	0.7	0.30000000000000004	6	2	4.199999999999998	0.6000000000000001	1	0	0.30000000000000004	0.7	2	6	0.6000000000000001	4.199999999999998	valid	0.4165811429993482	53248	0	1	1	53248	1	53248	1	53248	1	0.7	53248	turquoise	purple	1	6	ml	2.7.3	lorasick	sub-01_ses-01_task-ml_proj-lorasick_2020-10-16-15-04-50.717385
75	1	1	2	76	volatile	3	20	16	vs	purple	turquoise	turquoise	purple	right	left	0.7	0.30000000000000004	2	6	1.4	1.8000000000000005	1	0	0.30000000000000004	0.7	6	2	1.8000000000000005	1.4	valid	0.6498407119979674	53248	0	1	1	51200	0	53248	1	51200	0	0.7	53248	turquoise	purple	0	2	ml	2.7.3	lorasick	sub-01_ses-01_task-ml_proj-lorasick_2020-10-16-15-04-50.717385
76	1	1	2	77	volatile	3	20	17	vs	purple	turquoise	turquoise	purple	right	left	0.7	0.30000000000000004	2	2	1.4	0.6000000000000001	1	0	0.30000000000000004	0.7	2	2	0.6000000000000001	1.4	valid	0.5165516300003219	53248	0	1	1	53248	1	53248	1	53248	1	0.7	53248	turquoise	purple	0	2	ml	2.7.3	lorasick	sub-01_ses-01_task-ml_proj-lorasick_2020-10-16-15-04-50.717385
77	1	1	2	78	volatile	3	20	18	vs	purple	turquoise	turquoise	purple	right	left	0.7	0.30000000000000004	2	4	1.4	1.2000000000000002	1	0	0.30000000000000004	0.7	4	2	1.2000000000000002	1.4	valid	0.6665010069991695	53248	0	1	1	53248	1	53248	1	51200	0	0.7	53248	turquoise	purple	0	2	ml	2.7.3	lorasick	sub-01_ses-01_task-ml_proj-lorasick_2020-10-16-15-04-50.717385
78	1	1	2	79	volatile	3	20	19	vs	turquoise	purple	turquoise	purple	left	right	0.7	0.30000000000000004	6	6	4.199999999999998	1.8000000000000005	1	0	0.7	0.30000000000000004	6	6	4.199999999999998	1.8000000000000005	valid	1.216340651997598	53248	0	1	2	51200	0	51200	0	53248	1	0.7	51200	turquoise	purple	1	0	ml	2.7.3	lorasick	sub-01_ses-01_task-ml_proj-lorasick_2020-10-16-15-04-50.717385
79	1	1	2	80	volatile	3	20	20	vs	purple	turquoise	turquoise	purple	right	left	0.7	0.30000000000000004	2	10	1.4	3.0000000000000004	1	0	0.30000000000000004	0.7	10	2	3.0000000000000004	1.4	valid	1.0163948270019318	51200	0	0	2	51200	1	53248	0	51200	1	0.7	53248	turquoise	purple	0	0	ml	2.7.3	lorasick	sub-01_ses-01_task-ml_proj-lorasick_2020-10-16-15-04-50.717385
80	1	1	2	81	volatile	4	40	1	vs	purple	turquoise	turquoise	purple	right	left	0.30000000000000004	0.7	6	4	1.8000000000000005	2.8	1	0	0.7	0.30000000000000004	4	6	2.8	1.8000000000000005	invalid	0.9830708020017482	53248	0	1	1	51200	0	51200	0	53248	1	0.7	51200	purple	turquoise	0	6	ml	2.7.3	lorasick	sub-01_ses-01_task-ml_proj-lorasick_2020-10-16-15-04-50.717385
81	1	1	2	82	volatile	4	40	2	vs	turquoise	purple	turquoise	purple	left	right	0.30000000000000004	0.7	10	2	3.0000000000000004	1.4	1	0	0.30000000000000004	0.7	10	2	3.0000000000000004	1.4	invalid	0.9164191089985252	51200	0	0	1	51200	1	53248	0	51200	1	0.7	53248	purple	turquoise	0	10	ml	2.7.3	lorasick	sub-01_ses-01_task-ml_proj-lorasick_2020-10-16-15-04-50.717385
82	1	1	2	83	volatile	4	40	3	vs	purple	turquoise	turquoise	purple	right	left	0.30000000000000004	0.7	4	2	1.2000000000000002	1.4	0	1	0.7	0.30000000000000004	2	4	1.4	1.2000000000000002	valid	0.4665632149990415	53248	0	1	1	51200	0	51200	0	53248	1	0.7	51200	purple	turquoise	0	0	ml	2.7.3	lorasick	sub-01_ses-01_task-ml_proj-lorasick_2020-10-16-15-04-50.717385
83	1	1	2	84	volatile	4	40	4	vs	turquoise	purple	turquoise	purple	left	right	0.30000000000000004	0.7	6	4	1.8000000000000005	2.8	0	1	0.30000000000000004	0.7	6	4	1.8000000000000005	2.8	valid	0.3999062309994771	51200	0	0	1	53248	0	53248	0	51200	1	0.7	53248	purple	turquoise	0	0	ml	2.7.3	lorasick	sub-01_ses-01_task-ml_proj-lorasick_2020-10-16-15-04-50.717385
84	1	1	2	85	volatile	4	40	5	vs	turquoise	purple	turquoise	purple	left	right	0.30000000000000004	0.7	2	6	0.6000000000000001	4.199999999999998	1	0	0.30000000000000004	0.7	2	6	0.6000000000000001	4.199999999999998	invalid	0.41662190400165855	53248	0	1	2	53248	1	53248	1	53248	1	0.7	53248	purple	turquoise	1	0	ml	2.7.3	lorasick	sub-01_ses-01_task-ml_proj-lorasick_2020-10-16-15-04-50.717385
85	1	1	2	86	volatile	4	40	6	vs	turquoise	purple	turquoise	purple	left	right	0.30000000000000004	0.7	6	2	1.8000000000000005	1.4	0	1	0.30000000000000004	0.7	6	2	1.8000000000000005	1.4	valid	0.599857854002039	53248	0	1	2	51200	0	53248	1	51200	0	0.7	53248	purple	turquoise	0	2	ml	2.7.3	lorasick	sub-01_ses-01_task-ml_proj-lorasick_2020-10-16-15-04-50.717385
86	1	1	2	87	volatile	4	40	7	vs	turquoise	purple	turquoise	purple	left	right	0.30000000000000004	0.7	10	2	3.0000000000000004	1.4	1	0	0.30000000000000004	0.7	10	2	3.0000000000000004	1.4	invalid	0.6831654470006471	53248	0	1	2	51200	0	53248	1	51200	0	0.7	53248	purple	turquoise	0	0	ml	2.7.3	lorasick	sub-01_ses-01_task-ml_proj-lorasick_2020-10-16-15-04-50.717385
87	1	1	2	88	volatile	4	40	8	vs	purple	turquoise	turquoise	purple	right	left	0.30000000000000004	0.7	6	2	1.8000000000000005	1.4	0	1	0.7	0.30000000000000004	2	6	1.4	1.8000000000000005	valid	0.4332410169990908	53248	0	1	1	53248	1	51200	0	53248	1	0.7	51200	purple	turquoise	0	0	ml	2.7.3	lorasick	sub-01_ses-01_task-ml_proj-lorasick_2020-10-16-15-04-50.717385
88	1	1	2	89	volatile	4	40	9	vs	turquoise	purple	turquoise	purple	left	right	0.30000000000000004	0.7	2	10	0.6000000000000001	7.0	0	1	0.30000000000000004	0.7	2	10	0.6000000000000001	7.0	valid	0.3999182709994784	53248	0	1	2	53248	1	53248	1	53248	1	0.7	53248	purple	turquoise	1	10	ml	2.7.3	lorasick	sub-01_ses-01_task-ml_proj-lorasick_2020-10-16-15-04-50.717385
89	1	1	2	90	volatile	4	40	10	vs	turquoise	purple	turquoise	purple	left	right	0.30000000000000004	0.7	2	2	0.6000000000000001	1.4	0	1	0.30000000000000004	0.7	2	2	0.6000000000000001	1.4	valid	0.4665632460018969	53248	0	1	2	53248	1	53248	1	53248	1	0.7	53248	purple	turquoise	0	2	ml	2.7.3	lorasick	sub-01_ses-01_task-ml_proj-lorasick_2020-10-16-15-04-50.717385
90	1	1	2	91	volatile	4	40	11	vs	turquoise	purple	turquoise	purple	left	right	0.30000000000000004	0.7	6	4	1.8000000000000005	2.8	0	1	0.30000000000000004	0.7	6	4	1.8000000000000005	2.8	valid	0.6165180239986512	53248	0	1	2	53248	1	53248	1	51200	0	0.7	53248	purple	turquoise	0	4	ml	2.7.3	lorasick	sub-01_ses-01_task-ml_proj-lorasick_2020-10-16-15-04-50.717385
91	1	1	2	92	volatile	4	40	12	vs	turquoise	purple	turquoise	purple	left	right	0.30000000000000004	0.7	6	4	1.8000000000000005	2.8	0	1	0.30000000000000004	0.7	6	4	1.8000000000000005	2.8	valid	0.6498353860006318	53248	0	1	2	53248	1	53248	1	51200	0	0.7	53248	purple	turquoise	0	4	ml	2.7.3	lorasick	sub-01_ses-01_task-ml_proj-lorasick_2020-10-16-15-04-50.717385
92	1	1	2	93	volatile	4	40	13	vs	turquoise	purple	turquoise	purple	left	right	0.30000000000000004	0.7	6	6	1.8000000000000005	4.199999999999998	0	1	0.30000000000000004	0.7	6	6	1.8000000000000005	4.199999999999998	valid	0.3999188339985267	53248	0	1	2	53248	1	53248	1	53248	1	0.7	53248	purple	turquoise	0	6	ml	2.7.3	lorasick	sub-01_ses-01_task-ml_proj-lorasick_2020-10-16-15-04-50.717385
93	1	1	2	94	volatile	4	40	14	vs	turquoise	purple	turquoise	purple	left	right	0.30000000000000004	0.7	2	10	0.6000000000000001	7.0	0	1	0.30000000000000004	0.7	2	10	0.6000000000000001	7.0	valid	0.6665045810004813	53248	0	1	2	53248	1	53248	1	53248	1	0.7	53248	purple	turquoise	1	10	ml	2.7.3	lorasick	sub-01_ses-01_task-ml_proj-lorasick_2020-10-16-15-04-50.717385
94	1	1	2	95	volatile	4	40	15	vs	turquoise	purple	turquoise	purple	left	right	0.30000000000000004	0.7	6	2	1.8000000000000005	1.4	0	1	0.30000000000000004	0.7	6	2	1.8000000000000005	1.4	valid	0.8664321089963778	51200	0	0	1	51200	1	53248	0	51200	1	0.7	53248	purple	turquoise	0	0	ml	2.7.3	lorasick	sub-01_ses-01_task-ml_proj-lorasick_2020-10-16-15-04-50.717385
95	1	1	2	96	volatile	4	40	16	vs	turquoise	purple	turquoise	purple	left	right	0.30000000000000004	0.7	2	6	0.6000000000000001	4.199999999999998	0	1	0.30000000000000004	0.7	2	6	0.6000000000000001	4.199999999999998	valid	0.3832623899979808	53248	0	1	2	53248	1	53248	1	53248	1	0.7	53248	purple	turquoise	1	6	ml	2.7.3	lorasick	sub-01_ses-01_task-ml_proj-lorasick_2020-10-16-15-04-50.717385
96	1	1	2	97	volatile	4	40	17	vs	purple	turquoise	turquoise	purple	right	left	0.30000000000000004	0.7	6	6	1.8000000000000005	4.199999999999998	0	1	0.7	0.30000000000000004	6	6	4.199999999999998	1.8000000000000005	valid	0.8664318929986621	51200	0	0	2	51200	1	51200	1	53248	0	0.7	51200	purple	turquoise	1	6	ml	2.7.3	lorasick	sub-01_ses-01_task-ml_proj-lorasick_2020-10-16-15-04-50.717385
97	1	1	2	98	volatile	4	40	18	vs	purple	turquoise	turquoise	purple	right	left	0.30000000000000004	0.7	4	2	1.2000000000000002	1.4	0	1	0.7	0.30000000000000004	2	4	1.4	1.2000000000000002	valid	0.6498463059979258	53248	0	1	1	51200	0	51200	0	53248	1	0.7	51200	purple	turquoise	0	0	ml	2.7.3	lorasick	sub-01_ses-01_task-ml_proj-lorasick_2020-10-16-15-04-50.717385
98	1	1	2	99	volatile	4	40	19	vs	turquoise	purple	turquoise	purple	left	right	0.30000000000000004	0.7	2	2	0.6000000000000001	1.4	0	1	0.30000000000000004	0.7	2	2	0.6000000000000001	1.4	valid	0.4499059189984109	53248	0	1	2	53248	1	53248	1	53248	1	0.7	53248	purple	turquoise	0	2	ml	2.7.3	lorasick	sub-01_ses-01_task-ml_proj-lorasick_2020-10-16-15-04-50.717385
99	1	1	2	100	volatile	4	40	20	vs	purple	turquoise	turquoise	purple	right	left	0.30000000000000004	0.7	4	2	1.2000000000000002	1.4	0	1	0.7	0.30000000000000004	2	4	1.4	1.2000000000000002	valid	0.5998492140024609	51200	0	0	2	51200	1	51200	1	53248	0	0.7	51200	purple	turquoise	0	2	ml	2.7.3	lorasick	sub-01_ses-01_task-ml_proj-lorasick_2020-10-16-15-04-50.717385
100	1	1	3	101	volatile	4	40	21	vs	purple	turquoise	turquoise	purple	right	left	0.30000000000000004	0.7	10	2	3.0000000000000004	1.4	1	0	0.7	0.30000000000000004	2	10	1.4	3.0000000000000004	invalid	0.6331725950003602	53248	0	1	1	53248	1	51200	0	53248	1	0.7	51200	purple	turquoise	0	10	ml	2.7.3	lorasick	sub-01_ses-01_task-ml_proj-lorasick_2020-10-16-15-04-50.717385
101	1	1	3	102	volatile	4	40	22	vs	turquoise	purple	turquoise	purple	left	right	0.30000000000000004	0.7	2	6	0.6000000000000001	4.199999999999998	1	0	0.30000000000000004	0.7	2	6	0.6000000000000001	4.199999999999998	invalid	0.4832264139986364	53248	0	1	2	53248	1	53248	1	53248	1	0.7	53248	purple	turquoise	1	0	ml	2.7.3	lorasick	sub-01_ses-01_task-ml_proj-lorasick_2020-10-16-15-04-50.717385
102	1	1	3	103	volatile	4	40	23	vs	purple	turquoise	turquoise	purple	right	left	0.30000000000000004	0.7	6	4	1.8000000000000005	2.8	0	1	0.7	0.30000000000000004	4	6	2.8	1.8000000000000005	valid	0.5332102480024332	53248	0	1	1	51200	0	51200	0	53248	1	0.7	51200	purple	turquoise	0	0	ml	2.7.3	lorasick	sub-01_ses-01_task-ml_proj-lorasick_2020-10-16-15-04-50.717385
103	1	1	3	104	volatile	4	40	24	vs	purple	turquoise	turquoise	purple	right	left	0.30000000000000004	0.7	2	2	0.6000000000000001	1.4	1	0	0.7	0.30000000000000004	2	2	1.4	0.6000000000000001	invalid	1.2330039829976158	53248	0	1	1	51200	0	51200	0	53248	1	0.7	51200	purple	turquoise	1	2	ml	2.7.3	lorasick	sub-01_ses-01_task-ml_proj-lorasick_2020-10-16-15-04-50.717385
104	1	1	3	105	volatile	4	40	25	vs	purple	turquoise	turquoise	purple	right	left	0.30000000000000004	0.7	4	6	1.2000000000000002	4.199999999999998	0	1	0.7	0.30000000000000004	6	4	4.199999999999998	1.2000000000000002	valid	0.4499090810022608	53248	0	1	1	51200	0	51200	0	51200	0	0.7	51200	purple	turquoise	1	0	ml	2.7.3	lorasick	sub-01_ses-01_task-ml_proj-lorasick_2020-10-16-15-04-50.717385
105	1	1	3	106	volatile	4	40	26	vs	purple	turquoise	turquoise	purple	right	left	0.30000000000000004	0.7	6	6	1.8000000000000005	4.199999999999998	1	0	0.7	0.30000000000000004	6	6	4.199999999999998	1.8000000000000005	invalid	0.9330753469985212	51200	0	0	2	51200	1	51200	1	53248	0	0.7	51200	purple	turquoise	1	0	ml	2.7.3	lorasick	sub-01_ses-01_task-ml_proj-lorasick_2020-10-16-15-04-50.717385
106	1	1	3	107	volatile	4	40	27	vs	turquoise	purple	turquoise	purple	left	right	0.30000000000000004	0.7	4	6	1.2000000000000002	4.199999999999998	0	1	0.30000000000000004	0.7	4	6	1.2000000000000002	4.199999999999998	valid	0.666510050999932	53248	0	1	2	53248	1	53248	1	53248	1	0.7	53248	purple	turquoise	1	6	ml	2.7.3	lorasick	sub-01_ses-01_task-ml_proj-lorasick_2020-10-16-15-04-50.717385
107	1	1	3	108	volatile	4	40	28	vs	purple	turquoise	turquoise	purple	right	left	0.30000000000000004	0.7	2	6	0.6000000000000001	4.199999999999998	0	1	0.7	0.30000000000000004	6	2	4.199999999999998	0.6000000000000001	valid	0.5665257850014314	51200	0	0	2	51200	1	51200	1	51200	1	0.7	51200	purple	turquoise	1	6	ml	2.7.3	lorasick	sub-01_ses-01_task-ml_proj-lorasick_2020-10-16-15-04-50.717385
108	1	1	3	109	volatile	4	40	29	vs	turquoise	purple	turquoise	purple	left	right	0.30000000000000004	0.7	4	2	1.2000000000000002	1.4	0	1	0.30000000000000004	0.7	4	2	1.2000000000000002	1.4	valid	0.8997667850017024	53248	0	1	2	53248	1	53248	1	51200	0	0.7	53248	purple	turquoise	0	2	ml	2.7.3	lorasick	sub-01_ses-01_task-ml_proj-lorasick_2020-10-16-15-04-50.717385
109	1	1	3	110	volatile	4	40	30	vs	purple	turquoise	turquoise	purple	right	left	0.30000000000000004	0.7	6	6	1.8000000000000005	4.199999999999998	1	0	0.7	0.30000000000000004	6	6	4.199999999999998	1.8000000000000005	invalid	0.6331704469994293	51200	0	0	2	51200	1	51200	1	53248	0	0.7	51200	purple	turquoise	1	0	ml	2.7.3	lorasick	sub-01_ses-01_task-ml_proj-lorasick_2020-10-16-15-04-50.717385
110	1	1	3	111	volatile	4	40	31	vs	turquoise	purple	turquoise	purple	left	right	0.30000000000000004	0.7	4	2	1.2000000000000002	1.4	0	1	0.30000000000000004	0.7	4	2	1.2000000000000002	1.4	valid	0.399925378998887	53248	0	1	2	53248	1	53248	1	51200	0	0.7	53248	purple	turquoise	0	2	ml	2.7.3	lorasick	sub-01_ses-01_task-ml_proj-lorasick_2020-10-16-15-04-50.717385
111	1	1	3	112	volatile	4	40	32	vs	purple	turquoise	turquoise	purple	right	left	0.30000000000000004	0.7	2	6	0.6000000000000001	4.199999999999998	0	1	0.7	0.30000000000000004	6	2	4.199999999999998	0.6000000000000001	valid	0.4332373489996826	51200	0	0	2	51200	1	51200	1	51200	1	0.7	51200	purple	turquoise	1	6	ml	2.7.3	lorasick	sub-01_ses-01_task-ml_proj-lorasick_2020-10-16-15-04-50.717385
112	1	1	3	113	volatile	4	40	33	vs	turquoise	purple	turquoise	purple	left	right	0.30000000000000004	0.7	2	4	0.6000000000000001	2.8	1	0	0.30000000000000004	0.7	2	4	0.6000000000000001	2.8	invalid	0.3499324250005884	53248	0	1	2	53248	1	53248	1	53248	1	0.7	53248	purple	turquoise	1	0	ml	2.7.3	lorasick	sub-01_ses-01_task-ml_proj-lorasick_2020-10-16-15-04-50.717385
113	1	1	3	114	volatile	4	40	34	vs	purple	turquoise	turquoise	purple	right	left	0.30000000000000004	0.7	2	10	0.6000000000000001	7.0	0	1	0.7	0.30000000000000004	10	2	7.0	0.6000000000000001	valid	0.4998777769978915	51200	0	0	2	51200	1	51200	1	51200	1	0.7	51200	purple	turquoise	1	10	ml	2.7.3	lorasick	sub-01_ses-01_task-ml_proj-lorasick_2020-10-16-15-04-50.717385
114	1	1	3	115	volatile	4	40	35	vs	purple	turquoise	turquoise	purple	right	left	0.30000000000000004	0.7	2	4	0.6000000000000001	2.8	1	0	0.7	0.30000000000000004	4	2	2.8	0.6000000000000001	invalid	0.566527553000924	51200	0	0	2	51200	1	51200	1	51200	1	0.7	51200	purple	turquoise	1	0	ml	2.7.3	lorasick	sub-01_ses-01_task-ml_proj-lorasick_2020-10-16-15-04-50.717385
115	1	1	3	116	volatile	4	40	36	vs	purple	turquoise	turquoise	purple	right	left	0.30000000000000004	0.7	10	2	3.0000000000000004	1.4	0	1	0.7	0.30000000000000004	2	10	1.4	3.0000000000000004	valid	1.0330497680006374	51200	0	0	2	53248	0	51200	1	53248	0	0.7	51200	purple	turquoise	0	2	ml	2.7.3	lorasick	sub-01_ses-01_task-ml_proj-lorasick_2020-10-16-15-04-50.717385
116	1	1	3	117	volatile	4	40	37	vs	purple	turquoise	turquoise	purple	right	left	0.30000000000000004	0.7	2	10	0.6000000000000001	7.0	0	1	0.7	0.30000000000000004	10	2	7.0	0.6000000000000001	valid	0.7164827529995819	53248	0	1	1	51200	0	51200	0	51200	0	0.7	51200	purple	turquoise	1	0	ml	2.7.3	lorasick	sub-01_ses-01_task-ml_proj-lorasick_2020-10-16-15-04-50.717385
117	1	1	3	118	volatile	4	40	38	vs	purple	turquoise	turquoise	purple	right	left	0.30000000000000004	0.7	2	2	0.6000000000000001	1.4	0	1	0.7	0.30000000000000004	2	2	1.4	0.6000000000000001	valid	0.5831836619981914	51200	0	0	2	51200	1	51200	1	53248	0	0.7	51200	purple	turquoise	1	2	ml	2.7.3	lorasick	sub-01_ses-01_task-ml_proj-lorasick_2020-10-16-15-04-50.717385
118	1	1	3	119	volatile	4	40	39	vs	purple	turquoise	turquoise	purple	right	left	0.30000000000000004	0.7	6	4	1.8000000000000005	2.8	0	1	0.7	0.30000000000000004	4	6	2.8	1.8000000000000005	valid	0.5332000029993651	51200	0	0	2	51200	1	51200	1	53248	0	0.7	51200	purple	turquoise	0	4	ml	2.7.3	lorasick	sub-01_ses-01_task-ml_proj-lorasick_2020-10-16-15-04-50.717385
119	1	1	3	120	volatile	4	40	40	vs	turquoise	purple	turquoise	purple	left	right	0.30000000000000004	0.7	4	2	1.2000000000000002	1.4	1	0	0.30000000000000004	0.7	4	2	1.2000000000000002	1.4	invalid	0.5165477849986928	53248	0	1	2	53248	1	53248	1	51200	0	0.7	53248	purple	turquoise	0	0	ml	2.7.3	lorasick	sub-01_ses-01_task-ml_proj-lorasick_2020-10-16-15-04-50.717385
120	1	1	3	121	volatile	5	20	1	vs	purple	turquoise	turquoise	purple	right	left	0.7	0.30000000000000004	4	2	2.8	0.6000000000000001	0	1	0.30000000000000004	0.7	2	4	0.6000000000000001	2.8	invalid	0.4998998180017225	51200	0	0	2	53248	0	53248	0	53248	0	0.7	53248	turquoise	purple	1	2	ml	2.7.3	lorasick	sub-01_ses-01_task-ml_proj-lorasick_2020-10-16-15-04-50.717385
121	1	1	3	122	volatile	5	20	2	vs	purple	turquoise	turquoise	purple	right	left	0.7	0.30000000000000004	6	4	4.199999999999998	1.2000000000000002	1	0	0.30000000000000004	0.7	4	6	1.2000000000000002	4.199999999999998	valid	0.5831767150011729	51200	0	0	2	53248	0	53248	0	53248	0	0.7	53248	turquoise	purple	1	0	ml	2.7.3	lorasick	sub-01_ses-01_task-ml_proj-lorasick_2020-10-16-15-04-50.717385
122	1	1	3	123	volatile	5	20	3	vs	purple	turquoise	turquoise	purple	right	left	0.7	0.30000000000000004	2	2	1.4	0.6000000000000001	0	1	0.30000000000000004	0.7	2	2	0.6000000000000001	1.4	invalid	0.4832142750019557	51200	0	0	2	53248	0	53248	0	53248	0	0.7	53248	turquoise	purple	0	2	ml	2.7.3	lorasick	sub-01_ses-01_task-ml_proj-lorasick_2020-10-16-15-04-50.717385
123	1	1	3	124	volatile	5	20	4	vs	turquoise	purple	turquoise	purple	left	right	0.7	0.30000000000000004	2	2	1.4	0.6000000000000001	1	0	0.7	0.30000000000000004	2	2	1.4	0.6000000000000001	valid	0.4499057349967188	53248	0	1	2	51200	0	51200	0	53248	1	0.7	51200	turquoise	purple	1	0	ml	2.7.3	lorasick	sub-01_ses-01_task-ml_proj-lorasick_2020-10-16-15-04-50.717385
124	1	1	3	125	volatile	5	20	5	vs	turquoise	purple	turquoise	purple	left	right	0.7	0.30000000000000004	4	2	2.8	0.6000000000000001	1	0	0.7	0.30000000000000004	4	2	2.8	0.6000000000000001	valid	0.3499319889997423	53248	0	1	2	51200	0	51200	0	51200	0	0.7	51200	turquoise	purple	1	0	ml	2.7.3	lorasick	sub-01_ses-01_task-ml_proj-lorasick_2020-10-16-15-04-50.717385
125	1	1	3	126	volatile	5	20	6	vs	purple	turquoise	turquoise	purple	right	left	0.7	0.30000000000000004	4	2	2.8	0.6000000000000001	1	0	0.30000000000000004	0.7	2	4	0.6000000000000001	2.8	valid	0.5331984320000629	51200	0	0	2	53248	0	53248	0	53248	0	0.7	53248	turquoise	purple	1	0	ml	2.7.3	lorasick	sub-01_ses-01_task-ml_proj-lorasick_2020-10-16-15-04-50.717385
126	1	1	3	127	volatile	5	20	7	vs	turquoise	purple	turquoise	purple	left	right	0.7	0.30000000000000004	6	4	4.199999999999998	1.2000000000000002	0	1	0.7	0.30000000000000004	6	4	4.199999999999998	1.2000000000000002	invalid	0.3999048890000267	51200	0	0	1	51200	1	51200	1	51200	1	0.7	51200	turquoise	purple	1	0	ml	2.7.3	lorasick	sub-01_ses-01_task-ml_proj-lorasick_2020-10-16-15-04-50.717385
127	1	1	3	128	volatile	5	20	8	vs	purple	turquoise	turquoise	purple	right	left	0.7	0.30000000000000004	6	2	4.199999999999998	0.6000000000000001	1	0	0.30000000000000004	0.7	2	6	0.6000000000000001	4.199999999999998	valid	0.46656750900001503	53248	0	1	1	53248	1	53248	1	53248	1	0.7	53248	turquoise	purple	1	6	ml	2.7.3	lorasick	sub-01_ses-01_task-ml_proj-lorasick_2020-10-16-15-04-50.717385
128	1	1	3	129	volatile	5	20	9	vs	purple	turquoise	turquoise	purple	right	left	0.7	0.30000000000000004	2	10	1.4	3.0000000000000004	0	1	0.30000000000000004	0.7	10	2	3.0000000000000004	1.4	invalid	0.916411722999328	51200	0	0	2	51200	1	53248	0	51200	1	0.7	53248	turquoise	purple	0	10	ml	2.7.3	lorasick	sub-01_ses-01_task-ml_proj-lorasick_2020-10-16-15-04-50.717385
129	1	1	3	130	volatile	5	20	10	vs	purple	turquoise	turquoise	purple	right	left	0.7	0.30000000000000004	6	6	4.199999999999998	1.8000000000000005	1	0	0.30000000000000004	0.7	6	6	1.8000000000000005	4.199999999999998	valid	0.5498625879990868	51200	0	0	2	53248	0	53248	0	53248	0	0.7	53248	turquoise	purple	0	0	ml	2.7.3	lorasick	sub-01_ses-01_task-ml_proj-lorasick_2020-10-16-15-04-50.717385
130	1	1	3	131	volatile	5	20	11	vs	turquoise	purple	turquoise	purple	left	right	0.7	0.30000000000000004	2	10	1.4	3.0000000000000004	1	0	0.7	0.30000000000000004	2	10	1.4	3.0000000000000004	valid	0.7164862300014647	53248	0	1	2	53248	1	51200	0	53248	1	0.7	51200	turquoise	purple	0	0	ml	2.7.3	lorasick	sub-01_ses-01_task-ml_proj-lorasick_2020-10-16-15-04-50.717385
131	1	1	3	132	volatile	5	20	12	vs	turquoise	purple	turquoise	purple	left	right	0.7	0.30000000000000004	2	6	1.4	1.8000000000000005	1	0	0.7	0.30000000000000004	2	6	1.4	1.8000000000000005	valid	0.949740356998518	51200	0	0	1	53248	0	51200	1	53248	0	0.7	51200	turquoise	purple	0	2	ml	2.7.3	lorasick	sub-01_ses-01_task-ml_proj-lorasick_2020-10-16-15-04-50.717385
132	1	1	3	133	volatile	5	20	13	vs	turquoise	purple	turquoise	purple	left	right	0.7	0.30000000000000004	10	2	7.0	0.6000000000000001	0	1	0.7	0.30000000000000004	10	2	7.0	0.6000000000000001	invalid	0.4332355629994709	51200	0	0	1	51200	1	51200	1	51200	1	0.7	51200	turquoise	purple	1	0	ml	2.7.3	lorasick	sub-01_ses-01_task-ml_proj-lorasick_2020-10-16-15-04-50.717385
133	1	1	3	134	volatile	5	20	14	vs	purple	turquoise	turquoise	purple	right	left	0.7	0.30000000000000004	4	6	2.8	1.8000000000000005	1	0	0.30000000000000004	0.7	6	4	1.8000000000000005	2.8	valid	0.5665318430001207	53248	0	1	1	53248	1	53248	1	51200	0	0.7	53248	turquoise	purple	0	4	ml	2.7.3	lorasick	sub-01_ses-01_task-ml_proj-lorasick_2020-10-16-15-04-50.717385
134	1	1	3	135	volatile	5	20	15	vs	turquoise	purple	turquoise	purple	left	right	0.7	0.30000000000000004	4	6	2.8	1.8000000000000005	1	0	0.7	0.30000000000000004	4	6	2.8	1.8000000000000005	valid	0.5831911599998421	51200	0	0	1	51200	1	51200	1	53248	0	0.7	51200	turquoise	purple	0	4	ml	2.7.3	lorasick	sub-01_ses-01_task-ml_proj-lorasick_2020-10-16-15-04-50.717385
135	1	1	3	136	volatile	5	20	16	vs	turquoise	purple	turquoise	purple	left	right	0.7	0.30000000000000004	6	2	4.199999999999998	0.6000000000000001	0	1	0.7	0.30000000000000004	6	2	4.199999999999998	0.6000000000000001	invalid	0.4665539429988712	51200	0	0	1	51200	1	51200	1	51200	1	0.7	51200	turquoise	purple	1	0	ml	2.7.3	lorasick	sub-01_ses-01_task-ml_proj-lorasick_2020-10-16-15-04-50.717385
136	1	1	3	137	volatile	5	20	17	vs	purple	turquoise	turquoise	purple	right	left	0.7	0.30000000000000004	2	6	1.4	1.8000000000000005	1	0	0.30000000000000004	0.7	6	2	1.8000000000000005	1.4	valid	0.566531942000438	53248	0	1	1	51200	0	53248	1	51200	0	0.7	53248	turquoise	purple	0	2	ml	2.7.3	lorasick	sub-01_ses-01_task-ml_proj-lorasick_2020-10-16-15-04-50.717385
137	1	1	3	138	volatile	5	20	18	vs	turquoise	purple	turquoise	purple	left	right	0.7	0.30000000000000004	6	6	4.199999999999998	1.8000000000000005	1	0	0.7	0.30000000000000004	6	6	4.199999999999998	1.8000000000000005	valid	0.5332020599998941	51200	0	0	1	51200	1	51200	1	53248	0	0.7	51200	turquoise	purple	1	6	ml	2.7.3	lorasick	sub-01_ses-01_task-ml_proj-lorasick_2020-10-16-15-04-50.717385
138	1	1	3	139	volatile	5	20	19	vs	turquoise	purple	turquoise	purple	left	right	0.7	0.30000000000000004	2	10	1.4	3.0000000000000004	1	0	0.7	0.30000000000000004	2	10	1.4	3.0000000000000004	valid	0.6165061169995171	51200	0	0	1	53248	0	51200	1	53248	0	0.7	51200	turquoise	purple	0	2	ml	2.7.3	lorasick	sub-01_ses-01_task-ml_proj-lorasick_2020-10-16-15-04-50.717385
139	1	1	3	140	volatile	5	20	20	vs	purple	turquoise	turquoise	purple	right	left	0.7	0.30000000000000004	2	4	1.4	1.2000000000000002	1	0	0.30000000000000004	0.7	4	2	1.2000000000000002	1.4	valid	0.4498876270008623	51200	0	0	2	53248	0	53248	0	51200	1	0.7	53248	turquoise	purple	0	0	ml	2.7.3	lorasick	sub-01_ses-01_task-ml_proj-lorasick_2020-10-16-15-04-50.717385
140	1	1	3	141	volatile	6	20	1	vs	purple	turquoise	turquoise	purple	right	left	0.30000000000000004	0.7	2	6	0.6000000000000001	4.199999999999998	0	1	0.7	0.30000000000000004	6	2	4.199999999999998	0.6000000000000001	valid	0.6831714090003516	53248	0	1	1	51200	0	51200	0	51200	0	0.7	51200	purple	turquoise	1	0	ml	2.7.3	lorasick	sub-01_ses-01_task-ml_proj-lorasick_2020-10-16-15-04-50.717385
141	1	1	3	142	volatile	6	20	2	vs	purple	turquoise	turquoise	purple	right	left	0.30000000000000004	0.7	2	2	0.6000000000000001	1.4	0	1	0.7	0.30000000000000004	2	2	1.4	0.6000000000000001	valid	0.4998865560010018	53248	0	1	1	51200	0	51200	0	53248	1	0.7	51200	purple	turquoise	1	0	ml	2.7.3	lorasick	sub-01_ses-01_task-ml_proj-lorasick_2020-10-16-15-04-50.717385
142	1	1	3	143	volatile	6	20	3	vs	turquoise	purple	turquoise	purple	left	right	0.30000000000000004	0.7	2	6	0.6000000000000001	4.199999999999998	1	0	0.30000000000000004	0.7	2	6	0.6000000000000001	4.199999999999998	invalid	0.43324240000220016	53248	0	1	2	53248	1	53248	1	53248	1	0.7	53248	purple	turquoise	1	0	ml	2.7.3	lorasick	sub-01_ses-01_task-ml_proj-lorasick_2020-10-16-15-04-50.717385
143	1	1	3	144	volatile	6	20	4	vs	turquoise	purple	turquoise	purple	left	right	0.30000000000000004	0.7	2	10	0.6000000000000001	7.0	0	1	0.30000000000000004	0.7	2	10	0.6000000000000001	7.0	valid	0.3665918379992945	53248	0	1	2	53248	1	53248	1	53248	1	0.7	53248	purple	turquoise	1	10	ml	2.7.3	lorasick	sub-01_ses-01_task-ml_proj-lorasick_2020-10-16-15-04-50.717385
144	1	1	3	145	volatile	6	20	5	vs	purple	turquoise	turquoise	purple	right	left	0.30000000000000004	0.7	4	6	1.2000000000000002	4.199999999999998	1	0	0.7	0.30000000000000004	6	4	4.199999999999998	1.2000000000000002	invalid	0.3665830240024661	51200	0	0	2	51200	1	51200	1	51200	1	0.7	51200	purple	turquoise	1	0	ml	2.7.3	lorasick	sub-01_ses-01_task-ml_proj-lorasick_2020-10-16-15-04-50.717385
145	1	1	3	146	volatile	6	20	6	vs	purple	turquoise	turquoise	purple	right	left	0.30000000000000004	0.7	10	2	3.0000000000000004	1.4	0	1	0.7	0.30000000000000004	2	10	1.4	3.0000000000000004	valid	0.6665017259983871	53248	0	1	1	53248	1	51200	0	53248	1	0.7	51200	purple	turquoise	0	0	ml	2.7.3	lorasick	sub-01_ses-01_task-ml_proj-lorasick_2020-10-16-15-04-50.717385
146	1	1	3	147	volatile	6	20	7	vs	turquoise	purple	turquoise	purple	left	right	0.30000000000000004	0.7	2	2	0.6000000000000001	1.4	1	0	0.30000000000000004	0.7	2	2	0.6000000000000001	1.4	invalid	0.5332109769988165	53248	0	1	2	53248	1	53248	1	53248	1	0.7	53248	purple	turquoise	0	0	ml	2.7.3	lorasick	sub-01_ses-01_task-ml_proj-lorasick_2020-10-16-15-04-50.717385
147	1	1	3	148	volatile	6	20	8	vs	turquoise	purple	turquoise	purple	left	right	0.30000000000000004	0.7	4	6	1.2000000000000002	4.199999999999998	1	0	0.30000000000000004	0.7	4	6	1.2000000000000002	4.199999999999998	invalid	0.5831860610014701	53248	0	1	2	53248	1	53248	1	53248	1	0.7	53248	purple	turquoise	1	0	ml	2.7.3	lorasick	sub-01_ses-01_task-ml_proj-lorasick_2020-10-16-15-04-50.717385
148	1	1	3	149	volatile	6	20	9	vs	purple	turquoise	turquoise	purple	right	left	0.30000000000000004	0.7	2	10	0.6000000000000001	7.0	0	1	0.7	0.30000000000000004	10	2	7.0	0.6000000000000001	valid	1.4662689010001486	53248	0	1	1	51200	0	51200	0	51200	0	0.7	51200	purple	turquoise	1	0	ml	2.7.3	lorasick	sub-01_ses-01_task-ml_proj-lorasick_2020-10-16-15-04-50.717385
149	1	1	3	150	volatile	6	20	10	vs	purple	turquoise	turquoise	purple	right	left	0.30000000000000004	0.7	6	6	1.8000000000000005	4.199999999999998	0	1	0.7	0.30000000000000004	6	6	4.199999999999998	1.8000000000000005	valid	0.4832160639998619	51200	0	0	2	51200	1	51200	1	53248	0	0.7	51200	purple	turquoise	1	6	ml	2.7.3	lorasick	sub-01_ses-01_task-ml_proj-lorasick_2020-10-16-15-04-50.717385
150	1	1	4	151	volatile	6	20	11	vs	turquoise	purple	turquoise	purple	left	right	0.30000000000000004	0.7	6	2	1.8000000000000005	1.4	0	1	0.30000000000000004	0.7	6	2	1.8000000000000005	1.4	valid	0.8164429540011042	51200	0	0	1	51200	1	53248	0	51200	1	0.7	53248	purple	turquoise	0	0	ml	2.7.3	lorasick	sub-01_ses-01_task-ml_proj-lorasick_2020-10-16-15-04-50.717385
151	1	1	4	152	volatile	6	20	12	vs	turquoise	purple	turquoise	purple	left	right	0.30000000000000004	0.7	2	4	0.6000000000000001	2.8	0	1	0.30000000000000004	0.7	2	4	0.6000000000000001	2.8	valid	0.5831746920011938	51200	0	0	1	53248	0	53248	0	53248	0	0.7	53248	purple	turquoise	1	0	ml	2.7.3	lorasick	sub-01_ses-01_task-ml_proj-lorasick_2020-10-16-15-04-50.717385
152	1	1	4	153	volatile	6	20	13	vs	purple	turquoise	turquoise	purple	right	left	0.30000000000000004	0.7	4	2	1.2000000000000002	1.4	0	1	0.7	0.30000000000000004	2	4	1.4	1.2000000000000002	valid	0.7497926609976275	51200	0	0	2	51200	1	51200	1	53248	0	0.7	51200	purple	turquoise	0	2	ml	2.7.3	lorasick	sub-01_ses-01_task-ml_proj-lorasick_2020-10-16-15-04-50.717385
153	1	1	4	154	volatile	6	20	14	vs	purple	turquoise	turquoise	purple	right	left	0.30000000000000004	0.7	2	10	0.6000000000000001	7.0	0	1	0.7	0.30000000000000004	10	2	7.0	0.6000000000000001	valid	0.41656373200021335	51200	0	0	2	51200	1	51200	1	51200	1	0.7	51200	purple	turquoise	1	10	ml	2.7.3	lorasick	sub-01_ses-01_task-ml_proj-lorasick_2020-10-16-15-04-50.717385
154	1	1	4	155	volatile	6	20	15	vs	turquoise	purple	turquoise	purple	left	right	0.30000000000000004	0.7	4	2	1.2000000000000002	1.4	0	1	0.30000000000000004	0.7	4	2	1.2000000000000002	1.4	valid	0.5998571620002622	53248	0	1	2	53248	1	53248	1	51200	0	0.7	53248	purple	turquoise	0	2	ml	2.7.3	lorasick	sub-01_ses-01_task-ml_proj-lorasick_2020-10-16-15-04-50.717385
155	1	1	4	156	volatile	6	20	16	vs	purple	turquoise	turquoise	purple	right	left	0.30000000000000004	0.7	2	4	0.6000000000000001	2.8	1	0	0.7	0.30000000000000004	4	2	2.8	0.6000000000000001	invalid	0.4332241270021768	51200	0	0	2	51200	1	51200	1	51200	1	0.7	51200	purple	turquoise	1	0	ml	2.7.3	lorasick	sub-01_ses-01_task-ml_proj-lorasick_2020-10-16-15-04-50.717385
156	1	1	4	157	volatile	6	20	17	vs	purple	turquoise	turquoise	purple	right	left	0.30000000000000004	0.7	6	4	1.8000000000000005	2.8	1	0	0.7	0.30000000000000004	4	6	2.8	1.8000000000000005	invalid	0.8664294330010307	51200	0	0	2	51200	1	51200	1	53248	0	0.7	51200	purple	turquoise	0	0	ml	2.7.3	lorasick	sub-01_ses-01_task-ml_proj-lorasick_2020-10-16-15-04-50.717385
157	1	1	4	158	volatile	6	20	18	vs	turquoise	purple	turquoise	purple	left	right	0.30000000000000004	0.7	6	4	1.8000000000000005	2.8	0	1	0.30000000000000004	0.7	6	4	1.8000000000000005	2.8	valid	0.5332100840023486	53248	0	1	2	53248	1	53248	1	51200	0	0.7	53248	purple	turquoise	0	4	ml	2.7.3	lorasick	sub-01_ses-01_task-ml_proj-lorasick_2020-10-16-15-04-50.717385
158	1	1	4	159	volatile	6	20	19	vs	turquoise	purple	turquoise	purple	left	right	0.30000000000000004	0.7	2	6	0.6000000000000001	4.199999999999998	0	1	0.30000000000000004	0.7	2	6	0.6000000000000001	4.199999999999998	valid	0.6998270799995225	53248	0	1	2	53248	1	53248	1	53248	1	0.7	53248	purple	turquoise	1	6	ml	2.7.3	lorasick	sub-01_ses-01_task-ml_proj-lorasick_2020-10-16-15-04-50.717385
159	1	1	4	160	volatile	6	20	20	vs	turquoise	purple	turquoise	purple	left	right	0.30000000000000004	0.7	6	6	1.8000000000000005	4.199999999999998	0	1	0.30000000000000004	0.7	6	6	1.8000000000000005	4.199999999999998	valid	0.4165792350031552	53248	0	1	2	53248	1	53248	1	53248	1	0.7	53248	purple	turquoise	0	6	ml	2.7.3	lorasick	sub-01_ses-01_task-ml_proj-lorasick_2020-10-16-15-04-50.717385
160	1	1	4	161	volatile	7	40	1	vs	turquoise	purple	turquoise	purple	left	right	0.7	0.30000000000000004	2	2	1.4	0.6000000000000001	1	0	0.7	0.30000000000000004	2	2	1.4	0.6000000000000001	valid	0.5831868850000319	53248	0	1	2	51200	0	51200	0	53248	1	0.7	51200	turquoise	purple	1	0	ml	2.7.3	lorasick	sub-01_ses-01_task-ml_proj-lorasick_2020-10-16-15-04-50.717385
161	1	1	4	162	volatile	7	40	2	vs	turquoise	purple	turquoise	purple	left	right	0.7	0.30000000000000004	2	4	1.4	1.2000000000000002	1	0	0.7	0.30000000000000004	2	4	1.4	1.2000000000000002	valid	0.4832306480020634	53248	0	1	2	51200	0	51200	0	53248	1	0.7	51200	turquoise	purple	0	0	ml	2.7.3	lorasick	sub-01_ses-01_task-ml_proj-lorasick_2020-10-16-15-04-50.717385
162	1	1	4	163	volatile	7	40	3	vs	turquoise	purple	turquoise	purple	left	right	0.7	0.30000000000000004	2	6	1.4	1.8000000000000005	0	1	0.7	0.30000000000000004	2	6	1.4	1.8000000000000005	invalid	0.4165782269992633	53248	0	1	2	53248	1	51200	0	53248	1	0.7	51200	turquoise	purple	0	6	ml	2.7.3	lorasick	sub-01_ses-01_task-ml_proj-lorasick_2020-10-16-15-04-50.717385
163	1	1	4	164	volatile	7	40	4	vs	turquoise	purple	turquoise	purple	left	right	0.7	0.30000000000000004	4	2	2.8	0.6000000000000001	1	0	0.7	0.30000000000000004	4	2	2.8	0.6000000000000001	valid	0.633183205001842	53248	0	1	2	51200	0	51200	0	51200	0	0.7	51200	turquoise	purple	1	0	ml	2.7.3	lorasick	sub-01_ses-01_task-ml_proj-lorasick_2020-10-16-15-04-50.717385
164	1	1	4	165	volatile	7	40	5	vs	purple	turquoise	turquoise	purple	right	left	0.7	0.30000000000000004	2	4	1.4	1.2000000000000002	1	0	0.30000000000000004	0.7	4	2	1.2000000000000002	1.4	valid	0.7997848220002197	51200	0	0	2	53248	0	53248	0	51200	1	0.7	53248	turquoise	purple	0	0	ml	2.7.3	lorasick	sub-01_ses-01_task-ml_proj-lorasick_2020-10-16-15-04-50.717385
165	1	1	4	166	volatile	7	40	6	vs	turquoise	purple	turquoise	purple	left	right	0.7	0.30000000000000004	10	2	7.0	0.6000000000000001	0	1	0.7	0.30000000000000004	10	2	7.0	0.6000000000000001	invalid	0.4498922820021107	51200	0	0	1	51200	1	51200	1	51200	1	0.7	51200	turquoise	purple	1	0	ml	2.7.3	lorasick	sub-01_ses-01_task-ml_proj-lorasick_2020-10-16-15-04-50.717385
166	1	1	4	167	volatile	7	40	7	vs	purple	turquoise	turquoise	purple	right	left	0.7	0.30000000000000004	2	2	1.4	0.6000000000000001	0	1	0.30000000000000004	0.7	2	2	0.6000000000000001	1.4	invalid	0.6498411100001249	53248	0	1	1	53248	1	53248	1	53248	1	0.7	53248	turquoise	purple	0	0	ml	2.7.3	lorasick	sub-01_ses-01_task-ml_proj-lorasick_2020-10-16-15-04-50.717385
167	1	1	4	168	volatile	7	40	8	vs	purple	turquoise	turquoise	purple	right	left	0.7	0.30000000000000004	10	2	7.0	0.6000000000000001	1	0	0.30000000000000004	0.7	2	10	0.6000000000000001	7.0	valid	0.5998572820026311	53248	0	1	1	53248	1	53248	1	53248	1	0.7	53248	turquoise	purple	1	10	ml	2.7.3	lorasick	sub-01_ses-01_task-ml_proj-lorasick_2020-10-16-15-04-50.717385
168	1	1	4	169	volatile	7	40	9	vs	turquoise	purple	turquoise	purple	left	right	0.7	0.30000000000000004	4	6	2.8	1.8000000000000005	0	1	0.7	0.30000000000000004	4	6	2.8	1.8000000000000005	invalid	0.6165136560011888	51200	0	0	1	51200	1	51200	1	53248	0	0.7	51200	turquoise	purple	0	0	ml	2.7.3	lorasick	sub-01_ses-01_task-ml_proj-lorasick_2020-10-16-15-04-50.717385
169	1	1	4	170	volatile	7	40	10	vs	turquoise	purple	turquoise	purple	left	right	0.7	0.30000000000000004	4	2	2.8	0.6000000000000001	1	0	0.7	0.30000000000000004	4	2	2.8	0.6000000000000001	valid	0.8997607940000307	51200	0	0	1	51200	1	51200	1	51200	1	0.7	51200	turquoise	purple	1	4	ml	2.7.3	lorasick	sub-01_ses-01_task-ml_proj-lorasick_2020-10-16-15-04-50.717385
170	1	1	4	171	volatile	7	40	11	vs	purple	turquoise	turquoise	purple	right	left	0.7	0.30000000000000004	4	6	2.8	1.8000000000000005	1	0	0.30000000000000004	0.7	6	4	1.8000000000000005	2.8	valid	0.4332406050016289	53248	0	1	1	53248	1	53248	1	51200	0	0.7	53248	turquoise	purple	0	4	ml	2.7.3	lorasick	sub-01_ses-01_task-ml_proj-lorasick_2020-10-16-15-04-50.717385
171	1	1	4	172	volatile	7	40	12	vs	purple	turquoise	turquoise	purple	right	left	0.7	0.30000000000000004	2	6	1.4	1.8000000000000005	1	0	0.30000000000000004	0.7	6	2	1.8000000000000005	1.4	valid	0.4665508519974537	53248	0	1	1	51200	0	53248	1	51200	0	0.7	53248	turquoise	purple	0	2	ml	2.7.3	lorasick	sub-01_ses-01_task-ml_proj-lorasick_2020-10-16-15-04-50.717385
172	1	1	4	173	volatile	7	40	13	vs	turquoise	purple	turquoise	purple	left	right	0.7	0.30000000000000004	6	6	4.199999999999998	1.8000000000000005	1	0	0.7	0.30000000000000004	6	6	4.199999999999998	1.8000000000000005	valid	0.4498948149994249	51200	0	0	1	51200	1	51200	1	53248	0	0.7	51200	turquoise	purple	1	6	ml	2.7.3	lorasick	sub-01_ses-01_task-ml_proj-lorasick_2020-10-16-15-04-50.717385
173	1	1	4	174	volatile	7	40	14	vs	purple	turquoise	turquoise	purple	right	left	0.7	0.30000000000000004	10	2	7.0	0.6000000000000001	1	0	0.30000000000000004	0.7	2	10	0.6000000000000001	7.0	valid	0.3832557660025486	53248	0	1	1	53248	1	53248	1	53248	1	0.7	53248	turquoise	purple	1	10	ml	2.7.3	lorasick	sub-01_ses-01_task-ml_proj-lorasick_2020-10-16-15-04-50.717385
174	1	1	4	175	volatile	7	40	15	vs	purple	turquoise	turquoise	purple	right	left	0.7	0.30000000000000004	6	4	4.199999999999998	1.2000000000000002	0	1	0.30000000000000004	0.7	4	6	1.2000000000000002	4.199999999999998	invalid	0.4165804299991578	53248	0	1	1	53248	1	53248	1	53248	1	0.7	53248	turquoise	purple	1	0	ml	2.7.3	lorasick	sub-01_ses-01_task-ml_proj-lorasick_2020-10-16-15-04-50.717385
175	1	1	4	176	volatile	7	40	16	vs	turquoise	purple	turquoise	purple	left	right	0.7	0.30000000000000004	2	6	1.4	1.8000000000000005	1	0	0.7	0.30000000000000004	2	6	1.4	1.8000000000000005	valid	0.8331099070019263	51200	0	0	1	53248	0	51200	1	53248	0	0.7	51200	turquoise	purple	0	2	ml	2.7.3	lorasick	sub-01_ses-01_task-ml_proj-lorasick_2020-10-16-15-04-50.717385
176	1	1	4	177	volatile	7	40	17	vs	purple	turquoise	turquoise	purple	right	left	0.7	0.30000000000000004	6	6	4.199999999999998	1.8000000000000005	0	1	0.30000000000000004	0.7	6	6	1.8000000000000005	4.199999999999998	invalid	0.383251384999312	53248	0	1	1	53248	1	53248	1	53248	1	0.7	53248	turquoise	purple	0	0	ml	2.7.3	lorasick	sub-01_ses-01_task-ml_proj-lorasick_2020-10-16-15-04-50.717385
177	1	1	4	178	volatile	7	40	18	vs	purple	turquoise	turquoise	purple	right	left	0.7	0.30000000000000004	6	2	4.199999999999998	0.6000000000000001	1	0	0.30000000000000004	0.7	2	6	0.6000000000000001	4.199999999999998	valid	0.3999130129996047	53248	0	1	1	53248	1	53248	1	53248	1	0.7	53248	turquoise	purple	1	6	ml	2.7.3	lorasick	sub-01_ses-01_task-ml_proj-lorasick_2020-10-16-15-04-50.717385
178	1	1	4	179	volatile	7	40	19	vs	purple	turquoise	turquoise	purple	right	left	0.7	0.30000000000000004	6	4	4.199999999999998	1.2000000000000002	1	0	0.30000000000000004	0.7	4	6	1.2000000000000002	4.199999999999998	valid	0.4332454940013122	53248	0	1	1	53248	1	53248	1	53248	1	0.7	53248	turquoise	purple	1	6	ml	2.7.3	lorasick	sub-01_ses-01_task-ml_proj-lorasick_2020-10-16-15-04-50.717385
179	1	1	4	180	volatile	7	40	20	vs	purple	turquoise	turquoise	purple	right	left	0.7	0.30000000000000004	4	6	2.8	1.8000000000000005	0	1	0.30000000000000004	0.7	6	4	1.8000000000000005	2.8	invalid	0.5332102520005719	53248	0	1	1	53248	1	53248	1	51200	0	0.7	53248	turquoise	purple	0	0	ml	2.7.3	lorasick	sub-01_ses-01_task-ml_proj-lorasick_2020-10-16-15-04-50.717385
180	1	1	4	181	volatile	7	40	21	vs	purple	turquoise	turquoise	purple	right	left	0.7	0.30000000000000004	6	6	4.199999999999998	1.8000000000000005	0	1	0.30000000000000004	0.7	6	6	1.8000000000000005	4.199999999999998	invalid	0.383252153002104	53248	0	1	1	53248	1	53248	1	53248	1	0.7	53248	turquoise	purple	0	0	ml	2.7.3	lorasick	sub-01_ses-01_task-ml_proj-lorasick_2020-10-16-15-04-50.717385
181	1	1	4	182	volatile	7	40	22	vs	purple	turquoise	turquoise	purple	right	left	0.7	0.30000000000000004	4	6	2.8	1.8000000000000005	1	0	0.30000000000000004	0.7	6	4	1.8000000000000005	2.8	valid	0.3332717099983711	53248	0	1	1	53248	1	53248	1	51200	0	0.7	53248	turquoise	purple	0	4	ml	2.7.3	lorasick	sub-01_ses-01_task-ml_proj-lorasick_2020-10-16-15-04-50.717385
182	1	1	4	183	volatile	7	40	23	vs	turquoise	purple	turquoise	purple	left	right	0.7	0.30000000000000004	6	6	4.199999999999998	1.8000000000000005	1	0	0.7	0.30000000000000004	6	6	4.199999999999998	1.8000000000000005	valid	0.6664907689992106	51200	0	0	1	51200	1	51200	1	53248	0	0.7	51200	turquoise	purple	1	6	ml	2.7.3	lorasick	sub-01_ses-01_task-ml_proj-lorasick_2020-10-16-15-04-50.717385
183	1	1	4	184	volatile	7	40	24	vs	purple	turquoise	turquoise	purple	right	left	0.7	0.30000000000000004	6	2	4.199999999999998	0.6000000000000001	1	0	0.30000000000000004	0.7	2	6	0.6000000000000001	4.199999999999998	valid	0.6331776999977592	53248	0	1	1	53248	1	53248	1	53248	1	0.7	53248	turquoise	purple	1	6	ml	2.7.3	lorasick	sub-01_ses-01_task-ml_proj-lorasick_2020-10-16-15-04-50.717385
184	1	1	4	185	volatile	7	40	25	vs	turquoise	purple	turquoise	purple	left	right	0.7	0.30000000000000004	2	2	1.4	0.6000000000000001	1	0	0.7	0.30000000000000004	2	2	1.4	0.6000000000000001	valid	0.5998486959979346	51200	0	0	1	51200	1	51200	1	53248	0	0.7	51200	turquoise	purple	1	2	ml	2.7.3	lorasick	sub-01_ses-01_task-ml_proj-lorasick_2020-10-16-15-04-50.717385
185	1	1	4	186	volatile	7	40	26	vs	turquoise	purple	turquoise	purple	left	right	0.7	0.30000000000000004	2	4	1.4	1.2000000000000002	0	1	0.7	0.30000000000000004	2	4	1.4	1.2000000000000002	invalid	0.4998804460010433	51200	0	0	1	51200	1	51200	1	53248	0	0.7	51200	turquoise	purple	0	0	ml	2.7.3	lorasick	sub-01_ses-01_task-ml_proj-lorasick_2020-10-16-15-04-50.717385
186	1	1	4	187	volatile	7	40	27	vs	purple	turquoise	turquoise	purple	right	left	0.7	0.30000000000000004	10	2	7.0	0.6000000000000001	0	1	0.30000000000000004	0.7	2	10	0.6000000000000001	7.0	invalid	0.6331792620003398	53248	0	1	1	53248	1	53248	1	53248	1	0.7	53248	turquoise	purple	1	0	ml	2.7.3	lorasick	sub-01_ses-01_task-ml_proj-lorasick_2020-10-16-15-04-50.717385
187	1	1	4	188	volatile	7	40	28	vs	turquoise	purple	turquoise	purple	left	right	0.7	0.30000000000000004	2	4	1.4	1.2000000000000002	1	0	0.7	0.30000000000000004	2	4	1.4	1.2000000000000002	valid	0.5498655129995313	51200	0	0	1	51200	1	51200	1	53248	0	0.7	51200	turquoise	purple	0	2	ml	2.7.3	lorasick	sub-01_ses-01_task-ml_proj-lorasick_2020-10-16-15-04-50.717385
188	1	1	4	189	volatile	7	40	29	vs	turquoise	purple	turquoise	purple	left	right	0.7	0.30000000000000004	6	2	4.199999999999998	0.6000000000000001	1	0	0.7	0.30000000000000004	6	2	4.199999999999998	0.6000000000000001	valid	0.5998445090008317	51200	0	0	1	51200	1	51200	1	51200	1	0.7	51200	turquoise	purple	1	6	ml	2.7.3	lorasick	sub-01_ses-01_task-ml_proj-lorasick_2020-10-16-15-04-50.717385
189	1	1	4	190	volatile	7	40	30	vs	turquoise	purple	turquoise	purple	left	right	0.7	0.30000000000000004	4	6	2.8	1.8000000000000005	1	0	0.7	0.30000000000000004	4	6	2.8	1.8000000000000005	valid	0.5831849189999048	51200	0	0	1	51200	1	51200	1	53248	0	0.7	51200	turquoise	purple	0	4	ml	2.7.3	lorasick	sub-01_ses-01_task-ml_proj-lorasick_2020-10-16-15-04-50.717385
190	1	1	4	191	volatile	7	40	31	vs	purple	turquoise	turquoise	purple	right	left	0.7	0.30000000000000004	2	4	1.4	1.2000000000000002	1	0	0.30000000000000004	0.7	4	2	1.2000000000000002	1.4	valid	0.44990539499849547	53248	0	1	1	53248	1	53248	1	51200	0	0.7	53248	turquoise	purple	0	2	ml	2.7.3	lorasick	sub-01_ses-01_task-ml_proj-lorasick_2020-10-16-15-04-50.717385
191	1	1	4	192	volatile	7	40	32	vs	turquoise	purple	turquoise	purple	left	right	0.7	0.30000000000000004	10	2	7.0	0.6000000000000001	1	0	0.7	0.30000000000000004	10	2	7.0	0.6000000000000001	valid	0.5665206579978985	51200	0	0	1	51200	1	51200	1	51200	1	0.7	51200	turquoise	purple	1	10	ml	2.7.3	lorasick	sub-01_ses-01_task-ml_proj-lorasick_2020-10-16-15-04-50.717385
192	1	1	4	193	volatile	7	40	33	vs	turquoise	purple	turquoise	purple	left	right	0.7	0.30000000000000004	6	2	4.199999999999998	0.6000000000000001	1	0	0.7	0.30000000000000004	6	2	4.199999999999998	0.6000000000000001	valid	0.6831539289996726	51200	0	0	1	51200	1	51200	1	51200	1	0.7	51200	turquoise	purple	1	6	ml	2.7.3	lorasick	sub-01_ses-01_task-ml_proj-lorasick_2020-10-16-15-04-50.717385
193	1	1	4	194	volatile	7	40	34	vs	purple	turquoise	turquoise	purple	right	left	0.7	0.30000000000000004	2	10	1.4	3.0000000000000004	1	0	0.30000000000000004	0.7	10	2	3.0000000000000004	1.4	valid	1.1996624659986992	51200	0	0	2	51200	1	53248	0	51200	1	0.7	53248	turquoise	purple	0	0	ml	2.7.3	lorasick	sub-01_ses-01_task-ml_proj-lorasick_2020-10-16-15-04-50.717385
194	1	1	4	195	volatile	7	40	35	vs	turquoise	purple	turquoise	purple	left	right	0.7	0.30000000000000004	10	2	7.0	0.6000000000000001	0	1	0.7	0.30000000000000004	10	2	7.0	0.6000000000000001	invalid	0.6664986939977098	51200	0	0	1	51200	1	51200	1	51200	1	0.7	51200	turquoise	purple	1	0	ml	2.7.3	lorasick	sub-01_ses-01_task-ml_proj-lorasick_2020-10-16-15-04-50.717385
195	1	1	4	196	volatile	7	40	36	vs	purple	turquoise	turquoise	purple	right	left	0.7	0.30000000000000004	10	2	7.0	0.6000000000000001	1	0	0.30000000000000004	0.7	2	10	0.6000000000000001	7.0	valid	0.7831384320015786	53248	0	1	1	53248	1	53248	1	53248	1	0.7	53248	turquoise	purple	1	10	ml	2.7.3	lorasick	sub-01_ses-01_task-ml_proj-lorasick_2020-10-16-15-04-50.717385
196	1	1	4	197	volatile	7	40	37	vs	turquoise	purple	turquoise	purple	left	right	0.7	0.30000000000000004	2	2	1.4	0.6000000000000001	0	1	0.7	0.30000000000000004	2	2	1.4	0.6000000000000001	invalid	0.5331920300013735	51200	0	0	1	51200	1	51200	1	53248	0	0.7	51200	turquoise	purple	1	0	ml	2.7.3	lorasick	sub-01_ses-01_task-ml_proj-lorasick_2020-10-16-15-04-50.717385
197	1	1	4	198	volatile	7	40	38	vs	purple	turquoise	turquoise	purple	right	left	0.7	0.30000000000000004	4	6	2.8	1.8000000000000005	1	0	0.30000000000000004	0.7	6	4	1.8000000000000005	2.8	valid	0.4665905759975431	53248	0	1	1	53248	1	53248	1	51200	0	0.7	53248	turquoise	purple	0	4	ml	2.7.3	lorasick	sub-01_ses-01_task-ml_proj-lorasick_2020-10-16-15-04-50.717385
198	1	1	4	199	volatile	7	40	39	vs	turquoise	purple	turquoise	purple	left	right	0.7	0.30000000000000004	6	2	4.199999999999998	0.6000000000000001	1	0	0.7	0.30000000000000004	6	2	4.199999999999998	0.6000000000000001	valid	0.5665238420006062	51200	0	0	1	51200	1	51200	1	51200	1	0.7	51200	turquoise	purple	1	6	ml	2.7.3	lorasick	sub-01_ses-01_task-ml_proj-lorasick_2020-10-16-15-04-50.717385
199	1	1	4	200	volatile	7	40	40	vs	purple	turquoise	turquoise	purple	right	left	0.7	0.30000000000000004	4	2	2.8	0.6000000000000001	1	0	0.30000000000000004	0.7	2	4	0.6000000000000001	2.8	valid	0.5998577840000507	53248	0	1	1	53248	1	53248	1	53248	1	0.7	53248	turquoise	purple	1	4	ml	2.7.3	lorasick	sub-01_ses-01_task-ml_proj-lorasick_2020-10-16-15-04-50.717385
200	1	1	5	201	stable	8	200	1	vs	purple	turquoise	turquoise	purple	right	left	0.30000000000000004	0.7	6	6	1.8000000000000005	4.199999999999998	0	1	0.7	0.30000000000000004	6	6	4.199999999999998	1.8000000000000005	valid	0.8164551519985253	53248	0	1	1	51200	0	51200	0	53248	1	0.7	51200	purple	turquoise	1	0	ml	2.7.3	lorasick	sub-01_ses-01_task-ml_proj-lorasick_2020-10-16-15-04-50.717385
201	1	1	5	202	stable	8	200	2	vs	turquoise	purple	turquoise	purple	left	right	0.30000000000000004	0.7	2	4	0.6000000000000001	2.8	0	1	0.30000000000000004	0.7	2	4	0.6000000000000001	2.8	valid	0.6165286870018463	53248	0	1	2	53248	1	53248	1	53248	1	0.7	53248	purple	turquoise	1	4	ml	2.7.3	lorasick	sub-01_ses-01_task-ml_proj-lorasick_2020-10-16-15-04-50.717385
202	1	1	5	203	stable	8	200	3	vs	turquoise	purple	turquoise	purple	left	right	0.30000000000000004	0.7	2	4	0.6000000000000001	2.8	0	1	0.30000000000000004	0.7	2	4	0.6000000000000001	2.8	valid	0.5998581879975973	53248	0	1	2	53248	1	53248	1	53248	1	0.7	53248	purple	turquoise	1	4	ml	2.7.3	lorasick	sub-01_ses-01_task-ml_proj-lorasick_2020-10-16-15-04-50.717385
203	1	1	5	204	stable	8	200	4	vs	purple	turquoise	turquoise	purple	right	left	0.30000000000000004	0.7	2	10	0.6000000000000001	7.0	0	1	0.7	0.30000000000000004	10	2	7.0	0.6000000000000001	valid	0.5998403029989277	51200	0	0	2	51200	1	51200	1	51200	1	0.7	51200	purple	turquoise	1	10	ml	2.7.3	lorasick	sub-01_ses-01_task-ml_proj-lorasick_2020-10-16-15-04-50.717385
204	1	1	5	205	stable	8	200	5	vs	turquoise	purple	turquoise	purple	left	right	0.30000000000000004	0.7	2	10	0.6000000000000001	7.0	0	1	0.30000000000000004	0.7	2	10	0.6000000000000001	7.0	valid	0.43324066100103664	53248	0	1	2	53248	1	53248	1	53248	1	0.7	53248	purple	turquoise	1	10	ml	2.7.3	lorasick	sub-01_ses-01_task-ml_proj-lorasick_2020-10-16-15-04-50.717385
205	1	1	5	206	stable	8	200	6	vs	purple	turquoise	turquoise	purple	right	left	0.30000000000000004	0.7	2	6	0.6000000000000001	4.199999999999998	0	1	0.7	0.30000000000000004	6	2	4.199999999999998	0.6000000000000001	valid	0.5165380849975918	51200	0	0	2	51200	1	51200	1	51200	1	0.7	51200	purple	turquoise	1	6	ml	2.7.3	lorasick	sub-01_ses-01_task-ml_proj-lorasick_2020-10-16-15-04-50.717385
206	1	1	5	207	stable	8	200	7	vs	turquoise	purple	turquoise	purple	left	right	0.30000000000000004	0.7	2	10	0.6000000000000001	7.0	0	1	0.30000000000000004	0.7	2	10	0.6000000000000001	7.0	valid	0.4998792679980397	53248	0	1	2	53248	1	53248	1	53248	1	0.7	53248	purple	turquoise	1	10	ml	2.7.3	lorasick	sub-01_ses-01_task-ml_proj-lorasick_2020-10-16-15-04-50.717385
207	1	1	5	208	stable	8	200	8	vs	turquoise	purple	turquoise	purple	left	right	0.30000000000000004	0.7	6	6	1.8000000000000005	4.199999999999998	1	0	0.30000000000000004	0.7	6	6	1.8000000000000005	4.199999999999998	invalid	0.5831918980002229	53248	0	1	2	53248	1	53248	1	53248	1	0.7	53248	purple	turquoise	0	0	ml	2.7.3	lorasick	sub-01_ses-01_task-ml_proj-lorasick_2020-10-16-15-04-50.717385
208	1	1	5	209	stable	8	200	9	vs	turquoise	purple	turquoise	purple	left	right	0.30000000000000004	0.7	6	4	1.8000000000000005	2.8	0	1	0.30000000000000004	0.7	6	4	1.8000000000000005	2.8	valid	0.4998844420006208	53248	0	1	2	53248	1	53248	1	51200	0	0.7	53248	purple	turquoise	0	4	ml	2.7.3	lorasick	sub-01_ses-01_task-ml_proj-lorasick_2020-10-16-15-04-50.717385
209	1	1	5	210	stable	8	200	10	vs	purple	turquoise	turquoise	purple	right	left	0.30000000000000004	0.7	2	2	0.6000000000000001	1.4	1	0	0.7	0.30000000000000004	2	2	1.4	0.6000000000000001	invalid	0.5332088730028772	53248	0	1	1	51200	0	51200	0	53248	1	0.7	51200	purple	turquoise	1	2	ml	2.7.3	lorasick	sub-01_ses-01_task-ml_proj-lorasick_2020-10-16-15-04-50.717385
210	1	1	5	211	stable	8	200	11	vs	turquoise	purple	turquoise	purple	left	right	0.30000000000000004	0.7	6	6	1.8000000000000005	4.199999999999998	0	1	0.30000000000000004	0.7	6	6	1.8000000000000005	4.199999999999998	valid	0.4332413240008464	53248	0	1	2	53248	1	53248	1	53248	1	0.7	53248	purple	turquoise	0	6	ml	2.7.3	lorasick	sub-01_ses-01_task-ml_proj-lorasick_2020-10-16-15-04-50.717385
211	1	1	5	212	stable	8	200	12	vs	turquoise	purple	turquoise	purple	left	right	0.30000000000000004	0.7	2	10	0.6000000000000001	7.0	0	1	0.30000000000000004	0.7	2	10	0.6000000000000001	7.0	valid	0.4499005879988545	53248	0	1	2	53248	1	53248	1	53248	1	0.7	53248	purple	turquoise	1	10	ml	2.7.3	lorasick	sub-01_ses-01_task-ml_proj-lorasick_2020-10-16-15-04-50.717385
212	1	1	5	213	stable	8	200	13	vs	purple	turquoise	turquoise	purple	right	left	0.30000000000000004	0.7	6	4	1.8000000000000005	2.8	1	0	0.7	0.30000000000000004	4	6	2.8	1.8000000000000005	invalid	0.499886718000198	53248	0	1	1	51200	0	51200	0	53248	1	0.7	51200	purple	turquoise	0	6	ml	2.7.3	lorasick	sub-01_ses-01_task-ml_proj-lorasick_2020-10-16-15-04-50.717385
213	1	1	5	214	stable	8	200	14	vs	purple	turquoise	turquoise	purple	right	left	0.30000000000000004	0.7	10	2	3.0000000000000004	1.4	0	1	0.7	0.30000000000000004	2	10	1.4	3.0000000000000004	valid	0.7164873740002804	53248	0	1	1	53248	1	51200	0	53248	1	0.7	51200	purple	turquoise	0	0	ml	2.7.3	lorasick	sub-01_ses-01_task-ml_proj-lorasick_2020-10-16-15-04-50.717385
214	1	1	5	215	stable	8	200	15	vs	purple	turquoise	turquoise	purple	right	left	0.30000000000000004	0.7	6	4	1.8000000000000005	2.8	0	1	0.7	0.30000000000000004	4	6	2.8	1.8000000000000005	valid	0.6331707959980122	51200	0	0	2	51200	1	51200	1	53248	0	0.7	51200	purple	turquoise	0	4	ml	2.7.3	lorasick	sub-01_ses-01_task-ml_proj-lorasick_2020-10-16-15-04-50.717385
215	1	1	5	216	stable	8	200	16	vs	purple	turquoise	turquoise	purple	right	left	0.30000000000000004	0.7	4	6	1.2000000000000002	4.199999999999998	1	0	0.7	0.30000000000000004	6	4	4.199999999999998	1.2000000000000002	invalid	0.5332026479991328	51200	0	0	2	51200	1	51200	1	51200	1	0.7	51200	purple	turquoise	1	0	ml	2.7.3	lorasick	sub-01_ses-01_task-ml_proj-lorasick_2020-10-16-15-04-50.717385
216	1	1	5	217	stable	8	200	17	vs	turquoise	purple	turquoise	purple	left	right	0.30000000000000004	0.7	2	2	0.6000000000000001	1.4	1	0	0.30000000000000004	0.7	2	2	0.6000000000000001	1.4	invalid	0.4165787790007016	53248	0	1	2	53248	1	53248	1	53248	1	0.7	53248	purple	turquoise	0	0	ml	2.7.3	lorasick	sub-01_ses-01_task-ml_proj-lorasick_2020-10-16-15-04-50.717385
217	1	1	5	218	stable	8	200	18	vs	turquoise	purple	turquoise	purple	left	right	0.30000000000000004	0.7	4	6	1.2000000000000002	4.199999999999998	0	1	0.30000000000000004	0.7	4	6	1.2000000000000002	4.199999999999998	valid	0.41657518899955903	53248	0	1	2	53248	1	53248	1	53248	1	0.7	53248	purple	turquoise	1	6	ml	2.7.3	lorasick	sub-01_ses-01_task-ml_proj-lorasick_2020-10-16-15-04-50.717385
218	1	1	5	219	stable	8	200	19	vs	purple	turquoise	turquoise	purple	right	left	0.30000000000000004	0.7	4	6	1.2000000000000002	4.199999999999998	0	1	0.7	0.30000000000000004	6	4	4.199999999999998	1.2000000000000002	valid	0.5165445330021612	51200	0	0	2	51200	1	51200	1	51200	1	0.7	51200	purple	turquoise	1	6	ml	2.7.3	lorasick	sub-01_ses-01_task-ml_proj-lorasick_2020-10-16-15-04-50.717385
219	1	1	5	220	stable	8	200	20	vs	purple	turquoise	turquoise	purple	right	left	0.30000000000000004	0.7	6	2	1.8000000000000005	1.4	1	0	0.7	0.30000000000000004	2	6	1.4	1.8000000000000005	invalid	0.7498009560003993	51200	0	0	2	53248	0	51200	1	53248	0	0.7	51200	purple	turquoise	0	0	ml	2.7.3	lorasick	sub-01_ses-01_task-ml_proj-lorasick_2020-10-16-15-04-50.717385
220	1	1	5	221	stable	8	200	21	vs	purple	turquoise	turquoise	purple	right	left	0.30000000000000004	0.7	2	4	0.6000000000000001	2.8	1	0	0.7	0.30000000000000004	4	2	2.8	0.6000000000000001	invalid	0.5998453380016144	51200	0	0	2	51200	1	51200	1	51200	1	0.7	51200	purple	turquoise	1	0	ml	2.7.3	lorasick	sub-01_ses-01_task-ml_proj-lorasick_2020-10-16-15-04-50.717385
221	1	1	5	222	stable	8	200	22	vs	purple	turquoise	turquoise	purple	right	left	0.30000000000000004	0.7	4	2	1.2000000000000002	1.4	0	1	0.7	0.30000000000000004	2	4	1.4	1.2000000000000002	valid	0.5831847289991856	51200	0	0	2	51200	1	51200	1	53248	0	0.7	51200	purple	turquoise	0	2	ml	2.7.3	lorasick	sub-01_ses-01_task-ml_proj-lorasick_2020-10-16-15-04-50.717385
222	1	1	5	223	stable	8	200	23	vs	turquoise	purple	turquoise	purple	left	right	0.30000000000000004	0.7	4	6	1.2000000000000002	4.199999999999998	0	1	0.30000000000000004	0.7	4	6	1.2000000000000002	4.199999999999998	valid	0.34993309900164604	53248	0	1	2	53248	1	53248	1	53248	1	0.7	53248	purple	turquoise	1	6	ml	2.7.3	lorasick	sub-01_ses-01_task-ml_proj-lorasick_2020-10-16-15-04-50.717385
223	1	1	5	224	stable	8	200	24	vs	purple	turquoise	turquoise	purple	right	left	0.30000000000000004	0.7	2	6	0.6000000000000001	4.199999999999998	0	1	0.7	0.30000000000000004	6	2	4.199999999999998	0.6000000000000001	valid	0.4832131260009192	51200	0	0	2	51200	1	51200	1	51200	1	0.7	51200	purple	turquoise	1	6	ml	2.7.3	lorasick	sub-01_ses-01_task-ml_proj-lorasick_2020-10-16-15-04-50.717385
224	1	1	5	225	stable	8	200	25	vs	purple	turquoise	turquoise	purple	right	left	0.30000000000000004	0.7	4	2	1.2000000000000002	1.4	1	0	0.7	0.30000000000000004	2	4	1.4	1.2000000000000002	invalid	0.7331388240017986	51200	0	0	2	51200	1	51200	1	53248	0	0.7	51200	purple	turquoise	0	0	ml	2.7.3	lorasick	sub-01_ses-01_task-ml_proj-lorasick_2020-10-16-15-04-50.717385
225	1	1	5	226	stable	8	200	26	vs	purple	turquoise	turquoise	purple	right	left	0.30000000000000004	0.7	6	6	1.8000000000000005	4.199999999999998	0	1	0.7	0.30000000000000004	6	6	4.199999999999998	1.8000000000000005	valid	0.4832143580024422	51200	0	0	2	51200	1	51200	1	53248	0	0.7	51200	purple	turquoise	1	6	ml	2.7.3	lorasick	sub-01_ses-01_task-ml_proj-lorasick_2020-10-16-15-04-50.717385
226	1	1	5	227	stable	8	200	27	vs	purple	turquoise	turquoise	purple	right	left	0.30000000000000004	0.7	2	6	0.6000000000000001	4.199999999999998	0	1	0.7	0.30000000000000004	6	2	4.199999999999998	0.6000000000000001	valid	0.6331701400013117	51200	0	0	2	51200	1	51200	1	51200	1	0.7	51200	purple	turquoise	1	6	ml	2.7.3	lorasick	sub-01_ses-01_task-ml_proj-lorasick_2020-10-16-15-04-50.717385
227	1	1	5	228	stable	8	200	28	vs	purple	turquoise	turquoise	purple	right	left	0.30000000000000004	0.7	2	4	0.6000000000000001	2.8	0	1	0.7	0.30000000000000004	4	2	2.8	0.6000000000000001	valid	0.583186054998805	51200	0	0	2	51200	1	51200	1	51200	1	0.7	51200	purple	turquoise	1	4	ml	2.7.3	lorasick	sub-01_ses-01_task-ml_proj-lorasick_2020-10-16-15-04-50.717385
228	1	1	5	229	stable	8	200	29	vs	purple	turquoise	turquoise	purple	right	left	0.30000000000000004	0.7	4	2	1.2000000000000002	1.4	0	1	0.7	0.30000000000000004	2	4	1.4	1.2000000000000002	valid	0.466554177000944	51200	0	0	2	51200	1	51200	1	53248	0	0.7	51200	purple	turquoise	0	2	ml	2.7.3	lorasick	sub-01_ses-01_task-ml_proj-lorasick_2020-10-16-15-04-50.717385
229	1	1	5	230	stable	8	200	30	vs	turquoise	purple	turquoise	purple	left	right	0.30000000000000004	0.7	6	6	1.8000000000000005	4.199999999999998	0	1	0.30000000000000004	0.7	6	6	1.8000000000000005	4.199999999999998	valid	0.5165483979981218	53248	0	1	2	53248	1	53248	1	53248	1	0.7	53248	purple	turquoise	0	6	ml	2.7.3	lorasick	sub-01_ses-01_task-ml_proj-lorasick_2020-10-16-15-04-50.717385
230	1	1	5	231	stable	8	200	31	vs	turquoise	purple	turquoise	purple	left	right	0.30000000000000004	0.7	6	6	1.8000000000000005	4.199999999999998	0	1	0.30000000000000004	0.7	6	6	1.8000000000000005	4.199999999999998	valid	0.49989067700153095	53248	0	1	2	53248	1	53248	1	53248	1	0.7	53248	purple	turquoise	0	6	ml	2.7.3	lorasick	sub-01_ses-01_task-ml_proj-lorasick_2020-10-16-15-04-50.717385
231	1	1	5	232	stable	8	200	32	vs	turquoise	purple	turquoise	purple	left	right	0.30000000000000004	0.7	2	2	0.6000000000000001	1.4	0	1	0.30000000000000004	0.7	2	2	0.6000000000000001	1.4	valid	0.3999160819985264	53248	0	1	2	53248	1	53248	1	53248	1	0.7	53248	purple	turquoise	0	2	ml	2.7.3	lorasick	sub-01_ses-01_task-ml_proj-lorasick_2020-10-16-15-04-50.717385
232	1	1	5	233	stable	8	200	33	vs	purple	turquoise	turquoise	purple	right	left	0.30000000000000004	0.7	6	6	1.8000000000000005	4.199999999999998	0	1	0.7	0.30000000000000004	6	6	4.199999999999998	1.8000000000000005	valid	0.4832122230000096	51200	0	0	2	51200	1	51200	1	53248	0	0.7	51200	purple	turquoise	1	6	ml	2.7.3	lorasick	sub-01_ses-01_task-ml_proj-lorasick_2020-10-16-15-04-50.717385
233	1	1	5	234	stable	8	200	34	vs	turquoise	purple	turquoise	purple	left	right	0.30000000000000004	0.7	2	10	0.6000000000000001	7.0	1	0	0.30000000000000004	0.7	2	10	0.6000000000000001	7.0	invalid	0.6665052930002275	53248	0	1	2	53248	1	53248	1	53248	1	0.7	53248	purple	turquoise	1	0	ml	2.7.3	lorasick	sub-01_ses-01_task-ml_proj-lorasick_2020-10-16-15-04-50.717385
234	1	1	5	235	stable	8	200	35	vs	turquoise	purple	turquoise	purple	left	right	0.30000000000000004	0.7	4	6	1.2000000000000002	4.199999999999998	1	0	0.30000000000000004	0.7	4	6	1.2000000000000002	4.199999999999998	invalid	0.6165089019996229	53248	0	1	2	53248	1	53248	1	53248	1	0.7	53248	purple	turquoise	1	0	ml	2.7.3	lorasick	sub-01_ses-01_task-ml_proj-lorasick_2020-10-16-15-04-50.717385
235	1	1	5	236	stable	8	200	36	vs	purple	turquoise	turquoise	purple	right	left	0.30000000000000004	0.7	2	2	0.6000000000000001	1.4	0	1	0.7	0.30000000000000004	2	2	1.4	0.6000000000000001	valid	0.5332106710011429	53248	0	1	1	51200	0	51200	0	53248	1	0.7	51200	purple	turquoise	1	0	ml	2.7.3	lorasick	sub-01_ses-01_task-ml_proj-lorasick_2020-10-16-15-04-50.717385
236	1	1	5	237	stable	8	200	37	vs	turquoise	purple	turquoise	purple	left	right	0.30000000000000004	0.7	2	2	0.6000000000000001	1.4	0	1	0.30000000000000004	0.7	2	2	0.6000000000000001	1.4	valid	0.4332309219971648	51200	0	0	1	53248	0	53248	0	53248	0	0.7	53248	purple	turquoise	0	0	ml	2.7.3	lorasick	sub-01_ses-01_task-ml_proj-lorasick_2020-10-16-15-04-50.717385
237	1	1	5	238	stable	8	200	38	vs	turquoise	purple	turquoise	purple	left	right	0.30000000000000004	0.7	2	10	0.6000000000000001	7.0	0	1	0.30000000000000004	0.7	2	10	0.6000000000000001	7.0	valid	0.3499303960015823	53248	0	1	2	53248	1	53248	1	53248	1	0.7	53248	purple	turquoise	1	10	ml	2.7.3	lorasick	sub-01_ses-01_task-ml_proj-lorasick_2020-10-16-15-04-50.717385
238	1	1	5	239	stable	8	200	39	vs	purple	turquoise	turquoise	purple	right	left	0.30000000000000004	0.7	2	6	0.6000000000000001	4.199999999999998	1	0	0.7	0.30000000000000004	6	2	4.199999999999998	0.6000000000000001	invalid	0.4332307429976936	51200	0	0	2	51200	1	51200	1	51200	1	0.7	51200	purple	turquoise	1	0	ml	2.7.3	lorasick	sub-01_ses-01_task-ml_proj-lorasick_2020-10-16-15-04-50.717385
239	1	1	5	240	stable	8	200	40	vs	turquoise	purple	turquoise	purple	left	right	0.30000000000000004	0.7	6	2	1.8000000000000005	1.4	0	1	0.30000000000000004	0.7	6	2	1.8000000000000005	1.4	valid	0.5665294259997609	53248	0	1	2	51200	0	53248	1	51200	0	0.7	53248	purple	turquoise	0	2	ml	2.7.3	lorasick	sub-01_ses-01_task-ml_proj-lorasick_2020-10-16-15-04-50.717385
240	1	1	5	241	stable	8	200	41	vs	purple	turquoise	turquoise	purple	right	left	0.30000000000000004	0.7	6	6	1.8000000000000005	4.199999999999998	0	1	0.7	0.30000000000000004	6	6	4.199999999999998	1.8000000000000005	valid	0.6331789089999802	53248	0	1	1	51200	0	51200	0	53248	1	0.7	51200	purple	turquoise	1	0	ml	2.7.3	lorasick	sub-01_ses-01_task-ml_proj-lorasick_2020-10-16-15-04-50.717385
241	1	1	5	242	stable	8	200	42	vs	turquoise	purple	turquoise	purple	left	right	0.30000000000000004	0.7	2	6	0.6000000000000001	4.199999999999998	1	0	0.30000000000000004	0.7	2	6	0.6000000000000001	4.199999999999998	invalid	0.5332129490016086	53248	0	1	2	53248	1	53248	1	53248	1	0.7	53248	purple	turquoise	1	0	ml	2.7.3	lorasick	sub-01_ses-01_task-ml_proj-lorasick_2020-10-16-15-04-50.717385
242	1	1	5	243	stable	8	200	43	vs	turquoise	purple	turquoise	purple	left	right	0.30000000000000004	0.7	10	2	3.0000000000000004	1.4	0	1	0.30000000000000004	0.7	10	2	3.0000000000000004	1.4	valid	0.7997857880000083	51200	0	0	1	51200	1	53248	0	51200	1	0.7	53248	purple	turquoise	0	0	ml	2.7.3	lorasick	sub-01_ses-01_task-ml_proj-lorasick_2020-10-16-15-04-50.717385
243	1	1	5	244	stable	8	200	44	vs	purple	turquoise	turquoise	purple	right	left	0.30000000000000004	0.7	4	6	1.2000000000000002	4.199999999999998	0	1	0.7	0.30000000000000004	6	4	4.199999999999998	1.2000000000000002	valid	0.6665169190018787	51200	0	0	2	51200	1	51200	1	51200	1	0.7	51200	purple	turquoise	1	6	ml	2.7.3	lorasick	sub-01_ses-01_task-ml_proj-lorasick_2020-10-16-15-04-50.717385
244	1	1	5	245	stable	8	200	45	vs	purple	turquoise	turquoise	purple	right	left	0.30000000000000004	0.7	10	2	3.0000000000000004	1.4	0	1	0.7	0.30000000000000004	2	10	1.4	3.0000000000000004	valid	0.6165082530023938	51200	0	0	2	53248	0	51200	1	53248	0	0.7	51200	purple	turquoise	0	2	ml	2.7.3	lorasick	sub-01_ses-01_task-ml_proj-lorasick_2020-10-16-15-04-50.717385
245	1	1	5	246	stable	8	200	46	vs	purple	turquoise	turquoise	purple	right	left	0.30000000000000004	0.7	2	6	0.6000000000000001	4.199999999999998	0	1	0.7	0.30000000000000004	6	2	4.199999999999998	0.6000000000000001	valid	0.5665305059992534	51200	0	0	2	51200	1	51200	1	51200	1	0.7	51200	purple	turquoise	1	6	ml	2.7.3	lorasick	sub-01_ses-01_task-ml_proj-lorasick_2020-10-16-15-04-50.717385
246	1	1	5	247	stable	8	200	47	vs	turquoise	purple	turquoise	purple	left	right	0.30000000000000004	0.7	2	2	0.6000000000000001	1.4	0	1	0.30000000000000004	0.7	2	2	0.6000000000000001	1.4	valid	0.6165169589985453	53248	0	1	2	53248	1	53248	1	53248	1	0.7	53248	purple	turquoise	0	2	ml	2.7.3	lorasick	sub-01_ses-01_task-ml_proj-lorasick_2020-10-16-15-04-50.717385
247	1	1	5	248	stable	8	200	48	vs	turquoise	purple	turquoise	purple	left	right	0.30000000000000004	0.7	6	4	1.8000000000000005	2.8	0	1	0.30000000000000004	0.7	6	4	1.8000000000000005	2.8	valid	0.5665256689972011	53248	0	1	2	53248	1	53248	1	51200	0	0.7	53248	purple	turquoise	0	4	ml	2.7.3	lorasick	sub-01_ses-01_task-ml_proj-lorasick_2020-10-16-15-04-50.717385
248	1	1	5	249	stable	8	200	49	vs	purple	turquoise	turquoise	purple	right	left	0.30000000000000004	0.7	6	4	1.8000000000000005	2.8	0	1	0.7	0.30000000000000004	4	6	2.8	1.8000000000000005	valid	1.0663740409981983	51200	0	0	2	51200	1	51200	1	53248	0	0.7	51200	purple	turquoise	0	4	ml	2.7.3	lorasick	sub-01_ses-01_task-ml_proj-lorasick_2020-10-16-15-04-50.717385
249	1	1	5	250	stable	8	200	50	vs	turquoise	purple	turquoise	purple	left	right	0.30000000000000004	0.7	4	6	1.2000000000000002	4.199999999999998	0	1	0.30000000000000004	0.7	4	6	1.2000000000000002	4.199999999999998	valid	0.5332121390019893	53248	0	1	2	53248	1	53248	1	53248	1	0.7	53248	purple	turquoise	1	6	ml	2.7.3	lorasick	sub-01_ses-01_task-ml_proj-lorasick_2020-10-16-15-04-50.717385
250	1	1	6	251	stable	8	200	51	vs	turquoise	purple	turquoise	purple	left	right	0.30000000000000004	0.7	6	4	1.8000000000000005	2.8	1	0	0.30000000000000004	0.7	6	4	1.8000000000000005	2.8	invalid	0.5831957630034594	53248	0	1	2	53248	1	53248	1	51200	0	0.7	53248	purple	turquoise	0	0	ml	2.7.3	lorasick	sub-01_ses-01_task-ml_proj-lorasick_2020-10-16-15-04-50.717385
251	1	1	6	252	stable	8	200	52	vs	purple	turquoise	turquoise	purple	right	left	0.30000000000000004	0.7	6	2	1.8000000000000005	1.4	0	1	0.7	0.30000000000000004	2	6	1.4	1.8000000000000005	valid	0.5998543800014886	53248	0	1	1	53248	1	51200	0	53248	1	0.7	51200	purple	turquoise	0	0	ml	2.7.3	lorasick	sub-01_ses-01_task-ml_proj-lorasick_2020-10-16-15-04-50.717385
252	1	1	6	253	stable	8	200	53	vs	turquoise	purple	turquoise	purple	left	right	0.30000000000000004	0.7	2	2	0.6000000000000001	1.4	1	0	0.30000000000000004	0.7	2	2	0.6000000000000001	1.4	invalid	0.4332443599996623	53248	0	1	2	53248	1	53248	1	53248	1	0.7	53248	purple	turquoise	0	0	ml	2.7.3	lorasick	sub-01_ses-01_task-ml_proj-lorasick_2020-10-16-15-04-50.717385
253	1	1	6	254	stable	8	200	54	vs	turquoise	purple	turquoise	purple	left	right	0.30000000000000004	0.7	4	2	1.2000000000000002	1.4	0	1	0.30000000000000004	0.7	4	2	1.2000000000000002	1.4	valid	0.4165779709983326	53248	0	1	2	53248	1	53248	1	51200	0	0.7	53248	purple	turquoise	0	2	ml	2.7.3	lorasick	sub-01_ses-01_task-ml_proj-lorasick_2020-10-16-15-04-50.717385
254	1	1	6	255	stable	8	200	55	vs	purple	turquoise	turquoise	purple	right	left	0.30000000000000004	0.7	2	10	0.6000000000000001	7.0	1	0	0.7	0.30000000000000004	10	2	7.0	0.6000000000000001	invalid	0.5165363909982261	51200	0	0	2	51200	1	51200	1	51200	1	0.7	51200	purple	turquoise	1	0	ml	2.7.3	lorasick	sub-01_ses-01_task-ml_proj-lorasick_2020-10-16-15-04-50.717385
255	1	1	6	256	stable	8	200	56	vs	turquoise	purple	turquoise	purple	left	right	0.30000000000000004	0.7	2	10	0.6000000000000001	7.0	1	0	0.30000000000000004	0.7	2	10	0.6000000000000001	7.0	invalid	0.3499315700028092	53248	0	1	2	53248	1	53248	1	53248	1	0.7	53248	purple	turquoise	1	0	ml	2.7.3	lorasick	sub-01_ses-01_task-ml_proj-lorasick_2020-10-16-15-04-50.717385
256	1	1	6	257	stable	8	200	57	vs	purple	turquoise	turquoise	purple	right	left	0.30000000000000004	0.7	10	2	3.0000000000000004	1.4	0	1	0.7	0.30000000000000004	2	10	1.4	3.0000000000000004	valid	0.4332418209996831	53248	0	1	1	53248	1	51200	0	53248	1	0.7	51200	purple	turquoise	0	0	ml	2.7.3	lorasick	sub-01_ses-01_task-ml_proj-lorasick_2020-10-16-15-04-50.717385
257	1	1	6	258	stable	8	200	58	vs	purple	turquoise	turquoise	purple	right	left	0.30000000000000004	0.7	2	6	0.6000000000000001	4.199999999999998	1	0	0.7	0.30000000000000004	6	2	4.199999999999998	0.6000000000000001	invalid	0.5165477710033883	53248	0	1	1	51200	0	51200	0	51200	0	0.7	51200	purple	turquoise	1	2	ml	2.7.3	lorasick	sub-01_ses-01_task-ml_proj-lorasick_2020-10-16-15-04-50.717385
258	1	1	6	259	stable	8	200	59	vs	turquoise	purple	turquoise	purple	left	right	0.30000000000000004	0.7	6	6	1.8000000000000005	4.199999999999998	0	1	0.30000000000000004	0.7	6	6	1.8000000000000005	4.199999999999998	valid	0.3999079850000271	51200	0	0	1	53248	0	53248	0	53248	0	0.7	53248	purple	turquoise	0	0	ml	2.7.3	lorasick	sub-01_ses-01_task-ml_proj-lorasick_2020-10-16-15-04-50.717385
259	1	1	6	260	stable	8	200	60	vs	turquoise	purple	turquoise	purple	left	right	0.30000000000000004	0.7	2	4	0.6000000000000001	2.8	0	1	0.30000000000000004	0.7	2	4	0.6000000000000001	2.8	valid	0.4998764419979125	51200	0	0	1	53248	0	53248	0	53248	0	0.7	53248	purple	turquoise	1	0	ml	2.7.3	lorasick	sub-01_ses-01_task-ml_proj-lorasick_2020-10-16-15-04-50.717385
260	1	1	6	261	stable	8	200	61	vs	purple	turquoise	turquoise	purple	right	left	0.30000000000000004	0.7	6	4	1.8000000000000005	2.8	0	1	0.7	0.30000000000000004	4	6	2.8	1.8000000000000005	valid	0.5665352319992962	53248	0	1	1	51200	0	51200	0	53248	1	0.7	51200	purple	turquoise	0	0	ml	2.7.3	lorasick	sub-01_ses-01_task-ml_proj-lorasick_2020-10-16-15-04-50.717385
261	1	1	6	262	stable	8	200	62	vs	purple	turquoise	turquoise	purple	right	left	0.30000000000000004	0.7	4	2	1.2000000000000002	1.4	0	1	0.7	0.30000000000000004	2	4	1.4	1.2000000000000002	valid	0.5665231380007754	51200	0	0	2	51200	1	51200	1	53248	0	0.7	51200	purple	turquoise	0	2	ml	2.7.3	lorasick	sub-01_ses-01_task-ml_proj-lorasick_2020-10-16-15-04-50.717385
262	1	1	6	263	stable	8	200	63	vs	purple	turquoise	turquoise	purple	right	left	0.30000000000000004	0.7	2	2	0.6000000000000001	1.4	0	1	0.7	0.30000000000000004	2	2	1.4	0.6000000000000001	valid	0.483210517999396	51200	0	0	2	51200	1	51200	1	53248	0	0.7	51200	purple	turquoise	1	2	ml	2.7.3	lorasick	sub-01_ses-01_task-ml_proj-lorasick_2020-10-16-15-04-50.717385
263	1	1	6	264	stable	8	200	64	vs	purple	turquoise	turquoise	purple	right	left	0.30000000000000004	0.7	10	2	3.0000000000000004	1.4	0	1	0.7	0.30000000000000004	2	10	1.4	3.0000000000000004	valid	0.6331608139989839	51200	0	0	2	53248	0	51200	1	53248	0	0.7	51200	purple	turquoise	0	2	ml	2.7.3	lorasick	sub-01_ses-01_task-ml_proj-lorasick_2020-10-16-15-04-50.717385
264	1	1	6	265	stable	8	200	65	vs	turquoise	purple	turquoise	purple	left	right	0.30000000000000004	0.7	2	6	0.6000000000000001	4.199999999999998	1	0	0.30000000000000004	0.7	2	6	0.6000000000000001	4.199999999999998	invalid	0.33327085500059184	53248	0	1	2	53248	1	53248	1	53248	1	0.7	53248	purple	turquoise	1	0	ml	2.7.3	lorasick	sub-01_ses-01_task-ml_proj-lorasick_2020-10-16-15-04-50.717385
265	1	1	6	266	stable	8	200	66	vs	turquoise	purple	turquoise	purple	left	right	0.30000000000000004	0.7	4	6	1.2000000000000002	4.199999999999998	1	0	0.30000000000000004	0.7	4	6	1.2000000000000002	4.199999999999998	invalid	0.4332405929999368	53248	0	1	2	53248	1	53248	1	53248	1	0.7	53248	purple	turquoise	1	0	ml	2.7.3	lorasick	sub-01_ses-01_task-ml_proj-lorasick_2020-10-16-15-04-50.717385
266	1	1	6	267	stable	8	200	67	vs	purple	turquoise	turquoise	purple	right	left	0.30000000000000004	0.7	4	6	1.2000000000000002	4.199999999999998	0	1	0.7	0.30000000000000004	6	4	4.199999999999998	1.2000000000000002	valid	0.4499009819992352	53248	0	1	1	51200	0	51200	0	51200	0	0.7	51200	purple	turquoise	1	0	ml	2.7.3	lorasick	sub-01_ses-01_task-ml_proj-lorasick_2020-10-16-15-04-50.717385
267	1	1	6	268	stable	8	200	68	vs	turquoise	purple	turquoise	purple	left	right	0.30000000000000004	0.7	4	6	1.2000000000000002	4.199999999999998	0	1	0.30000000000000004	0.7	4	6	1.2000000000000002	4.199999999999998	valid	0.4665518250003515	51200	0	0	1	53248	0	53248	0	53248	0	0.7	53248	purple	turquoise	1	0	ml	2.7.3	lorasick	sub-01_ses-01_task-ml_proj-lorasick_2020-10-16-15-04-50.717385
268	1	1	6	269	stable	8	200	69	vs	turquoise	purple	turquoise	purple	left	right	0.30000000000000004	0.7	2	6	0.6000000000000001	4.199999999999998	0	1	0.30000000000000004	0.7	2	6	0.6000000000000001	4.199999999999998	valid	0.6165187169972342	53248	0	1	2	53248	1	53248	1	53248	1	0.7	53248	purple	turquoise	1	6	ml	2.7.3	lorasick	sub-01_ses-01_task-ml_proj-lorasick_2020-10-16-15-04-50.717385
269	1	1	6	270	stable	8	200	70	vs	turquoise	purple	turquoise	purple	left	right	0.30000000000000004	0.7	6	4	1.8000000000000005	2.8	1	0	0.30000000000000004	0.7	6	4	1.8000000000000005	2.8	invalid	0.3166085650009336	53248	0	1	2	53248	1	53248	1	51200	0	0.7	53248	purple	turquoise	0	0	ml	2.7.3	lorasick	sub-01_ses-01_task-ml_proj-lorasick_2020-10-16-15-04-50.717385
270	1	1	6	271	stable	8	200	71	vs	turquoise	purple	turquoise	purple	left	right	0.30000000000000004	0.7	2	6	0.6000000000000001	4.199999999999998	0	1	0.30000000000000004	0.7	2	6	0.6000000000000001	4.199999999999998	valid	0.5831921489989327	53248	0	1	2	53248	1	53248	1	53248	1	0.7	53248	purple	turquoise	1	6	ml	2.7.3	lorasick	sub-01_ses-01_task-ml_proj-lorasick_2020-10-16-15-04-50.717385
