Unnamed: 0	sub_id	ses_id	block_no	trial_no	phase_type	phase_no	phase_length	trialInPhase_no	phase_type_order	color_left	color_right	color1	color2	position1	position2	prob1	prob2	mag1	mag2	ev1	ev2	outcome1	outcome2	prob_left	prob_right	mag_left	mag_right	ev_left	ev_right	reward_validity	resp_time	resp_key	timeout	choice_side	choice	ev_corr_resp	ev_correct	prob_corr_resp	prob_correct	mag_corr_resp	mag_correct	high_prob	high_prob_side	high_prob_color	low_prob_color	no_brain	reward	name	version	proj_id	logFileID
0	2	1	1	1	volatile	1	20	1	vs	blue	red	blue	red	left	right	0.7	0.30000000000000004	6	6	4.199999999999998	1.8000000000000005	0	1	0.7	0.30000000000000004	6	6	4.199999999999998	1.8000000000000005	invalid	0.7664701210014755	51200.0	0	0.0	1.0	51200	1	51200	1	53248	0	0.7	51200	blue	red	1	0	ml	2.7.3	lorasick	sub-02_ses-01_task-ml_proj-lorasick_2020-11-13-13-51-08.533158
1	2	1	1	2	volatile	1	20	2	vs	red	blue	blue	red	right	left	0.7	0.30000000000000004	6	4	4.199999999999998	1.2000000000000002	1	0	0.30000000000000004	0.7	4	6	1.2000000000000002	4.199999999999998	valid	0.4165765799989458	51200.0	0	0.0	2.0	53248	0	53248	0	53248	0	0.7	53248	blue	red	1	0	ml	2.7.3	lorasick	sub-02_ses-01_task-ml_proj-lorasick_2020-11-13-13-51-08.533158
2	2	1	1	3	volatile	1	20	3	vs	red	blue	blue	red	right	left	0.7	0.30000000000000004	2	10	1.4	3.0000000000000004	1	0	0.30000000000000004	0.7	10	2	3.0000000000000004	1.4	valid	0.5998529370008328	51200.0	0	0.0	2.0	51200	1	53248	0	51200	1	0.7	53248	blue	red	0	0	ml	2.7.3	lorasick	sub-02_ses-01_task-ml_proj-lorasick_2020-11-13-13-51-08.533158
3	2	1	1	4	volatile	1	20	4	vs	blue	red	blue	red	left	right	0.7	0.30000000000000004	6	4	4.199999999999998	1.2000000000000002	1	0	0.7	0.30000000000000004	6	4	4.199999999999998	1.2000000000000002	valid	0.4998808389973419	51200.0	0	0.0	1.0	51200	1	51200	1	51200	1	0.7	51200	blue	red	1	6	ml	2.7.3	lorasick	sub-02_ses-01_task-ml_proj-lorasick_2020-11-13-13-51-08.533158
4	2	1	1	5	volatile	1	20	5	vs	blue	red	blue	red	left	right	0.7	0.30000000000000004	4	2	2.8	0.6000000000000001	1	0	0.7	0.30000000000000004	4	2	2.8	0.6000000000000001	valid	0.4665558969973063	51200.0	0	0.0	1.0	51200	1	51200	1	51200	1	0.7	51200	blue	red	1	4	ml	2.7.3	lorasick	sub-02_ses-01_task-ml_proj-lorasick_2020-11-13-13-51-08.533158
5	2	1	1	6	volatile	1	20	6	vs	blue	red	blue	red	left	right	0.7	0.30000000000000004	2	4	1.4	1.2000000000000002	1	0	0.7	0.30000000000000004	2	4	1.4	1.2000000000000002	valid	0.4998821200024395	51200.0	0	0.0	1.0	51200	1	51200	1	53248	0	0.7	51200	blue	red	0	2	ml	2.7.3	lorasick	sub-02_ses-01_task-ml_proj-lorasick_2020-11-13-13-51-08.533158
6	2	1	1	7	volatile	1	20	7	vs	blue	red	blue	red	left	right	0.7	0.30000000000000004	2	6	1.4	1.8000000000000005	0	1	0.7	0.30000000000000004	2	6	1.4	1.8000000000000005	invalid	0.43323474999851896	51200.0	0	0.0	1.0	53248	0	51200	1	53248	0	0.7	51200	blue	red	0	0	ml	2.7.3	lorasick	sub-02_ses-01_task-ml_proj-lorasick_2020-11-13-13-51-08.533158
7	2	1	1	8	volatile	1	20	8	vs	blue	red	blue	red	left	right	0.7	0.30000000000000004	2	10	1.4	3.0000000000000004	1	0	0.7	0.30000000000000004	2	10	1.4	3.0000000000000004	valid	0.5498686099999759	51200.0	0	0.0	1.0	53248	0	51200	1	53248	0	0.7	51200	blue	red	0	2	ml	2.7.3	lorasick	sub-02_ses-01_task-ml_proj-lorasick_2020-11-13-13-51-08.533158
8	2	1	1	9	volatile	1	20	9	vs	red	blue	blue	red	right	left	0.7	0.30000000000000004	2	6	1.4	1.8000000000000005	1	0	0.30000000000000004	0.7	6	2	1.8000000000000005	1.4	valid	0.5665403949969914	53248.0	0	1.0	1.0	51200	0	53248	1	51200	0	0.7	53248	blue	red	0	2	ml	2.7.3	lorasick	sub-02_ses-01_task-ml_proj-lorasick_2020-11-13-13-51-08.533158
9	2	1	1	10	volatile	1	20	10	vs	red	blue	blue	red	right	left	0.7	0.30000000000000004	2	4	1.4	1.2000000000000002	0	1	0.30000000000000004	0.7	4	2	1.2000000000000002	1.4	invalid	0.4832310560013866	53248.0	0	1.0	1.0	53248	1	53248	1	51200	0	0.7	53248	blue	red	0	0	ml	2.7.3	lorasick	sub-02_ses-01_task-ml_proj-lorasick_2020-11-13-13-51-08.533158
10	2	1	1	11	volatile	1	20	11	vs	red	blue	blue	red	right	left	0.7	0.30000000000000004	6	4	4.199999999999998	1.2000000000000002	1	0	0.30000000000000004	0.7	4	6	1.2000000000000002	4.199999999999998	valid	0.7831403700001829	51200.0	0	0.0	2.0	53248	0	53248	0	53248	0	0.7	53248	blue	red	1	0	ml	2.7.3	lorasick	sub-02_ses-01_task-ml_proj-lorasick_2020-11-13-13-51-08.533158
11	2	1	1	12	volatile	1	20	12	vs	blue	red	blue	red	left	right	0.7	0.30000000000000004	10	2	7.0	0.6000000000000001	1	0	0.7	0.30000000000000004	10	2	7.0	0.6000000000000001	valid	0.5331981470008031	51200.0	0	0.0	1.0	51200	1	51200	1	51200	1	0.7	51200	blue	red	1	10	ml	2.7.3	lorasick	sub-02_ses-01_task-ml_proj-lorasick_2020-11-13-13-51-08.533158
12	2	1	1	13	volatile	1	20	13	vs	red	blue	blue	red	right	left	0.7	0.30000000000000004	4	2	2.8	0.6000000000000001	1	0	0.30000000000000004	0.7	2	4	0.6000000000000001	2.8	valid	0.6831763800000772	53248.0	0	1.0	1.0	53248	1	53248	1	53248	1	0.7	53248	blue	red	1	4	ml	2.7.3	lorasick	sub-02_ses-01_task-ml_proj-lorasick_2020-11-13-13-51-08.533158
13	2	1	1	14	volatile	1	20	14	vs	red	blue	blue	red	right	left	0.7	0.30000000000000004	2	2	1.4	0.6000000000000001	0	1	0.30000000000000004	0.7	2	2	0.6000000000000001	1.4	invalid	0.5165542929971707	53248.0	0	1.0	1.0	53248	1	53248	1	53248	1	0.7	53248	blue	red	0	0	ml	2.7.3	lorasick	sub-02_ses-01_task-ml_proj-lorasick_2020-11-13-13-51-08.533158
14	2	1	1	15	volatile	1	20	15	vs	red	blue	blue	red	right	left	0.7	0.30000000000000004	2	6	1.4	1.8000000000000005	1	0	0.30000000000000004	0.7	6	2	1.8000000000000005	1.4	valid	0.5165555630010203	53248.0	0	1.0	1.0	51200	0	53248	1	51200	0	0.7	53248	blue	red	0	2	ml	2.7.3	lorasick	sub-02_ses-01_task-ml_proj-lorasick_2020-11-13-13-51-08.533158
15	2	1	1	16	volatile	1	20	16	vs	red	blue	blue	red	right	left	0.7	0.30000000000000004	2	2	1.4	0.6000000000000001	1	0	0.30000000000000004	0.7	2	2	0.6000000000000001	1.4	valid	0.7498241770008462	53248.0	0	1.0	1.0	53248	1	53248	1	53248	1	0.7	53248	blue	red	0	2	ml	2.7.3	lorasick	sub-02_ses-01_task-ml_proj-lorasick_2020-11-13-13-51-08.533158
16	2	1	1	17	volatile	1	20	17	vs	blue	red	blue	red	left	right	0.7	0.30000000000000004	2	6	1.4	1.8000000000000005	1	0	0.7	0.30000000000000004	2	6	1.4	1.8000000000000005	valid	0.8831039889992098	51200.0	0	0.0	1.0	53248	0	51200	1	53248	0	0.7	51200	blue	red	0	2	ml	2.7.3	lorasick	sub-02_ses-01_task-ml_proj-lorasick_2020-11-13-13-51-08.533158
17	2	1	1	18	volatile	1	20	18	vs	blue	red	blue	red	left	right	0.7	0.30000000000000004	2	10	1.4	3.0000000000000004	1	0	0.7	0.30000000000000004	2	10	1.4	3.0000000000000004	valid	0.6331867420012713	53248.0	0	1.0	2.0	53248	1	51200	0	53248	1	0.7	51200	blue	red	0	0	ml	2.7.3	lorasick	sub-02_ses-01_task-ml_proj-lorasick_2020-11-13-13-51-08.533158
18	2	1	1	19	volatile	1	20	19	vs	blue	red	blue	red	left	right	0.7	0.30000000000000004	6	4	4.199999999999998	1.2000000000000002	0	1	0.7	0.30000000000000004	6	4	4.199999999999998	1.2000000000000002	invalid	0.7164860429984401	51200.0	0	0.0	1.0	51200	1	51200	1	51200	1	0.7	51200	blue	red	1	0	ml	2.7.3	lorasick	sub-02_ses-01_task-ml_proj-lorasick_2020-11-13-13-51-08.533158
19	2	1	1	20	volatile	1	20	20	vs	red	blue	blue	red	right	left	0.7	0.30000000000000004	6	6	4.199999999999998	1.8000000000000005	0	1	0.30000000000000004	0.7	6	6	1.8000000000000005	4.199999999999998	invalid	0.4998859549996269	53248.0	0	1.0	1.0	53248	1	53248	1	53248	1	0.7	53248	blue	red	0	0	ml	2.7.3	lorasick	sub-02_ses-01_task-ml_proj-lorasick_2020-11-13-13-51-08.533158
20	2	1	1	21	volatile	2	40	1	vs	red	blue	blue	red	right	left	0.30000000000000004	0.7	6	4	1.8000000000000005	2.8	1	0	0.7	0.30000000000000004	4	6	2.8	1.8000000000000005	invalid	0.3999095020008099	51200.0	0	0.0	2.0	51200	1	51200	1	53248	0	0.7	51200	red	blue	0	0	ml	2.7.3	lorasick	sub-02_ses-01_task-ml_proj-lorasick_2020-11-13-13-51-08.533158
21	2	1	1	22	volatile	2	40	2	vs	red	blue	blue	red	right	left	0.30000000000000004	0.7	6	4	1.8000000000000005	2.8	0	1	0.7	0.30000000000000004	4	6	2.8	1.8000000000000005	valid	0.7164926240002387	53248.0	0	1.0	1.0	51200	0	51200	0	53248	1	0.7	51200	red	blue	0	0	ml	2.7.3	lorasick	sub-02_ses-01_task-ml_proj-lorasick_2020-11-13-13-51-08.533158
22	2	1	1	23	volatile	2	40	3	vs	blue	red	blue	red	left	right	0.30000000000000004	0.7	2	10	0.6000000000000001	7.0	0	1	0.30000000000000004	0.7	2	10	0.6000000000000001	7.0	valid	0.4832195470007719	51200.0	0	0.0	1.0	53248	0	53248	0	53248	0	0.7	53248	red	blue	1	0	ml	2.7.3	lorasick	sub-02_ses-01_task-ml_proj-lorasick_2020-11-13-13-51-08.533158
23	2	1	1	24	volatile	2	40	4	vs	red	blue	blue	red	right	left	0.30000000000000004	0.7	2	6	0.6000000000000001	4.199999999999998	0	1	0.7	0.30000000000000004	6	2	4.199999999999998	0.6000000000000001	valid	0.4498971969987906	51200.0	0	0.0	2.0	51200	1	51200	1	51200	1	0.7	51200	red	blue	1	6	ml	2.7.3	lorasick	sub-02_ses-01_task-ml_proj-lorasick_2020-11-13-13-51-08.533158
24	2	1	1	25	volatile	2	40	5	vs	red	blue	blue	red	right	left	0.30000000000000004	0.7	4	6	1.2000000000000002	4.199999999999998	0	1	0.7	0.30000000000000004	6	4	4.199999999999998	1.2000000000000002	valid	0.5498635900003137	53248.0	0	1.0	1.0	51200	0	51200	0	51200	0	0.7	51200	red	blue	1	0	ml	2.7.3	lorasick	sub-02_ses-01_task-ml_proj-lorasick_2020-11-13-13-51-08.533158
25	2	1	1	26	volatile	2	40	6	vs	blue	red	blue	red	left	right	0.30000000000000004	0.7	2	2	0.6000000000000001	1.4	0	1	0.30000000000000004	0.7	2	2	0.6000000000000001	1.4	valid	0.8164659459980612	53248.0	0	1.0	2.0	53248	1	53248	1	53248	1	0.7	53248	red	blue	0	2	ml	2.7.3	lorasick	sub-02_ses-01_task-ml_proj-lorasick_2020-11-13-13-51-08.533158
26	2	1	1	27	volatile	2	40	7	vs	red	blue	blue	red	right	left	0.30000000000000004	0.7	2	6	0.6000000000000001	4.199999999999998	0	1	0.7	0.30000000000000004	6	2	4.199999999999998	0.6000000000000001	valid	0.38324831499994616	51200.0	0	0.0	2.0	51200	1	51200	1	51200	1	0.7	51200	red	blue	1	6	ml	2.7.3	lorasick	sub-02_ses-01_task-ml_proj-lorasick_2020-11-13-13-51-08.533158
27	2	1	1	28	volatile	2	40	8	vs	blue	red	blue	red	left	right	0.30000000000000004	0.7	6	2	1.8000000000000005	1.4	0	1	0.30000000000000004	0.7	6	2	1.8000000000000005	1.4	valid	0.6165247819990327	53248.0	0	1.0	2.0	51200	0	53248	1	51200	0	0.7	53248	red	blue	0	2	ml	2.7.3	lorasick	sub-02_ses-01_task-ml_proj-lorasick_2020-11-13-13-51-08.533158
28	2	1	1	29	volatile	2	40	9	vs	red	blue	blue	red	right	left	0.30000000000000004	0.7	2	4	0.6000000000000001	2.8	0	1	0.7	0.30000000000000004	4	2	2.8	0.6000000000000001	valid	0.4832039230022929	51200.0	0	0.0	2.0	51200	1	51200	1	51200	1	0.7	51200	red	blue	1	4	ml	2.7.3	lorasick	sub-02_ses-01_task-ml_proj-lorasick_2020-11-13-13-51-08.533158
29	2	1	1	30	volatile	2	40	10	vs	red	blue	blue	red	right	left	0.30000000000000004	0.7	4	2	1.2000000000000002	1.4	0	1	0.7	0.30000000000000004	2	4	1.4	1.2000000000000002	valid	0.5332036610016075	51200.0	0	0.0	2.0	51200	1	51200	1	53248	0	0.7	51200	red	blue	0	2	ml	2.7.3	lorasick	sub-02_ses-01_task-ml_proj-lorasick_2020-11-13-13-51-08.533158
30	2	1	1	31	volatile	2	40	11	vs	blue	red	blue	red	left	right	0.30000000000000004	0.7	4	2	1.2000000000000002	1.4	0	1	0.30000000000000004	0.7	4	2	1.2000000000000002	1.4	valid	0.5165520219998143	53248.0	0	1.0	2.0	53248	1	53248	1	51200	0	0.7	53248	red	blue	0	2	ml	2.7.3	lorasick	sub-02_ses-01_task-ml_proj-lorasick_2020-11-13-13-51-08.533158
31	2	1	1	32	volatile	2	40	12	vs	blue	red	blue	red	left	right	0.30000000000000004	0.7	2	6	0.6000000000000001	4.199999999999998	0	1	0.30000000000000004	0.7	2	6	0.6000000000000001	4.199999999999998	valid	0.9830903369984298	53248.0	0	1.0	2.0	53248	1	53248	1	53248	1	0.7	53248	red	blue	1	6	ml	2.7.3	lorasick	sub-02_ses-01_task-ml_proj-lorasick_2020-11-13-13-51-08.533158
32	2	1	1	33	volatile	2	40	13	vs	blue	red	blue	red	left	right	0.30000000000000004	0.7	4	2	1.2000000000000002	1.4	0	1	0.30000000000000004	0.7	4	2	1.2000000000000002	1.4	valid	0.4832314320010482	53248.0	0	1.0	2.0	53248	1	53248	1	51200	0	0.7	53248	red	blue	0	2	ml	2.7.3	lorasick	sub-02_ses-01_task-ml_proj-lorasick_2020-11-13-13-51-08.533158
33	2	1	1	34	volatile	2	40	14	vs	red	blue	blue	red	right	left	0.30000000000000004	0.7	10	2	3.0000000000000004	1.4	0	1	0.7	0.30000000000000004	2	10	1.4	3.0000000000000004	valid	0.34992181200141204	51200.0	0	0.0	2.0	53248	0	51200	1	53248	0	0.7	51200	red	blue	0	2	ml	2.7.3	lorasick	sub-02_ses-01_task-ml_proj-lorasick_2020-11-13-13-51-08.533158
34	2	1	1	35	volatile	2	40	15	vs	red	blue	blue	red	right	left	0.30000000000000004	0.7	4	2	1.2000000000000002	1.4	0	1	0.7	0.30000000000000004	2	4	1.4	1.2000000000000002	valid	0.39991040699896985	51200.0	0	0.0	2.0	51200	1	51200	1	53248	0	0.7	51200	red	blue	0	2	ml	2.7.3	lorasick	sub-02_ses-01_task-ml_proj-lorasick_2020-11-13-13-51-08.533158
35	2	1	1	36	volatile	2	40	16	vs	red	blue	blue	red	right	left	0.30000000000000004	0.7	2	10	0.6000000000000001	7.0	1	0	0.7	0.30000000000000004	10	2	7.0	0.6000000000000001	invalid	0.4332330690012896	51200.0	0	0.0	2.0	51200	1	51200	1	51200	1	0.7	51200	red	blue	1	0	ml	2.7.3	lorasick	sub-02_ses-01_task-ml_proj-lorasick_2020-11-13-13-51-08.533158
36	2	1	1	37	volatile	2	40	17	vs	blue	red	blue	red	left	right	0.30000000000000004	0.7	10	2	3.0000000000000004	1.4	1	0	0.30000000000000004	0.7	10	2	3.0000000000000004	1.4	invalid	0.4499056839995319	53248.0	0	1.0	2.0	51200	0	53248	1	51200	0	0.7	53248	red	blue	0	0	ml	2.7.3	lorasick	sub-02_ses-01_task-ml_proj-lorasick_2020-11-13-13-51-08.533158
37	2	1	1	38	volatile	2	40	18	vs	blue	red	blue	red	left	right	0.30000000000000004	0.7	6	6	1.8000000000000005	4.199999999999998	1	0	0.30000000000000004	0.7	6	6	1.8000000000000005	4.199999999999998	invalid	0.34992533900003764	51200.0	0	0.0	1.0	53248	0	53248	0	53248	0	0.7	53248	red	blue	0	6	ml	2.7.3	lorasick	sub-02_ses-01_task-ml_proj-lorasick_2020-11-13-13-51-08.533158
38	2	1	1	39	volatile	2	40	19	vs	red	blue	blue	red	right	left	0.30000000000000004	0.7	2	6	0.6000000000000001	4.199999999999998	1	0	0.7	0.30000000000000004	6	2	4.199999999999998	0.6000000000000001	invalid	0.34993483099970035	53248.0	0	1.0	1.0	51200	0	51200	0	51200	0	0.7	51200	red	blue	1	2	ml	2.7.3	lorasick	sub-02_ses-01_task-ml_proj-lorasick_2020-11-13-13-51-08.533158
39	2	1	1	40	volatile	2	40	20	vs	red	blue	blue	red	right	left	0.30000000000000004	0.7	6	6	1.8000000000000005	4.199999999999998	1	0	0.7	0.30000000000000004	6	6	4.199999999999998	1.8000000000000005	invalid	0.3999289120001777	53248.0	0	1.0	1.0	51200	0	51200	0	53248	1	0.7	51200	red	blue	1	6	ml	2.7.3	lorasick	sub-02_ses-01_task-ml_proj-lorasick_2020-11-13-13-51-08.533158
40	2	1	1	41	volatile	2	40	21	vs	blue	red	blue	red	left	right	0.30000000000000004	0.7	10	2	3.0000000000000004	1.4	1	0	0.30000000000000004	0.7	10	2	3.0000000000000004	1.4	invalid	0.36658887299927295	51200.0	0	0.0	1.0	51200	1	53248	0	51200	1	0.7	53248	red	blue	0	10	ml	2.7.3	lorasick	sub-02_ses-01_task-ml_proj-lorasick_2020-11-13-13-51-08.533158
41	2	1	1	42	volatile	2	40	22	vs	blue	red	blue	red	left	right	0.30000000000000004	0.7	2	4	0.6000000000000001	2.8	1	0	0.30000000000000004	0.7	2	4	0.6000000000000001	2.8	invalid	0.34992232299919124	51200.0	0	0.0	1.0	53248	0	53248	0	53248	0	0.7	53248	red	blue	1	2	ml	2.7.3	lorasick	sub-02_ses-01_task-ml_proj-lorasick_2020-11-13-13-51-08.533158
42	2	1	1	43	volatile	2	40	23	vs	blue	red	blue	red	left	right	0.30000000000000004	0.7	6	4	1.8000000000000005	2.8	0	1	0.30000000000000004	0.7	6	4	1.8000000000000005	2.8	valid	0.38324456099871895	51200.0	0	0.0	1.0	53248	0	53248	0	51200	1	0.7	53248	red	blue	0	0	ml	2.7.3	lorasick	sub-02_ses-01_task-ml_proj-lorasick_2020-11-13-13-51-08.533158
43	2	1	1	44	volatile	2	40	24	vs	blue	red	blue	red	left	right	0.30000000000000004	0.7	2	10	0.6000000000000001	7.0	0	1	0.30000000000000004	0.7	2	10	0.6000000000000001	7.0	valid	0.4499063519979245	53248.0	0	1.0	2.0	53248	1	53248	1	53248	1	0.7	53248	red	blue	1	10	ml	2.7.3	lorasick	sub-02_ses-01_task-ml_proj-lorasick_2020-11-13-13-51-08.533158
44	2	1	1	45	volatile	2	40	25	vs	red	blue	blue	red	right	left	0.30000000000000004	0.7	2	2	0.6000000000000001	1.4	1	0	0.7	0.30000000000000004	2	2	1.4	0.6000000000000001	invalid	1.2330000719994132	51200.0	0	0.0	2.0	51200	1	51200	1	53248	0	0.7	51200	red	blue	1	0	ml	2.7.3	lorasick	sub-02_ses-01_task-ml_proj-lorasick_2020-11-13-13-51-08.533158
45	2	1	1	46	volatile	2	40	26	vs	red	blue	blue	red	right	left	0.30000000000000004	0.7	10	2	3.0000000000000004	1.4	0	1	0.7	0.30000000000000004	2	10	1.4	3.0000000000000004	valid	0.44989935100238654	53248.0	0	1.0	1.0	53248	1	51200	0	53248	1	0.7	51200	red	blue	0	0	ml	2.7.3	lorasick	sub-02_ses-01_task-ml_proj-lorasick_2020-11-13-13-51-08.533158
46	2	1	1	47	volatile	2	40	27	vs	red	blue	blue	red	right	left	0.30000000000000004	0.7	6	4	1.8000000000000005	2.8	0	1	0.7	0.30000000000000004	4	6	2.8	1.8000000000000005	valid	0.599863595001807	53248.0	0	1.0	1.0	51200	0	51200	0	53248	1	0.7	51200	red	blue	0	0	ml	2.7.3	lorasick	sub-02_ses-01_task-ml_proj-lorasick_2020-11-13-13-51-08.533158
47	2	1	1	48	volatile	2	40	28	vs	blue	red	blue	red	left	right	0.30000000000000004	0.7	2	2	0.6000000000000001	1.4	0	1	0.30000000000000004	0.7	2	2	0.6000000000000001	1.4	valid	0.3999210350011708	53248.0	0	1.0	2.0	53248	1	53248	1	53248	1	0.7	53248	red	blue	0	2	ml	2.7.3	lorasick	sub-02_ses-01_task-ml_proj-lorasick_2020-11-13-13-51-08.533158
48	2	1	1	49	volatile	2	40	29	vs	red	blue	blue	red	right	left	0.30000000000000004	0.7	6	6	1.8000000000000005	4.199999999999998	0	1	0.7	0.30000000000000004	6	6	4.199999999999998	1.8000000000000005	valid	0.2999405980008305	51200.0	0	0.0	2.0	51200	1	51200	1	53248	0	0.7	51200	red	blue	1	6	ml	2.7.3	lorasick	sub-02_ses-01_task-ml_proj-lorasick_2020-11-13-13-51-08.533158
49	2	1	1	50	volatile	2	40	30	vs	red	blue	blue	red	right	left	0.30000000000000004	0.7	2	2	0.6000000000000001	1.4	0	1	0.7	0.30000000000000004	2	2	1.4	0.6000000000000001	valid	0.4665581670014944	51200.0	0	0.0	2.0	51200	1	51200	1	53248	0	0.7	51200	red	blue	1	2	ml	2.7.3	lorasick	sub-02_ses-01_task-ml_proj-lorasick_2020-11-13-13-51-08.533158
50	2	1	2	51	volatile	2	40	31	vs	blue	red	blue	red	left	right	0.30000000000000004	0.7	10	2	3.0000000000000004	1.4	1	0	0.30000000000000004	0.7	10	2	3.0000000000000004	1.4	invalid	0.5665288400014106	51200.0	0	0.0	1.0	51200	1	53248	0	51200	1	0.7	53248	red	blue	0	10	ml	2.7.3	lorasick	sub-02_ses-01_task-ml_proj-lorasick_2020-11-13-13-51-08.533158
51	2	1	2	52	volatile	2	40	32	vs	red	blue	blue	red	right	left	0.30000000000000004	0.7	6	2	1.8000000000000005	1.4	0	1	0.7	0.30000000000000004	2	6	1.4	1.8000000000000005	valid	0.38325827800144907	53248.0	0	1.0	1.0	53248	1	51200	0	53248	1	0.7	51200	red	blue	0	0	ml	2.7.3	lorasick	sub-02_ses-01_task-ml_proj-lorasick_2020-11-13-13-51-08.533158
52	2	1	2	53	volatile	2	40	33	vs	blue	red	blue	red	left	right	0.30000000000000004	0.7	6	6	1.8000000000000005	4.199999999999998	0	1	0.30000000000000004	0.7	6	6	1.8000000000000005	4.199999999999998	valid	0.4832141330007289	51200.0	0	0.0	1.0	53248	0	53248	0	53248	0	0.7	53248	red	blue	0	0	ml	2.7.3	lorasick	sub-02_ses-01_task-ml_proj-lorasick_2020-11-13-13-51-08.533158
53	2	1	2	54	volatile	2	40	34	vs	blue	red	blue	red	left	right	0.30000000000000004	0.7	6	4	1.8000000000000005	2.8	0	1	0.30000000000000004	0.7	6	4	1.8000000000000005	2.8	valid	0.3332723329986038	53248.0	0	1.0	2.0	53248	1	53248	1	51200	0	0.7	53248	red	blue	0	4	ml	2.7.3	lorasick	sub-02_ses-01_task-ml_proj-lorasick_2020-11-13-13-51-08.533158
54	2	1	2	55	volatile	2	40	35	vs	red	blue	blue	red	right	left	0.30000000000000004	0.7	4	6	1.2000000000000002	4.199999999999998	0	1	0.7	0.30000000000000004	6	4	4.199999999999998	1.2000000000000002	valid	0.34992493000027025	51200.0	0	0.0	2.0	51200	1	51200	1	51200	1	0.7	51200	red	blue	1	6	ml	2.7.3	lorasick	sub-02_ses-01_task-ml_proj-lorasick_2020-11-13-13-51-08.533158
55	2	1	2	56	volatile	2	40	36	vs	blue	red	blue	red	left	right	0.30000000000000004	0.7	2	6	0.6000000000000001	4.199999999999998	0	1	0.30000000000000004	0.7	2	6	0.6000000000000001	4.199999999999998	valid	0.3499389579992567	53248.0	0	1.0	2.0	53248	1	53248	1	53248	1	0.7	53248	red	blue	1	6	ml	2.7.3	lorasick	sub-02_ses-01_task-ml_proj-lorasick_2020-11-13-13-51-08.533158
56	2	1	2	57	volatile	2	40	37	vs	blue	red	blue	red	left	right	0.30000000000000004	0.7	4	6	1.2000000000000002	4.199999999999998	1	0	0.30000000000000004	0.7	4	6	1.2000000000000002	4.199999999999998	invalid	0.4998916330005159	53248.0	0	1.0	2.0	53248	1	53248	1	53248	1	0.7	53248	red	blue	1	0	ml	2.7.3	lorasick	sub-02_ses-01_task-ml_proj-lorasick_2020-11-13-13-51-08.533158
57	2	1	2	58	volatile	2	40	38	vs	red	blue	blue	red	right	left	0.30000000000000004	0.7	4	2	1.2000000000000002	1.4	1	0	0.7	0.30000000000000004	2	4	1.4	1.2000000000000002	invalid	0.34992318999866256	51200.0	0	0.0	2.0	51200	1	51200	1	53248	0	0.7	51200	red	blue	0	0	ml	2.7.3	lorasick	sub-02_ses-01_task-ml_proj-lorasick_2020-11-13-13-51-08.533158
58	2	1	2	59	volatile	2	40	39	vs	blue	red	blue	red	left	right	0.30000000000000004	0.7	2	6	0.6000000000000001	4.199999999999998	0	1	0.30000000000000004	0.7	2	6	0.6000000000000001	4.199999999999998	valid	0.4332449190005718	53248.0	0	1.0	2.0	53248	1	53248	1	53248	1	0.7	53248	red	blue	1	6	ml	2.7.3	lorasick	sub-02_ses-01_task-ml_proj-lorasick_2020-11-13-13-51-08.533158
59	2	1	2	60	volatile	2	40	40	vs	blue	red	blue	red	left	right	0.30000000000000004	0.7	4	2	1.2000000000000002	1.4	0	1	0.30000000000000004	0.7	4	2	1.2000000000000002	1.4	valid	0.4665592019991891	51200.0	0	0.0	1.0	53248	0	53248	0	51200	1	0.7	53248	red	blue	0	0	ml	2.7.3	lorasick	sub-02_ses-01_task-ml_proj-lorasick_2020-11-13-13-51-08.533158
60	2	1	2	61	volatile	3	40	1	vs	blue	red	blue	red	left	right	0.7	0.30000000000000004	2	2	1.4	0.6000000000000001	1	0	0.7	0.30000000000000004	2	2	1.4	0.6000000000000001	valid	0.4165820439993695	53248.0	0	1.0	2.0	51200	0	51200	0	53248	1	0.7	51200	blue	red	1	0	ml	2.7.3	lorasick	sub-02_ses-01_task-ml_proj-lorasick_2020-11-13-13-51-08.533158
61	2	1	2	62	volatile	3	40	2	vs	red	blue	blue	red	right	left	0.7	0.30000000000000004	4	2	2.8	0.6000000000000001	0	1	0.30000000000000004	0.7	2	4	0.6000000000000001	2.8	invalid	0.4998807509982726	51200.0	0	0.0	2.0	53248	0	53248	0	53248	0	0.7	53248	blue	red	1	2	ml	2.7.3	lorasick	sub-02_ses-01_task-ml_proj-lorasick_2020-11-13-13-51-08.533158
62	2	1	2	63	volatile	3	40	3	vs	blue	red	blue	red	left	right	0.7	0.30000000000000004	2	6	1.4	1.8000000000000005	1	0	0.7	0.30000000000000004	2	6	1.4	1.8000000000000005	valid	0.3832577730026969	53248.0	0	1.0	2.0	53248	1	51200	0	53248	1	0.7	51200	blue	red	0	0	ml	2.7.3	lorasick	sub-02_ses-01_task-ml_proj-lorasick_2020-11-13-13-51-08.533158
63	2	1	2	64	volatile	3	40	4	vs	blue	red	blue	red	left	right	0.7	0.30000000000000004	2	2	1.4	0.6000000000000001	0	1	0.7	0.30000000000000004	2	2	1.4	0.6000000000000001	invalid	0.5165496430017811	53248.0	0	1.0	2.0	51200	0	51200	0	53248	1	0.7	51200	blue	red	1	2	ml	2.7.3	lorasick	sub-02_ses-01_task-ml_proj-lorasick_2020-11-13-13-51-08.533158
64	2	1	2	65	volatile	3	40	5	vs	blue	red	blue	red	left	right	0.7	0.30000000000000004	4	2	2.8	0.6000000000000001	1	0	0.7	0.30000000000000004	4	2	2.8	0.6000000000000001	valid	0.4332455830008257	53248.0	0	1.0	2.0	51200	0	51200	0	51200	0	0.7	51200	blue	red	1	0	ml	2.7.3	lorasick	sub-02_ses-01_task-ml_proj-lorasick_2020-11-13-13-51-08.533158
65	2	1	2	66	volatile	3	40	6	vs	red	blue	blue	red	right	left	0.7	0.30000000000000004	2	6	1.4	1.8000000000000005	1	0	0.30000000000000004	0.7	6	2	1.8000000000000005	1.4	valid	0.3999124069996469	51200.0	0	0.0	2.0	51200	1	53248	0	51200	1	0.7	53248	blue	red	0	0	ml	2.7.3	lorasick	sub-02_ses-01_task-ml_proj-lorasick_2020-11-13-13-51-08.533158
66	2	1	2	67	volatile	3	40	7	vs	blue	red	blue	red	left	right	0.7	0.30000000000000004	4	2	2.8	0.6000000000000001	0	1	0.7	0.30000000000000004	4	2	2.8	0.6000000000000001	invalid	0.3832478690019343	51200.0	0	0.0	1.0	51200	1	51200	1	51200	1	0.7	51200	blue	red	1	0	ml	2.7.3	lorasick	sub-02_ses-01_task-ml_proj-lorasick_2020-11-13-13-51-08.533158
67	2	1	2	68	volatile	3	40	8	vs	blue	red	blue	red	left	right	0.7	0.30000000000000004	2	4	1.4	1.2000000000000002	0	1	0.7	0.30000000000000004	2	4	1.4	1.2000000000000002	invalid	0.3666038320006919	53248.0	0	1.0	2.0	51200	0	51200	0	53248	1	0.7	51200	blue	red	0	4	ml	2.7.3	lorasick	sub-02_ses-01_task-ml_proj-lorasick_2020-11-13-13-51-08.533158
68	2	1	2	69	volatile	3	40	9	vs	blue	red	blue	red	left	right	0.7	0.30000000000000004	2	4	1.4	1.2000000000000002	1	0	0.7	0.30000000000000004	2	4	1.4	1.2000000000000002	valid	0.4499078799999552	53248.0	0	1.0	2.0	51200	0	51200	0	53248	1	0.7	51200	blue	red	0	0	ml	2.7.3	lorasick	sub-02_ses-01_task-ml_proj-lorasick_2020-11-13-13-51-08.533158
69	2	1	2	70	volatile	3	40	10	vs	red	blue	blue	red	right	left	0.7	0.30000000000000004	2	10	1.4	3.0000000000000004	1	0	0.30000000000000004	0.7	10	2	3.0000000000000004	1.4	valid	0.4832195769995451	51200.0	0	0.0	2.0	51200	1	53248	0	51200	1	0.7	53248	blue	red	0	0	ml	2.7.3	lorasick	sub-02_ses-01_task-ml_proj-lorasick_2020-11-13-13-51-08.533158
70	2	1	2	71	volatile	3	40	11	vs	blue	red	blue	red	left	right	0.7	0.30000000000000004	6	4	4.199999999999998	1.2000000000000002	1	0	0.7	0.30000000000000004	6	4	4.199999999999998	1.2000000000000002	valid	0.4165824239971698	53248.0	0	1.0	2.0	51200	0	51200	0	51200	0	0.7	51200	blue	red	1	0	ml	2.7.3	lorasick	sub-02_ses-01_task-ml_proj-lorasick_2020-11-13-13-51-08.533158
71	2	1	2	72	volatile	3	40	12	vs	red	blue	blue	red	right	left	0.7	0.30000000000000004	6	2	4.199999999999998	0.6000000000000001	1	0	0.30000000000000004	0.7	2	6	0.6000000000000001	4.199999999999998	valid	0.4832261750016187	53248.0	0	1.0	1.0	53248	1	53248	1	53248	1	0.7	53248	blue	red	1	6	ml	2.7.3	lorasick	sub-02_ses-01_task-ml_proj-lorasick_2020-11-13-13-51-08.533158
72	2	1	2	73	volatile	3	40	13	vs	blue	red	blue	red	left	right	0.7	0.30000000000000004	10	2	7.0	0.6000000000000001	1	0	0.7	0.30000000000000004	10	2	7.0	0.6000000000000001	valid	0.4165702459977183	51200.0	0	0.0	1.0	51200	1	51200	1	51200	1	0.7	51200	blue	red	1	10	ml	2.7.3	lorasick	sub-02_ses-01_task-ml_proj-lorasick_2020-11-13-13-51-08.533158
73	2	1	2	74	volatile	3	40	14	vs	blue	red	blue	red	left	right	0.7	0.30000000000000004	6	2	4.199999999999998	0.6000000000000001	0	1	0.7	0.30000000000000004	6	2	4.199999999999998	0.6000000000000001	invalid	0.383248657999502	51200.0	0	0.0	1.0	51200	1	51200	1	51200	1	0.7	51200	blue	red	1	0	ml	2.7.3	lorasick	sub-02_ses-01_task-ml_proj-lorasick_2020-11-13-13-51-08.533158
74	2	1	2	75	volatile	3	40	15	vs	red	blue	blue	red	right	left	0.7	0.30000000000000004	6	6	4.199999999999998	1.8000000000000005	1	0	0.30000000000000004	0.7	6	6	1.8000000000000005	4.199999999999998	valid	0.3166026210019481	51200.0	0	0.0	2.0	53248	0	53248	0	53248	0	0.7	53248	blue	red	0	0	ml	2.7.3	lorasick	sub-02_ses-01_task-ml_proj-lorasick_2020-11-13-13-51-08.533158
75	2	1	2	76	volatile	3	40	16	vs	red	blue	blue	red	right	left	0.7	0.30000000000000004	4	2	2.8	0.6000000000000001	1	0	0.30000000000000004	0.7	2	4	0.6000000000000001	2.8	valid	0.39992044899918255	53248.0	0	1.0	1.0	53248	1	53248	1	53248	1	0.7	53248	blue	red	1	4	ml	2.7.3	lorasick	sub-02_ses-01_task-ml_proj-lorasick_2020-11-13-13-51-08.533158
76	2	1	2	77	volatile	3	40	17	vs	red	blue	blue	red	right	left	0.7	0.30000000000000004	2	2	1.4	0.6000000000000001	1	0	0.30000000000000004	0.7	2	2	0.6000000000000001	1.4	valid	0.5832016259992088	53248.0	0	1.0	1.0	53248	1	53248	1	53248	1	0.7	53248	blue	red	0	2	ml	2.7.3	lorasick	sub-02_ses-01_task-ml_proj-lorasick_2020-11-13-13-51-08.533158
77	2	1	2	78	volatile	3	40	18	vs	red	blue	blue	red	right	left	0.7	0.30000000000000004	4	6	2.8	1.8000000000000005	0	1	0.30000000000000004	0.7	6	4	1.8000000000000005	2.8	invalid	0.4998923329985701	53248.0	0	1.0	1.0	53248	1	53248	1	51200	0	0.7	53248	blue	red	0	0	ml	2.7.3	lorasick	sub-02_ses-01_task-ml_proj-lorasick_2020-11-13-13-51-08.533158
78	2	1	2	79	volatile	3	40	19	vs	blue	red	blue	red	left	right	0.7	0.30000000000000004	6	6	4.199999999999998	1.8000000000000005	0	1	0.7	0.30000000000000004	6	6	4.199999999999998	1.8000000000000005	invalid	0.5165419620025204	51200.0	0	0.0	1.0	51200	1	51200	1	53248	0	0.7	51200	blue	red	1	0	ml	2.7.3	lorasick	sub-02_ses-01_task-ml_proj-lorasick_2020-11-13-13-51-08.533158
79	2	1	2	80	volatile	3	40	20	vs	blue	red	blue	red	left	right	0.7	0.30000000000000004	4	2	2.8	0.6000000000000001	1	0	0.7	0.30000000000000004	4	2	2.8	0.6000000000000001	valid	0.6331802789973153	53248.0	0	1.0	2.0	51200	0	51200	0	51200	0	0.7	51200	blue	red	1	0	ml	2.7.3	lorasick	sub-02_ses-01_task-ml_proj-lorasick_2020-11-13-13-51-08.533158
80	2	1	2	81	volatile	3	40	21	vs	red	blue	blue	red	right	left	0.7	0.30000000000000004	4	6	2.8	1.8000000000000005	1	0	0.30000000000000004	0.7	6	4	1.8000000000000005	2.8	valid	0.6331765789982455	51200.0	0	0.0	2.0	53248	0	53248	0	51200	1	0.7	53248	blue	red	0	0	ml	2.7.3	lorasick	sub-02_ses-01_task-ml_proj-lorasick_2020-11-13-13-51-08.533158
81	2	1	2	82	volatile	3	40	22	vs	red	blue	blue	red	right	left	0.7	0.30000000000000004	6	6	4.199999999999998	1.8000000000000005	1	0	0.30000000000000004	0.7	6	6	1.8000000000000005	4.199999999999998	valid	2.9825045119978317	nan	1	nan	nan	53248	0	53248	0	53248	0	0.7	53248	blue	red	0	0	ml	2.7.3	lorasick	sub-02_ses-01_task-ml_proj-lorasick_2020-11-13-13-51-08.533158
82	2	1	2	83	volatile	3	40	23	vs	blue	red	blue	red	left	right	0.7	0.30000000000000004	2	10	1.4	3.0000000000000004	1	0	0.7	0.30000000000000004	2	10	1.4	3.0000000000000004	valid	0.4998909200003254	53248.0	0	1.0	2.0	53248	1	51200	0	53248	1	0.7	51200	blue	red	0	0	ml	2.7.3	lorasick	sub-02_ses-01_task-ml_proj-lorasick_2020-11-13-13-51-08.533158
83	2	1	2	84	volatile	3	40	24	vs	blue	red	blue	red	left	right	0.7	0.30000000000000004	2	2	1.4	0.6000000000000001	1	0	0.7	0.30000000000000004	2	2	1.4	0.6000000000000001	valid	0.3332657190003374	51200.0	0	0.0	1.0	51200	1	51200	1	53248	0	0.7	51200	blue	red	1	2	ml	2.7.3	lorasick	sub-02_ses-01_task-ml_proj-lorasick_2020-11-13-13-51-08.533158
84	2	1	2	85	volatile	3	40	25	vs	red	blue	blue	red	right	left	0.7	0.30000000000000004	4	6	2.8	1.8000000000000005	1	0	0.30000000000000004	0.7	6	4	1.8000000000000005	2.8	valid	0.5332115729979705	53248.0	0	1.0	1.0	53248	1	53248	1	51200	0	0.7	53248	blue	red	0	4	ml	2.7.3	lorasick	sub-02_ses-01_task-ml_proj-lorasick_2020-11-13-13-51-08.533158
85	2	1	2	86	volatile	3	40	26	vs	red	blue	blue	red	right	left	0.7	0.30000000000000004	6	6	4.199999999999998	1.8000000000000005	0	1	0.30000000000000004	0.7	6	6	1.8000000000000005	4.199999999999998	invalid	0.3832596860011108	53248.0	0	1.0	1.0	53248	1	53248	1	53248	1	0.7	53248	blue	red	0	0	ml	2.7.3	lorasick	sub-02_ses-01_task-ml_proj-lorasick_2020-11-13-13-51-08.533158
86	2	1	2	87	volatile	3	40	27	vs	red	blue	blue	red	right	left	0.7	0.30000000000000004	10	2	7.0	0.6000000000000001	1	0	0.30000000000000004	0.7	2	10	0.6000000000000001	7.0	valid	0.3166190660012944	53248.0	0	1.0	1.0	53248	1	53248	1	53248	1	0.7	53248	blue	red	1	10	ml	2.7.3	lorasick	sub-02_ses-01_task-ml_proj-lorasick_2020-11-13-13-51-08.533158
87	2	1	2	88	volatile	3	40	28	vs	red	blue	blue	red	right	left	0.7	0.30000000000000004	2	6	1.4	1.8000000000000005	1	0	0.30000000000000004	0.7	6	2	1.8000000000000005	1.4	valid	0.3499330150007154	53248.0	0	1.0	1.0	51200	0	53248	1	51200	0	0.7	53248	blue	red	0	2	ml	2.7.3	lorasick	sub-02_ses-01_task-ml_proj-lorasick_2020-11-13-13-51-08.533158
88	2	1	2	89	volatile	3	40	29	vs	red	blue	blue	red	right	left	0.7	0.30000000000000004	6	2	4.199999999999998	0.6000000000000001	1	0	0.30000000000000004	0.7	2	6	0.6000000000000001	4.199999999999998	valid	0.3332768960026442	53248.0	0	1.0	1.0	53248	1	53248	1	53248	1	0.7	53248	blue	red	1	6	ml	2.7.3	lorasick	sub-02_ses-01_task-ml_proj-lorasick_2020-11-13-13-51-08.533158
89	2	1	2	90	volatile	3	40	30	vs	red	blue	blue	red	right	left	0.7	0.30000000000000004	6	4	4.199999999999998	1.2000000000000002	0	1	0.30000000000000004	0.7	4	6	1.2000000000000002	4.199999999999998	invalid	0.3832608170014282	53248.0	0	1.0	1.0	53248	1	53248	1	53248	1	0.7	53248	blue	red	1	0	ml	2.7.3	lorasick	sub-02_ses-01_task-ml_proj-lorasick_2020-11-13-13-51-08.533158
90	2	1	2	91	volatile	3	40	31	vs	blue	red	blue	red	left	right	0.7	0.30000000000000004	2	10	1.4	3.0000000000000004	1	0	0.7	0.30000000000000004	2	10	1.4	3.0000000000000004	valid	0.4498953989968868	51200.0	0	0.0	1.0	53248	0	51200	1	53248	0	0.7	51200	blue	red	0	2	ml	2.7.3	lorasick	sub-02_ses-01_task-ml_proj-lorasick_2020-11-13-13-51-08.533158
91	2	1	2	92	volatile	3	40	32	vs	red	blue	blue	red	right	left	0.7	0.30000000000000004	2	4	1.4	1.2000000000000002	0	1	0.30000000000000004	0.7	4	2	1.2000000000000002	1.4	invalid	0.3665947280023829	53248.0	0	1.0	1.0	53248	1	53248	1	51200	0	0.7	53248	blue	red	0	0	ml	2.7.3	lorasick	sub-02_ses-01_task-ml_proj-lorasick_2020-11-13-13-51-08.533158
92	2	1	2	93	volatile	3	40	33	vs	blue	red	blue	red	left	right	0.7	0.30000000000000004	2	6	1.4	1.8000000000000005	1	0	0.7	0.30000000000000004	2	6	1.4	1.8000000000000005	valid	0.4998832540004514	51200.0	0	0.0	1.0	53248	0	51200	1	53248	0	0.7	51200	blue	red	0	2	ml	2.7.3	lorasick	sub-02_ses-01_task-ml_proj-lorasick_2020-11-13-13-51-08.533158
93	2	1	2	94	volatile	3	40	34	vs	blue	red	blue	red	left	right	0.7	0.30000000000000004	6	2	4.199999999999998	0.6000000000000001	1	0	0.7	0.30000000000000004	6	2	4.199999999999998	0.6000000000000001	valid	0.4665699479992327	53248.0	0	1.0	2.0	51200	0	51200	0	51200	0	0.7	51200	blue	red	1	0	ml	2.7.3	lorasick	sub-02_ses-01_task-ml_proj-lorasick_2020-11-13-13-51-08.533158
94	2	1	2	95	volatile	3	40	35	vs	red	blue	blue	red	right	left	0.7	0.30000000000000004	10	2	7.0	0.6000000000000001	1	0	0.30000000000000004	0.7	2	10	0.6000000000000001	7.0	valid	0.4165918069993495	53248.0	0	1.0	1.0	53248	1	53248	1	53248	1	0.7	53248	blue	red	1	10	ml	2.7.3	lorasick	sub-02_ses-01_task-ml_proj-lorasick_2020-11-13-13-51-08.533158
95	2	1	2	96	volatile	3	40	36	vs	red	blue	blue	red	right	left	0.7	0.30000000000000004	6	4	4.199999999999998	1.2000000000000002	1	0	0.30000000000000004	0.7	4	6	1.2000000000000002	4.199999999999998	valid	0.4165833669976564	53248.0	0	1.0	1.0	53248	1	53248	1	53248	1	0.7	53248	blue	red	1	6	ml	2.7.3	lorasick	sub-02_ses-01_task-ml_proj-lorasick_2020-11-13-13-51-08.533158
96	2	1	2	97	volatile	3	40	37	vs	blue	red	blue	red	left	right	0.7	0.30000000000000004	4	6	2.8	1.8000000000000005	1	0	0.7	0.30000000000000004	4	6	2.8	1.8000000000000005	valid	0.4498957719988539	51200.0	0	0.0	1.0	51200	1	51200	1	53248	0	0.7	51200	blue	red	0	4	ml	2.7.3	lorasick	sub-02_ses-01_task-ml_proj-lorasick_2020-11-13-13-51-08.533158
97	2	1	2	98	volatile	3	40	38	vs	blue	red	blue	red	left	right	0.7	0.30000000000000004	10	2	7.0	0.6000000000000001	1	0	0.7	0.30000000000000004	10	2	7.0	0.6000000000000001	valid	2.9825119679990166	nan	1	nan	nan	51200	0	51200	0	51200	0	0.7	51200	blue	red	1	0	ml	2.7.3	lorasick	sub-02_ses-01_task-ml_proj-lorasick_2020-11-13-13-51-08.533158
98	2	1	2	99	volatile	3	40	39	vs	red	blue	blue	red	right	left	0.7	0.30000000000000004	6	4	4.199999999999998	1.2000000000000002	0	1	0.30000000000000004	0.7	4	6	1.2000000000000002	4.199999999999998	invalid	0.5332018670014804	51200.0	0	0.0	2.0	53248	0	53248	0	53248	0	0.7	53248	blue	red	1	4	ml	2.7.3	lorasick	sub-02_ses-01_task-ml_proj-lorasick_2020-11-13-13-51-08.533158
99	2	1	2	100	volatile	3	40	40	vs	blue	red	blue	red	left	right	0.7	0.30000000000000004	10	2	7.0	0.6000000000000001	0	1	0.7	0.30000000000000004	10	2	7.0	0.6000000000000001	invalid	0.5665281450019393	53248.0	0	1.0	2.0	51200	0	51200	0	51200	0	0.7	51200	blue	red	1	2	ml	2.7.3	lorasick	sub-02_ses-01_task-ml_proj-lorasick_2020-11-13-13-51-08.533158
100	2	1	3	101	volatile	4	20	1	vs	blue	red	blue	red	left	right	0.30000000000000004	0.7	4	6	1.2000000000000002	4.199999999999998	0	1	0.30000000000000004	0.7	4	6	1.2000000000000002	4.199999999999998	valid	0.5665502740012016	51200.0	0	0.0	1.0	53248	0	53248	0	53248	0	0.7	53248	red	blue	1	0	ml	2.7.3	lorasick	sub-02_ses-01_task-ml_proj-lorasick_2020-11-13-13-51-08.533158
101	2	1	3	102	volatile	4	20	2	vs	red	blue	blue	red	right	left	0.30000000000000004	0.7	4	6	1.2000000000000002	4.199999999999998	0	1	0.7	0.30000000000000004	6	4	4.199999999999998	1.2000000000000002	valid	0.33326675400167005	51200.0	0	0.0	2.0	51200	1	51200	1	51200	1	0.7	51200	red	blue	1	6	ml	2.7.3	lorasick	sub-02_ses-01_task-ml_proj-lorasick_2020-11-13-13-51-08.533158
102	2	1	3	103	volatile	4	20	3	vs	blue	red	blue	red	left	right	0.30000000000000004	0.7	4	6	1.2000000000000002	4.199999999999998	0	1	0.30000000000000004	0.7	4	6	1.2000000000000002	4.199999999999998	valid	0.3499357190012233	53248.0	0	1.0	2.0	53248	1	53248	1	53248	1	0.7	53248	red	blue	1	6	ml	2.7.3	lorasick	sub-02_ses-01_task-ml_proj-lorasick_2020-11-13-13-51-08.533158
103	2	1	3	104	volatile	4	20	4	vs	red	blue	blue	red	right	left	0.30000000000000004	0.7	4	6	1.2000000000000002	4.199999999999998	0	1	0.7	0.30000000000000004	6	4	4.199999999999998	1.2000000000000002	valid	0.3165937539997685	51200.0	0	0.0	2.0	51200	1	51200	1	51200	1	0.7	51200	red	blue	1	6	ml	2.7.3	lorasick	sub-02_ses-01_task-ml_proj-lorasick_2020-11-13-13-51-08.533158
104	2	1	3	105	volatile	4	20	5	vs	blue	red	blue	red	left	right	0.30000000000000004	0.7	4	2	1.2000000000000002	1.4	1	0	0.30000000000000004	0.7	4	2	1.2000000000000002	1.4	invalid	0.34994314800133003	53248.0	0	1.0	2.0	53248	1	53248	1	51200	0	0.7	53248	red	blue	0	0	ml	2.7.3	lorasick	sub-02_ses-01_task-ml_proj-lorasick_2020-11-13-13-51-08.533158
105	2	1	3	106	volatile	4	20	6	vs	red	blue	blue	red	right	left	0.30000000000000004	0.7	2	4	0.6000000000000001	2.8	1	0	0.7	0.30000000000000004	4	2	2.8	0.6000000000000001	invalid	0.3832589320008992	53248.0	0	1.0	1.0	51200	0	51200	0	51200	0	0.7	51200	red	blue	1	2	ml	2.7.3	lorasick	sub-02_ses-01_task-ml_proj-lorasick_2020-11-13-13-51-08.533158
106	2	1	3	107	volatile	4	20	7	vs	red	blue	blue	red	right	left	0.30000000000000004	0.7	6	6	1.8000000000000005	4.199999999999998	1	0	0.7	0.30000000000000004	6	6	4.199999999999998	1.8000000000000005	invalid	0.38325952399827656	53248.0	0	1.0	1.0	51200	0	51200	0	53248	1	0.7	51200	red	blue	1	6	ml	2.7.3	lorasick	sub-02_ses-01_task-ml_proj-lorasick_2020-11-13-13-51-08.533158
107	2	1	3	108	volatile	4	20	8	vs	blue	red	blue	red	left	right	0.30000000000000004	0.7	2	10	0.6000000000000001	7.0	1	0	0.30000000000000004	0.7	2	10	0.6000000000000001	7.0	invalid	0.3499262240002281	51200.0	0	0.0	1.0	53248	0	53248	0	53248	0	0.7	53248	red	blue	1	2	ml	2.7.3	lorasick	sub-02_ses-01_task-ml_proj-lorasick_2020-11-13-13-51-08.533158
108	2	1	3	109	volatile	4	20	9	vs	red	blue	blue	red	right	left	0.30000000000000004	0.7	2	6	0.6000000000000001	4.199999999999998	0	1	0.7	0.30000000000000004	6	2	4.199999999999998	0.6000000000000001	valid	0.4499352990023908	53248.0	0	1.0	1.0	51200	0	51200	0	51200	0	0.7	51200	red	blue	1	0	ml	2.7.3	lorasick	sub-02_ses-01_task-ml_proj-lorasick_2020-11-13-13-51-08.533158
109	2	1	3	110	volatile	4	20	10	vs	blue	red	blue	red	left	right	0.30000000000000004	0.7	10	2	3.0000000000000004	1.4	0	1	0.30000000000000004	0.7	10	2	3.0000000000000004	1.4	valid	0.51655354399918	53248.0	0	1.0	2.0	51200	0	53248	1	51200	0	0.7	53248	red	blue	0	2	ml	2.7.3	lorasick	sub-02_ses-01_task-ml_proj-lorasick_2020-11-13-13-51-08.533158
110	2	1	3	111	volatile	4	20	11	vs	blue	red	blue	red	left	right	0.30000000000000004	0.7	2	4	0.6000000000000001	2.8	0	1	0.30000000000000004	0.7	2	4	0.6000000000000001	2.8	valid	0.3999216310003249	53248.0	0	1.0	2.0	53248	1	53248	1	53248	1	0.7	53248	red	blue	1	4	ml	2.7.3	lorasick	sub-02_ses-01_task-ml_proj-lorasick_2020-11-13-13-51-08.533158
111	2	1	3	112	volatile	4	20	12	vs	red	blue	blue	red	right	left	0.30000000000000004	0.7	6	6	1.8000000000000005	4.199999999999998	0	1	0.7	0.30000000000000004	6	6	4.199999999999998	1.8000000000000005	valid	2.982505541000137	nan	1	nan	nan	51200	0	51200	0	53248	0	0.7	51200	red	blue	1	0	ml	2.7.3	lorasick	sub-02_ses-01_task-ml_proj-lorasick_2020-11-13-13-51-08.533158
112	2	1	3	113	volatile	4	20	13	vs	blue	red	blue	red	left	right	0.30000000000000004	0.7	2	2	0.6000000000000001	1.4	0	1	0.30000000000000004	0.7	2	2	0.6000000000000001	1.4	valid	0.7997963720008556	51200.0	0	0.0	1.0	53248	0	53248	0	53248	0	0.7	53248	red	blue	0	0	ml	2.7.3	lorasick	sub-02_ses-01_task-ml_proj-lorasick_2020-11-13-13-51-08.533158
113	2	1	3	114	volatile	4	20	14	vs	red	blue	blue	red	right	left	0.30000000000000004	0.7	2	2	0.6000000000000001	1.4	0	1	0.7	0.30000000000000004	2	2	1.4	0.6000000000000001	valid	0.7331586170002993	53248.0	0	1.0	1.0	51200	0	51200	0	53248	1	0.7	51200	red	blue	1	0	ml	2.7.3	lorasick	sub-02_ses-01_task-ml_proj-lorasick_2020-11-13-13-51-08.533158
114	2	1	3	115	volatile	4	20	15	vs	red	blue	blue	red	right	left	0.30000000000000004	0.7	2	6	0.6000000000000001	4.199999999999998	0	1	0.7	0.30000000000000004	6	2	4.199999999999998	0.6000000000000001	valid	0.33326628799841274	51200.0	0	0.0	2.0	51200	1	51200	1	51200	1	0.7	51200	red	blue	1	6	ml	2.7.3	lorasick	sub-02_ses-01_task-ml_proj-lorasick_2020-11-13-13-51-08.533158
115	2	1	3	116	volatile	4	20	16	vs	blue	red	blue	red	left	right	0.30000000000000004	0.7	10	2	3.0000000000000004	1.4	0	1	0.30000000000000004	0.7	10	2	3.0000000000000004	1.4	valid	0.33327432700025383	53248.0	0	1.0	2.0	51200	0	53248	1	51200	0	0.7	53248	red	blue	0	2	ml	2.7.3	lorasick	sub-02_ses-01_task-ml_proj-lorasick_2020-11-13-13-51-08.533158
116	2	1	3	117	volatile	4	20	17	vs	blue	red	blue	red	left	right	0.30000000000000004	0.7	2	6	0.6000000000000001	4.199999999999998	0	1	0.30000000000000004	0.7	2	6	0.6000000000000001	4.199999999999998	valid	0.3832623689995671	53248.0	0	1.0	2.0	53248	1	53248	1	53248	1	0.7	53248	red	blue	1	6	ml	2.7.3	lorasick	sub-02_ses-01_task-ml_proj-lorasick_2020-11-13-13-51-08.533158
117	2	1	3	118	volatile	4	20	18	vs	red	blue	blue	red	right	left	0.30000000000000004	0.7	4	2	1.2000000000000002	1.4	0	1	0.7	0.30000000000000004	2	4	1.4	1.2000000000000002	valid	0.6331738150001911	51200.0	0	0.0	2.0	51200	1	51200	1	53248	0	0.7	51200	red	blue	0	2	ml	2.7.3	lorasick	sub-02_ses-01_task-ml_proj-lorasick_2020-11-13-13-51-08.533158
118	2	1	3	119	volatile	4	20	19	vs	red	blue	blue	red	right	left	0.30000000000000004	0.7	6	2	1.8000000000000005	1.4	1	0	0.7	0.30000000000000004	2	6	1.4	1.8000000000000005	invalid	0.5498658329997852	51200.0	0	0.0	2.0	53248	0	51200	1	53248	0	0.7	51200	red	blue	0	0	ml	2.7.3	lorasick	sub-02_ses-01_task-ml_proj-lorasick_2020-11-13-13-51-08.533158
119	2	1	3	120	volatile	4	20	20	vs	blue	red	blue	red	left	right	0.30000000000000004	0.7	2	10	0.6000000000000001	7.0	1	0	0.30000000000000004	0.7	2	10	0.6000000000000001	7.0	invalid	0.34992581499682274	51200.0	0	0.0	1.0	53248	0	53248	0	53248	0	0.7	53248	red	blue	1	2	ml	2.7.3	lorasick	sub-02_ses-01_task-ml_proj-lorasick_2020-11-13-13-51-08.533158
120	2	1	3	121	volatile	5	20	1	vs	blue	red	blue	red	left	right	0.7	0.30000000000000004	4	2	2.8	0.6000000000000001	1	0	0.7	0.30000000000000004	4	2	2.8	0.6000000000000001	valid	0.3499225009982183	51200.0	0	0.0	1.0	51200	1	51200	1	51200	1	0.7	51200	blue	red	1	4	ml	2.7.3	lorasick	sub-02_ses-01_task-ml_proj-lorasick_2020-11-13-13-51-08.533158
121	2	1	3	122	volatile	5	20	2	vs	blue	red	blue	red	left	right	0.7	0.30000000000000004	2	4	1.4	1.2000000000000002	1	0	0.7	0.30000000000000004	2	4	1.4	1.2000000000000002	valid	0.3332532060012454	51200.0	0	0.0	1.0	51200	1	51200	1	53248	0	0.7	51200	blue	red	0	2	ml	2.7.3	lorasick	sub-02_ses-01_task-ml_proj-lorasick_2020-11-13-13-51-08.533158
122	2	1	3	123	volatile	5	20	3	vs	red	blue	blue	red	right	left	0.7	0.30000000000000004	6	4	4.199999999999998	1.2000000000000002	1	0	0.30000000000000004	0.7	4	6	1.2000000000000002	4.199999999999998	valid	0.3665989120017912	53248.0	0	1.0	1.0	53248	1	53248	1	53248	1	0.7	53248	blue	red	1	6	ml	2.7.3	lorasick	sub-02_ses-01_task-ml_proj-lorasick_2020-11-13-13-51-08.533158
123	2	1	3	124	volatile	5	20	4	vs	red	blue	blue	red	right	left	0.7	0.30000000000000004	6	6	4.199999999999998	1.8000000000000005	1	0	0.30000000000000004	0.7	6	6	1.8000000000000005	4.199999999999998	valid	0.3999204909996479	53248.0	0	1.0	1.0	53248	1	53248	1	53248	1	0.7	53248	blue	red	0	6	ml	2.7.3	lorasick	sub-02_ses-01_task-ml_proj-lorasick_2020-11-13-13-51-08.533158
124	2	1	3	125	volatile	5	20	5	vs	blue	red	blue	red	left	right	0.7	0.30000000000000004	2	6	1.4	1.8000000000000005	1	0	0.7	0.30000000000000004	2	6	1.4	1.8000000000000005	valid	0.36658259899923	51200.0	0	0.0	1.0	53248	0	51200	1	53248	0	0.7	51200	blue	red	0	2	ml	2.7.3	lorasick	sub-02_ses-01_task-ml_proj-lorasick_2020-11-13-13-51-08.533158
125	2	1	3	126	volatile	5	20	6	vs	red	blue	blue	red	right	left	0.7	0.30000000000000004	2	2	1.4	0.6000000000000001	1	0	0.30000000000000004	0.7	2	2	0.6000000000000001	1.4	valid	0.3499353400002292	53248.0	0	1.0	1.0	53248	1	53248	1	53248	1	0.7	53248	blue	red	0	2	ml	2.7.3	lorasick	sub-02_ses-01_task-ml_proj-lorasick_2020-11-13-13-51-08.533158
126	2	1	3	127	volatile	5	20	7	vs	red	blue	blue	red	right	left	0.7	0.30000000000000004	6	6	4.199999999999998	1.8000000000000005	0	1	0.30000000000000004	0.7	6	6	1.8000000000000005	4.199999999999998	invalid	0.31660512300004484	53248.0	0	1.0	1.0	53248	1	53248	1	53248	1	0.7	53248	blue	red	0	0	ml	2.7.3	lorasick	sub-02_ses-01_task-ml_proj-lorasick_2020-11-13-13-51-08.533158
127	2	1	3	128	volatile	5	20	8	vs	blue	red	blue	red	left	right	0.7	0.30000000000000004	6	2	4.199999999999998	0.6000000000000001	0	1	0.7	0.30000000000000004	6	2	4.199999999999998	0.6000000000000001	invalid	0.33327348600141704	53248.0	0	1.0	2.0	51200	0	51200	0	51200	0	0.7	51200	blue	red	1	2	ml	2.7.3	lorasick	sub-02_ses-01_task-ml_proj-lorasick_2020-11-13-13-51-08.533158
128	2	1	3	129	volatile	5	20	9	vs	blue	red	blue	red	left	right	0.7	0.30000000000000004	6	4	4.199999999999998	1.2000000000000002	1	0	0.7	0.30000000000000004	6	4	4.199999999999998	1.2000000000000002	valid	0.33326707699961844	53248.0	0	1.0	2.0	51200	0	51200	0	51200	0	0.7	51200	blue	red	1	0	ml	2.7.3	lorasick	sub-02_ses-01_task-ml_proj-lorasick_2020-11-13-13-51-08.533158
129	2	1	3	130	volatile	5	20	10	vs	blue	red	blue	red	left	right	0.7	0.30000000000000004	6	4	4.199999999999998	1.2000000000000002	1	0	0.7	0.30000000000000004	6	4	4.199999999999998	1.2000000000000002	valid	0.3166037810005946	51200.0	0	0.0	1.0	51200	1	51200	1	51200	1	0.7	51200	blue	red	1	6	ml	2.7.3	lorasick	sub-02_ses-01_task-ml_proj-lorasick_2020-11-13-13-51-08.533158
130	2	1	3	131	volatile	5	20	11	vs	red	blue	blue	red	right	left	0.7	0.30000000000000004	2	4	1.4	1.2000000000000002	0	1	0.30000000000000004	0.7	4	2	1.2000000000000002	1.4	invalid	0.3832578639994608	53248.0	0	1.0	1.0	53248	1	53248	1	51200	0	0.7	53248	blue	red	0	0	ml	2.7.3	lorasick	sub-02_ses-01_task-ml_proj-lorasick_2020-11-13-13-51-08.533158
131	2	1	3	132	volatile	5	20	12	vs	red	blue	blue	red	right	left	0.7	0.30000000000000004	6	2	4.199999999999998	0.6000000000000001	1	0	0.30000000000000004	0.7	2	6	0.6000000000000001	4.199999999999998	valid	0.3665800300004776	51200.0	0	0.0	2.0	53248	0	53248	0	53248	0	0.7	53248	blue	red	1	0	ml	2.7.3	lorasick	sub-02_ses-01_task-ml_proj-lorasick_2020-11-13-13-51-08.533158
132	2	1	3	133	volatile	5	20	13	vs	blue	red	blue	red	left	right	0.7	0.30000000000000004	2	4	1.4	1.2000000000000002	1	0	0.7	0.30000000000000004	2	4	1.4	1.2000000000000002	valid	0.3499256590002915	51200.0	0	0.0	1.0	51200	1	51200	1	53248	0	0.7	51200	blue	red	0	2	ml	2.7.3	lorasick	sub-02_ses-01_task-ml_proj-lorasick_2020-11-13-13-51-08.533158
133	2	1	3	134	volatile	5	20	14	vs	blue	red	blue	red	left	right	0.7	0.30000000000000004	2	2	1.4	0.6000000000000001	1	0	0.7	0.30000000000000004	2	2	1.4	0.6000000000000001	valid	0.3332675999990897	51200.0	0	0.0	1.0	51200	1	51200	1	53248	0	0.7	51200	blue	red	1	2	ml	2.7.3	lorasick	sub-02_ses-01_task-ml_proj-lorasick_2020-11-13-13-51-08.533158
134	2	1	3	135	volatile	5	20	15	vs	red	blue	blue	red	right	left	0.7	0.30000000000000004	6	4	4.199999999999998	1.2000000000000002	1	0	0.30000000000000004	0.7	4	6	1.2000000000000002	4.199999999999998	valid	0.34993465400111745	53248.0	0	1.0	1.0	53248	1	53248	1	53248	1	0.7	53248	blue	red	1	6	ml	2.7.3	lorasick	sub-02_ses-01_task-ml_proj-lorasick_2020-11-13-13-51-08.533158
135	2	1	3	136	volatile	5	20	16	vs	red	blue	blue	red	right	left	0.7	0.30000000000000004	2	10	1.4	3.0000000000000004	1	0	0.30000000000000004	0.7	10	2	3.0000000000000004	1.4	valid	0.3665864239992516	51200.0	0	0.0	2.0	51200	1	53248	0	51200	1	0.7	53248	blue	red	0	0	ml	2.7.3	lorasick	sub-02_ses-01_task-ml_proj-lorasick_2020-11-13-13-51-08.533158
136	2	1	3	137	volatile	5	20	17	vs	red	blue	blue	red	right	left	0.7	0.30000000000000004	2	10	1.4	3.0000000000000004	1	0	0.30000000000000004	0.7	10	2	3.0000000000000004	1.4	valid	0.5498780289999559	53248.0	0	1.0	1.0	51200	0	53248	1	51200	0	0.7	53248	blue	red	0	2	ml	2.7.3	lorasick	sub-02_ses-01_task-ml_proj-lorasick_2020-11-13-13-51-08.533158
137	2	1	3	138	volatile	5	20	18	vs	red	blue	blue	red	right	left	0.7	0.30000000000000004	10	2	7.0	0.6000000000000001	0	1	0.30000000000000004	0.7	2	10	0.6000000000000001	7.0	invalid	0.3665982589991472	53248.0	0	1.0	1.0	53248	1	53248	1	53248	1	0.7	53248	blue	red	1	0	ml	2.7.3	lorasick	sub-02_ses-01_task-ml_proj-lorasick_2020-11-13-13-51-08.533158
138	2	1	3	139	volatile	5	20	19	vs	blue	red	blue	red	left	right	0.7	0.30000000000000004	6	2	4.199999999999998	0.6000000000000001	0	1	0.7	0.30000000000000004	6	2	4.199999999999998	0.6000000000000001	invalid	0.4165829109988408	53248.0	0	1.0	2.0	51200	0	51200	0	51200	0	0.7	51200	blue	red	1	2	ml	2.7.3	lorasick	sub-02_ses-01_task-ml_proj-lorasick_2020-11-13-13-51-08.533158
139	2	1	3	140	volatile	5	20	20	vs	blue	red	blue	red	left	right	0.7	0.30000000000000004	2	10	1.4	3.0000000000000004	0	1	0.7	0.30000000000000004	2	10	1.4	3.0000000000000004	invalid	0.4832315829989966	53248.0	0	1.0	2.0	53248	1	51200	0	53248	1	0.7	51200	blue	red	0	10	ml	2.7.3	lorasick	sub-02_ses-01_task-ml_proj-lorasick_2020-11-13-13-51-08.533158
140	2	1	3	141	volatile	6	40	1	vs	blue	red	blue	red	left	right	0.30000000000000004	0.7	4	2	1.2000000000000002	1.4	0	1	0.30000000000000004	0.7	4	2	1.2000000000000002	1.4	valid	0.4832310389974737	53248.0	0	1.0	2.0	53248	1	53248	1	51200	0	0.7	53248	red	blue	0	2	ml	2.7.3	lorasick	sub-02_ses-01_task-ml_proj-lorasick_2020-11-13-13-51-08.533158
141	2	1	3	142	volatile	6	40	2	vs	red	blue	blue	red	right	left	0.30000000000000004	0.7	6	2	1.8000000000000005	1.4	1	0	0.7	0.30000000000000004	2	6	1.4	1.8000000000000005	invalid	0.5831895119990804	51200.0	0	0.0	2.0	53248	0	51200	1	53248	0	0.7	51200	red	blue	0	0	ml	2.7.3	lorasick	sub-02_ses-01_task-ml_proj-lorasick_2020-11-13-13-51-08.533158
142	2	1	3	143	volatile	6	40	3	vs	red	blue	blue	red	right	left	0.30000000000000004	0.7	6	4	1.8000000000000005	2.8	0	1	0.7	0.30000000000000004	4	6	2.8	1.8000000000000005	valid	0.3832551839986991	53248.0	0	1.0	1.0	51200	0	51200	0	53248	1	0.7	51200	red	blue	0	0	ml	2.7.3	lorasick	sub-02_ses-01_task-ml_proj-lorasick_2020-11-13-13-51-08.533158
143	2	1	3	144	volatile	6	40	4	vs	red	blue	blue	red	right	left	0.30000000000000004	0.7	2	6	0.6000000000000001	4.199999999999998	0	1	0.7	0.30000000000000004	6	2	4.199999999999998	0.6000000000000001	valid	0.4665609969997604	51200.0	0	0.0	2.0	51200	1	51200	1	51200	1	0.7	51200	red	blue	1	6	ml	2.7.3	lorasick	sub-02_ses-01_task-ml_proj-lorasick_2020-11-13-13-51-08.533158
144	2	1	3	145	volatile	6	40	5	vs	red	blue	blue	red	right	left	0.30000000000000004	0.7	2	2	0.6000000000000001	1.4	0	1	0.7	0.30000000000000004	2	2	1.4	0.6000000000000001	valid	0.3665866859992093	51200.0	0	0.0	2.0	51200	1	51200	1	53248	0	0.7	51200	red	blue	1	2	ml	2.7.3	lorasick	sub-02_ses-01_task-ml_proj-lorasick_2020-11-13-13-51-08.533158
145	2	1	3	146	volatile	6	40	6	vs	red	blue	blue	red	right	left	0.30000000000000004	0.7	4	2	1.2000000000000002	1.4	0	1	0.7	0.30000000000000004	2	4	1.4	1.2000000000000002	valid	0.3499262240002281	51200.0	0	0.0	2.0	51200	1	51200	1	53248	0	0.7	51200	red	blue	0	2	ml	2.7.3	lorasick	sub-02_ses-01_task-ml_proj-lorasick_2020-11-13-13-51-08.533158
146	2	1	3	147	volatile	6	40	7	vs	red	blue	blue	red	right	left	0.30000000000000004	0.7	2	2	0.6000000000000001	1.4	0	1	0.7	0.30000000000000004	2	2	1.4	0.6000000000000001	valid	0.28327911000087624	51200.0	0	0.0	2.0	51200	1	51200	1	53248	0	0.7	51200	red	blue	1	2	ml	2.7.3	lorasick	sub-02_ses-01_task-ml_proj-lorasick_2020-11-13-13-51-08.533158
147	2	1	3	148	volatile	6	40	8	vs	blue	red	blue	red	left	right	0.30000000000000004	0.7	6	4	1.8000000000000005	2.8	0	1	0.30000000000000004	0.7	6	4	1.8000000000000005	2.8	valid	1.13303100900157	51200.0	0	0.0	1.0	53248	0	53248	0	51200	1	0.7	53248	red	blue	0	0	ml	2.7.3	lorasick	sub-02_ses-01_task-ml_proj-lorasick_2020-11-13-13-51-08.533158
148	2	1	3	149	volatile	6	40	9	vs	blue	red	blue	red	left	right	0.30000000000000004	0.7	6	4	1.8000000000000005	2.8	0	1	0.30000000000000004	0.7	6	4	1.8000000000000005	2.8	valid	0.6498389539992786	51200.0	0	0.0	1.0	53248	0	53248	0	51200	1	0.7	53248	red	blue	0	0	ml	2.7.3	lorasick	sub-02_ses-01_task-ml_proj-lorasick_2020-11-13-13-51-08.533158
149	2	1	3	150	volatile	6	40	10	vs	red	blue	blue	red	right	left	0.30000000000000004	0.7	2	10	0.6000000000000001	7.0	1	0	0.7	0.30000000000000004	10	2	7.0	0.6000000000000001	invalid	0.3665872970013879	51200.0	0	0.0	2.0	51200	1	51200	1	51200	1	0.7	51200	red	blue	1	0	ml	2.7.3	lorasick	sub-02_ses-01_task-ml_proj-lorasick_2020-11-13-13-51-08.533158
150	2	1	4	151	volatile	6	40	11	vs	blue	red	blue	red	left	right	0.30000000000000004	0.7	6	6	1.8000000000000005	4.199999999999998	1	0	0.30000000000000004	0.7	6	6	1.8000000000000005	4.199999999999998	invalid	0.7331473199992615	51200.0	0	0.0	1.0	53248	0	53248	0	53248	0	0.7	53248	red	blue	0	6	ml	2.7.3	lorasick	sub-02_ses-01_task-ml_proj-lorasick_2020-11-13-13-51-08.533158
151	2	1	4	152	volatile	6	40	12	vs	red	blue	blue	red	right	left	0.30000000000000004	0.7	6	4	1.8000000000000005	2.8	0	1	0.7	0.30000000000000004	4	6	2.8	1.8000000000000005	valid	0.4832268780010054	53248.0	0	1.0	1.0	51200	0	51200	0	53248	1	0.7	51200	red	blue	0	0	ml	2.7.3	lorasick	sub-02_ses-01_task-ml_proj-lorasick_2020-11-13-13-51-08.533158
152	2	1	4	153	volatile	6	40	13	vs	red	blue	blue	red	right	left	0.30000000000000004	0.7	6	2	1.8000000000000005	1.4	1	0	0.7	0.30000000000000004	2	6	1.4	1.8000000000000005	invalid	0.36658603599789785	51200.0	0	0.0	2.0	53248	0	51200	1	53248	0	0.7	51200	red	blue	0	0	ml	2.7.3	lorasick	sub-02_ses-01_task-ml_proj-lorasick_2020-11-13-13-51-08.533158
153	2	1	4	154	volatile	6	40	14	vs	red	blue	blue	red	right	left	0.30000000000000004	0.7	2	10	0.6000000000000001	7.0	0	1	0.7	0.30000000000000004	10	2	7.0	0.6000000000000001	valid	0.4499071249992994	53248.0	0	1.0	1.0	51200	0	51200	0	51200	0	0.7	51200	red	blue	1	0	ml	2.7.3	lorasick	sub-02_ses-01_task-ml_proj-lorasick_2020-11-13-13-51-08.533158
154	2	1	4	155	volatile	6	40	15	vs	blue	red	blue	red	left	right	0.30000000000000004	0.7	2	6	0.6000000000000001	4.199999999999998	1	0	0.30000000000000004	0.7	2	6	0.6000000000000001	4.199999999999998	invalid	0.4998938369972166	53248.0	0	1.0	2.0	53248	1	53248	1	53248	1	0.7	53248	red	blue	1	0	ml	2.7.3	lorasick	sub-02_ses-01_task-ml_proj-lorasick_2020-11-13-13-51-08.533158
155	2	1	4	156	volatile	6	40	16	vs	blue	red	blue	red	left	right	0.30000000000000004	0.7	6	6	1.8000000000000005	4.199999999999998	0	1	0.30000000000000004	0.7	6	6	1.8000000000000005	4.199999999999998	valid	0.5998537599989504	51200.0	0	0.0	1.0	53248	0	53248	0	53248	0	0.7	53248	red	blue	0	0	ml	2.7.3	lorasick	sub-02_ses-01_task-ml_proj-lorasick_2020-11-13-13-51-08.533158
156	2	1	4	157	volatile	6	40	17	vs	red	blue	blue	red	right	left	0.30000000000000004	0.7	10	2	3.0000000000000004	1.4	1	0	0.7	0.30000000000000004	2	10	1.4	3.0000000000000004	invalid	0.6831690629987861	51200.0	0	0.0	2.0	53248	0	51200	1	53248	0	0.7	51200	red	blue	0	0	ml	2.7.3	lorasick	sub-02_ses-01_task-ml_proj-lorasick_2020-11-13-13-51-08.533158
157	2	1	4	158	volatile	6	40	18	vs	red	blue	blue	red	right	left	0.30000000000000004	0.7	2	2	0.6000000000000001	1.4	0	1	0.7	0.30000000000000004	2	2	1.4	0.6000000000000001	valid	0.3332636300001468	51200.0	0	0.0	2.0	51200	1	51200	1	53248	0	0.7	51200	red	blue	1	2	ml	2.7.3	lorasick	sub-02_ses-01_task-ml_proj-lorasick_2020-11-13-13-51-08.533158
158	2	1	4	159	volatile	6	40	19	vs	blue	red	blue	red	left	right	0.30000000000000004	0.7	6	6	1.8000000000000005	4.199999999999998	0	1	0.30000000000000004	0.7	6	6	1.8000000000000005	4.199999999999998	valid	0.7331481239998539	51200.0	0	0.0	1.0	53248	0	53248	0	53248	0	0.7	53248	red	blue	0	0	ml	2.7.3	lorasick	sub-02_ses-01_task-ml_proj-lorasick_2020-11-13-13-51-08.533158
159	2	1	4	160	volatile	6	40	20	vs	blue	red	blue	red	left	right	0.30000000000000004	0.7	4	2	1.2000000000000002	1.4	0	1	0.30000000000000004	0.7	4	2	1.2000000000000002	1.4	valid	1.8495011520026308	53248.0	0	1.0	2.0	53248	1	53248	1	51200	0	0.7	53248	red	blue	0	2	ml	2.7.3	lorasick	sub-02_ses-01_task-ml_proj-lorasick_2020-11-13-13-51-08.533158
160	2	1	4	161	volatile	6	40	21	vs	blue	red	blue	red	left	right	0.30000000000000004	0.7	10	2	3.0000000000000004	1.4	0	1	0.30000000000000004	0.7	10	2	3.0000000000000004	1.4	valid	0.4499000239993621	53248.0	0	1.0	2.0	51200	0	53248	1	51200	0	0.7	53248	red	blue	0	2	ml	2.7.3	lorasick	sub-02_ses-01_task-ml_proj-lorasick_2020-11-13-13-51-08.533158
161	2	1	4	162	volatile	6	40	22	vs	blue	red	blue	red	left	right	0.30000000000000004	0.7	6	6	1.8000000000000005	4.199999999999998	0	1	0.30000000000000004	0.7	6	6	1.8000000000000005	4.199999999999998	valid	0.3999139980005566	53248.0	0	1.0	2.0	53248	1	53248	1	53248	1	0.7	53248	red	blue	0	6	ml	2.7.3	lorasick	sub-02_ses-01_task-ml_proj-lorasick_2020-11-13-13-51-08.533158
162	2	1	4	163	volatile	6	40	23	vs	blue	red	blue	red	left	right	0.30000000000000004	0.7	4	6	1.2000000000000002	4.199999999999998	1	0	0.30000000000000004	0.7	4	6	1.2000000000000002	4.199999999999998	invalid	0.5832019730005413	53248.0	0	1.0	2.0	53248	1	53248	1	53248	1	0.7	53248	red	blue	1	0	ml	2.7.3	lorasick	sub-02_ses-01_task-ml_proj-lorasick_2020-11-13-13-51-08.533158
163	2	1	4	164	volatile	6	40	24	vs	blue	red	blue	red	left	right	0.30000000000000004	0.7	6	2	1.8000000000000005	1.4	1	0	0.30000000000000004	0.7	6	2	1.8000000000000005	1.4	invalid	0.5165375889991992	51200.0	0	0.0	1.0	51200	1	53248	0	51200	1	0.7	53248	red	blue	0	6	ml	2.7.3	lorasick	sub-02_ses-01_task-ml_proj-lorasick_2020-11-13-13-51-08.533158
164	2	1	4	165	volatile	6	40	25	vs	blue	red	blue	red	left	right	0.30000000000000004	0.7	2	10	0.6000000000000001	7.0	0	1	0.30000000000000004	0.7	2	10	0.6000000000000001	7.0	valid	0.5831992769999488	53248.0	0	1.0	2.0	53248	1	53248	1	53248	1	0.7	53248	red	blue	1	10	ml	2.7.3	lorasick	sub-02_ses-01_task-ml_proj-lorasick_2020-11-13-13-51-08.533158
165	2	1	4	166	volatile	6	40	26	vs	red	blue	blue	red	right	left	0.30000000000000004	0.7	4	6	1.2000000000000002	4.199999999999998	0	1	0.7	0.30000000000000004	6	4	4.199999999999998	1.2000000000000002	valid	0.4832205029997567	51200.0	0	0.0	2.0	51200	1	51200	1	51200	1	0.7	51200	red	blue	1	6	ml	2.7.3	lorasick	sub-02_ses-01_task-ml_proj-lorasick_2020-11-13-13-51-08.533158
166	2	1	4	167	volatile	6	40	27	vs	red	blue	blue	red	right	left	0.30000000000000004	0.7	4	6	1.2000000000000002	4.199999999999998	0	1	0.7	0.30000000000000004	6	4	4.199999999999998	1.2000000000000002	valid	0.36658458999954746	51200.0	0	0.0	2.0	51200	1	51200	1	51200	1	0.7	51200	red	blue	1	6	ml	2.7.3	lorasick	sub-02_ses-01_task-ml_proj-lorasick_2020-11-13-13-51-08.533158
167	2	1	4	168	volatile	6	40	28	vs	red	blue	blue	red	right	left	0.30000000000000004	0.7	4	2	1.2000000000000002	1.4	0	1	0.7	0.30000000000000004	2	4	1.4	1.2000000000000002	valid	0.4998801200017624	51200.0	0	0.0	2.0	51200	1	51200	1	53248	0	0.7	51200	red	blue	0	2	ml	2.7.3	lorasick	sub-02_ses-01_task-ml_proj-lorasick_2020-11-13-13-51-08.533158
168	2	1	4	169	volatile	6	40	29	vs	blue	red	blue	red	left	right	0.30000000000000004	0.7	6	2	1.8000000000000005	1.4	0	1	0.30000000000000004	0.7	6	2	1.8000000000000005	1.4	valid	0.3332805169993662	53248.0	0	1.0	2.0	51200	0	53248	1	51200	0	0.7	53248	red	blue	0	2	ml	2.7.3	lorasick	sub-02_ses-01_task-ml_proj-lorasick_2020-11-13-13-51-08.533158
169	2	1	4	170	volatile	6	40	30	vs	blue	red	blue	red	left	right	0.30000000000000004	0.7	2	4	0.6000000000000001	2.8	0	1	0.30000000000000004	0.7	2	4	0.6000000000000001	2.8	valid	0.34993630799726816	53248.0	0	1.0	2.0	53248	1	53248	1	53248	1	0.7	53248	red	blue	1	4	ml	2.7.3	lorasick	sub-02_ses-01_task-ml_proj-lorasick_2020-11-13-13-51-08.533158
170	2	1	4	171	volatile	6	40	31	vs	red	blue	blue	red	right	left	0.30000000000000004	0.7	6	2	1.8000000000000005	1.4	1	0	0.7	0.30000000000000004	2	6	1.4	1.8000000000000005	invalid	0.3665866470000765	51200.0	0	0.0	2.0	53248	0	51200	1	53248	0	0.7	51200	red	blue	0	0	ml	2.7.3	lorasick	sub-02_ses-01_task-ml_proj-lorasick_2020-11-13-13-51-08.533158
171	2	1	4	172	volatile	6	40	32	vs	red	blue	blue	red	right	left	0.30000000000000004	0.7	2	2	0.6000000000000001	1.4	0	1	0.7	0.30000000000000004	2	2	1.4	0.6000000000000001	valid	0.4499137589991733	53248.0	0	1.0	1.0	51200	0	51200	0	53248	1	0.7	51200	red	blue	1	0	ml	2.7.3	lorasick	sub-02_ses-01_task-ml_proj-lorasick_2020-11-13-13-51-08.533158
172	2	1	4	173	volatile	6	40	33	vs	red	blue	blue	red	right	left	0.30000000000000004	0.7	10	2	3.0000000000000004	1.4	0	1	0.7	0.30000000000000004	2	10	1.4	3.0000000000000004	valid	0.4165913520009781	51200.0	0	0.0	2.0	53248	0	51200	1	53248	0	0.7	51200	red	blue	0	2	ml	2.7.3	lorasick	sub-02_ses-01_task-ml_proj-lorasick_2020-11-13-13-51-08.533158
173	2	1	4	174	volatile	6	40	34	vs	blue	red	blue	red	left	right	0.30000000000000004	0.7	4	6	1.2000000000000002	4.199999999999998	1	0	0.30000000000000004	0.7	4	6	1.2000000000000002	4.199999999999998	invalid	0.5832040269997378	53248.0	0	1.0	2.0	53248	1	53248	1	53248	1	0.7	53248	red	blue	1	0	ml	2.7.3	lorasick	sub-02_ses-01_task-ml_proj-lorasick_2020-11-13-13-51-08.533158
174	2	1	4	175	volatile	6	40	35	vs	blue	red	blue	red	left	right	0.30000000000000004	0.7	2	4	0.6000000000000001	2.8	0	1	0.30000000000000004	0.7	2	4	0.6000000000000001	2.8	valid	2.9825124879971554	nan	1	nan	nan	53248	0	53248	0	53248	0	0.7	53248	red	blue	1	0	ml	2.7.3	lorasick	sub-02_ses-01_task-ml_proj-lorasick_2020-11-13-13-51-08.533158
175	2	1	4	176	volatile	6	40	36	vs	blue	red	blue	red	left	right	0.30000000000000004	0.7	4	2	1.2000000000000002	1.4	0	1	0.30000000000000004	0.7	4	2	1.2000000000000002	1.4	valid	9.846899774856864e-05	51200.0	0	0.0	1.0	53248	0	53248	0	51200	1	0.7	53248	red	blue	0	0	ml	2.7.3	lorasick	sub-02_ses-01_task-ml_proj-lorasick_2020-11-13-13-51-08.533158
176	2	1	4	177	volatile	6	40	37	vs	blue	red	blue	red	left	right	0.30000000000000004	0.7	10	2	3.0000000000000004	1.4	0	1	0.30000000000000004	0.7	10	2	3.0000000000000004	1.4	valid	0.416579606000596	51200.0	0	0.0	1.0	51200	1	53248	0	51200	1	0.7	53248	red	blue	0	0	ml	2.7.3	lorasick	sub-02_ses-01_task-ml_proj-lorasick_2020-11-13-13-51-08.533158
177	2	1	4	178	volatile	6	40	38	vs	red	blue	blue	red	right	left	0.30000000000000004	0.7	10	2	3.0000000000000004	1.4	1	0	0.7	0.30000000000000004	2	10	1.4	3.0000000000000004	invalid	0.3499266780017933	51200.0	0	0.0	2.0	53248	0	51200	1	53248	0	0.7	51200	red	blue	0	0	ml	2.7.3	lorasick	sub-02_ses-01_task-ml_proj-lorasick_2020-11-13-13-51-08.533158
178	2	1	4	179	volatile	6	40	39	vs	red	blue	blue	red	right	left	0.30000000000000004	0.7	2	6	0.6000000000000001	4.199999999999998	0	1	0.7	0.30000000000000004	6	2	4.199999999999998	0.6000000000000001	valid	0.4998756450004294	51200.0	0	0.0	2.0	51200	1	51200	1	51200	1	0.7	51200	red	blue	1	6	ml	2.7.3	lorasick	sub-02_ses-01_task-ml_proj-lorasick_2020-11-13-13-51-08.533158
179	2	1	4	180	volatile	6	40	40	vs	blue	red	blue	red	left	right	0.30000000000000004	0.7	4	2	1.2000000000000002	1.4	1	0	0.30000000000000004	0.7	4	2	1.2000000000000002	1.4	invalid	0.8497901510017982	53248.0	0	1.0	2.0	53248	1	53248	1	51200	0	0.7	53248	red	blue	0	0	ml	2.7.3	lorasick	sub-02_ses-01_task-ml_proj-lorasick_2020-11-13-13-51-08.533158
180	2	1	4	181	volatile	7	20	1	vs	red	blue	blue	red	right	left	0.7	0.30000000000000004	2	6	1.4	1.8000000000000005	0	1	0.30000000000000004	0.7	6	2	1.8000000000000005	1.4	invalid	0.3665944749991468	51200.0	0	0.0	2.0	51200	1	53248	0	51200	1	0.7	53248	blue	red	0	6	ml	2.7.3	lorasick	sub-02_ses-01_task-ml_proj-lorasick_2020-11-13-13-51-08.533158
181	2	1	4	182	volatile	7	20	2	vs	red	blue	blue	red	right	left	0.7	0.30000000000000004	4	6	2.8	1.8000000000000005	1	0	0.30000000000000004	0.7	6	4	1.8000000000000005	2.8	valid	0.3666033600020455	53248.0	0	1.0	1.0	53248	1	53248	1	51200	0	0.7	53248	blue	red	0	4	ml	2.7.3	lorasick	sub-02_ses-01_task-ml_proj-lorasick_2020-11-13-13-51-08.533158
182	2	1	4	183	volatile	7	20	3	vs	red	blue	blue	red	right	left	0.7	0.30000000000000004	4	2	2.8	0.6000000000000001	0	1	0.30000000000000004	0.7	2	4	0.6000000000000001	2.8	invalid	0.3332619610009715	51200.0	0	0.0	2.0	53248	0	53248	0	53248	0	0.7	53248	blue	red	1	2	ml	2.7.3	lorasick	sub-02_ses-01_task-ml_proj-lorasick_2020-11-13-13-51-08.533158
183	2	1	4	184	volatile	7	20	4	vs	blue	red	blue	red	left	right	0.7	0.30000000000000004	2	2	1.4	0.6000000000000001	1	0	0.7	0.30000000000000004	2	2	1.4	0.6000000000000001	valid	0.3832502299992484	51200.0	0	0.0	1.0	51200	1	51200	1	53248	0	0.7	51200	blue	red	1	2	ml	2.7.3	lorasick	sub-02_ses-01_task-ml_proj-lorasick_2020-11-13-13-51-08.533158
184	2	1	4	185	volatile	7	20	5	vs	red	blue	blue	red	right	left	0.7	0.30000000000000004	2	6	1.4	1.8000000000000005	1	0	0.30000000000000004	0.7	6	2	1.8000000000000005	1.4	valid	0.6664998939995712	51200.0	0	0.0	2.0	51200	1	53248	0	51200	1	0.7	53248	blue	red	0	0	ml	2.7.3	lorasick	sub-02_ses-01_task-ml_proj-lorasick_2020-11-13-13-51-08.533158
185	2	1	4	186	volatile	7	20	6	vs	red	blue	blue	red	right	left	0.7	0.30000000000000004	6	4	4.199999999999998	1.2000000000000002	1	0	0.30000000000000004	0.7	4	6	1.2000000000000002	4.199999999999998	valid	0.2832793390007282	51200.0	0	0.0	2.0	53248	0	53248	0	53248	0	0.7	53248	blue	red	1	0	ml	2.7.3	lorasick	sub-02_ses-01_task-ml_proj-lorasick_2020-11-13-13-51-08.533158
186	2	1	4	187	volatile	7	20	7	vs	blue	red	blue	red	left	right	0.7	0.30000000000000004	2	10	1.4	3.0000000000000004	1	0	0.7	0.30000000000000004	2	10	1.4	3.0000000000000004	valid	0.3832467180000094	51200.0	0	0.0	1.0	53248	0	51200	1	53248	0	0.7	51200	blue	red	0	2	ml	2.7.3	lorasick	sub-02_ses-01_task-ml_proj-lorasick_2020-11-13-13-51-08.533158
187	2	1	4	188	volatile	7	20	8	vs	blue	red	blue	red	left	right	0.7	0.30000000000000004	6	4	4.199999999999998	1.2000000000000002	1	0	0.7	0.30000000000000004	6	4	4.199999999999998	1.2000000000000002	valid	0.3665871160010283	51200.0	0	0.0	1.0	51200	1	51200	1	51200	1	0.7	51200	blue	red	1	6	ml	2.7.3	lorasick	sub-02_ses-01_task-ml_proj-lorasick_2020-11-13-13-51-08.533158
188	2	1	4	189	volatile	7	20	9	vs	blue	red	blue	red	left	right	0.7	0.30000000000000004	2	6	1.4	1.8000000000000005	1	0	0.7	0.30000000000000004	2	6	1.4	1.8000000000000005	valid	0.38324528299926897	51200.0	0	0.0	1.0	53248	0	51200	1	53248	0	0.7	51200	blue	red	0	2	ml	2.7.3	lorasick	sub-02_ses-01_task-ml_proj-lorasick_2020-11-13-13-51-08.533158
189	2	1	4	190	volatile	7	20	10	vs	blue	red	blue	red	left	right	0.7	0.30000000000000004	4	2	2.8	0.6000000000000001	0	1	0.7	0.30000000000000004	4	2	2.8	0.6000000000000001	invalid	0.26661150500149233	51200.0	0	0.0	1.0	51200	1	51200	1	51200	1	0.7	51200	blue	red	1	0	ml	2.7.3	lorasick	sub-02_ses-01_task-ml_proj-lorasick_2020-11-13-13-51-08.533158
190	2	1	4	191	volatile	7	20	11	vs	blue	red	blue	red	left	right	0.7	0.30000000000000004	10	2	7.0	0.6000000000000001	1	0	0.7	0.30000000000000004	10	2	7.0	0.6000000000000001	valid	1.2163578839972615	53248.0	0	1.0	2.0	51200	0	51200	0	51200	0	0.7	51200	blue	red	1	0	ml	2.7.3	lorasick	sub-02_ses-01_task-ml_proj-lorasick_2020-11-13-13-51-08.533158
191	2	1	4	192	volatile	7	20	12	vs	blue	red	blue	red	left	right	0.7	0.30000000000000004	10	2	7.0	0.6000000000000001	1	0	0.7	0.30000000000000004	10	2	7.0	0.6000000000000001	valid	0.6664922519994434	53248.0	0	1.0	2.0	51200	0	51200	0	51200	0	0.7	51200	blue	red	1	0	ml	2.7.3	lorasick	sub-02_ses-01_task-ml_proj-lorasick_2020-11-13-13-51-08.533158
192	2	1	4	193	volatile	7	20	13	vs	blue	red	blue	red	left	right	0.7	0.30000000000000004	6	6	4.199999999999998	1.8000000000000005	0	1	0.7	0.30000000000000004	6	6	4.199999999999998	1.8000000000000005	invalid	2.982503925999482	nan	1	nan	nan	51200	0	51200	0	53248	0	0.7	51200	blue	red	1	0	ml	2.7.3	lorasick	sub-02_ses-01_task-ml_proj-lorasick_2020-11-13-13-51-08.533158
193	2	1	4	194	volatile	7	20	14	vs	red	blue	blue	red	right	left	0.7	0.30000000000000004	4	2	2.8	0.6000000000000001	1	0	0.30000000000000004	0.7	2	4	0.6000000000000001	2.8	valid	0.2499544269994658	51200.0	0	0.0	2.0	53248	0	53248	0	53248	0	0.7	53248	blue	red	1	0	ml	2.7.3	lorasick	sub-02_ses-01_task-ml_proj-lorasick_2020-11-13-13-51-08.533158
194	2	1	4	195	volatile	7	20	15	vs	blue	red	blue	red	left	right	0.7	0.30000000000000004	4	2	2.8	0.6000000000000001	0	1	0.7	0.30000000000000004	4	2	2.8	0.6000000000000001	invalid	0.3999034359985672	51200.0	0	0.0	1.0	51200	1	51200	1	51200	1	0.7	51200	blue	red	1	0	ml	2.7.3	lorasick	sub-02_ses-01_task-ml_proj-lorasick_2020-11-13-13-51-08.533158
195	2	1	4	196	volatile	7	20	16	vs	red	blue	blue	red	right	left	0.7	0.30000000000000004	10	2	7.0	0.6000000000000001	0	1	0.30000000000000004	0.7	2	10	0.6000000000000001	7.0	invalid	0.41659162100040703	53248.0	0	1.0	1.0	53248	1	53248	1	53248	1	0.7	53248	blue	red	1	0	ml	2.7.3	lorasick	sub-02_ses-01_task-ml_proj-lorasick_2020-11-13-13-51-08.533158
196	2	1	4	197	volatile	7	20	17	vs	red	blue	blue	red	right	left	0.7	0.30000000000000004	6	4	4.199999999999998	1.2000000000000002	1	0	0.30000000000000004	0.7	4	6	1.2000000000000002	4.199999999999998	valid	0.3832439750003687	51200.0	0	0.0	2.0	53248	0	53248	0	53248	0	0.7	53248	blue	red	1	0	ml	2.7.3	lorasick	sub-02_ses-01_task-ml_proj-lorasick_2020-11-13-13-51-08.533158
197	2	1	4	198	volatile	7	20	18	vs	red	blue	blue	red	right	left	0.7	0.30000000000000004	2	2	1.4	0.6000000000000001	1	0	0.30000000000000004	0.7	2	2	0.6000000000000001	1.4	valid	0.2999367330012319	51200.0	0	0.0	2.0	53248	0	53248	0	53248	0	0.7	53248	blue	red	0	0	ml	2.7.3	lorasick	sub-02_ses-01_task-ml_proj-lorasick_2020-11-13-13-51-08.533158
198	2	1	4	199	volatile	7	20	19	vs	red	blue	blue	red	right	left	0.7	0.30000000000000004	6	6	4.199999999999998	1.8000000000000005	1	0	0.30000000000000004	0.7	6	6	1.8000000000000005	4.199999999999998	valid	0.4665661830003955	53248.0	0	1.0	1.0	53248	1	53248	1	53248	1	0.7	53248	blue	red	0	6	ml	2.7.3	lorasick	sub-02_ses-01_task-ml_proj-lorasick_2020-11-13-13-51-08.533158
199	2	1	4	200	volatile	7	20	20	vs	blue	red	blue	red	left	right	0.7	0.30000000000000004	2	6	1.4	1.8000000000000005	1	0	0.7	0.30000000000000004	2	6	1.4	1.8000000000000005	valid	0.6498380120028742	51200.0	0	0.0	1.0	53248	0	51200	1	53248	0	0.7	51200	blue	red	0	2	ml	2.7.3	lorasick	sub-02_ses-01_task-ml_proj-lorasick_2020-11-13-13-51-08.533158
200	2	1	5	201	stable	8	200	1	vs	red	blue	blue	red	right	left	0.30000000000000004	0.7	2	10	0.6000000000000001	7.0	0	1	0.7	0.30000000000000004	10	2	7.0	0.6000000000000001	valid	0.5332231249994948	51200.0	0	0.0	2.0	51200	1	51200	1	51200	1	0.7	51200	red	blue	1	10	ml	2.7.3	lorasick	sub-02_ses-01_task-ml_proj-lorasick_2020-11-13-13-51-08.533158
201	2	1	5	202	stable	8	200	2	vs	red	blue	blue	red	right	left	0.30000000000000004	0.7	6	4	1.8000000000000005	2.8	0	1	0.7	0.30000000000000004	4	6	2.8	1.8000000000000005	valid	0.4832294679981714	53248.0	0	1.0	1.0	51200	0	51200	0	53248	1	0.7	51200	red	blue	0	0	ml	2.7.3	lorasick	sub-02_ses-01_task-ml_proj-lorasick_2020-11-13-13-51-08.533158
202	2	1	5	203	stable	8	200	3	vs	blue	red	blue	red	left	right	0.30000000000000004	0.7	10	2	3.0000000000000004	1.4	0	1	0.30000000000000004	0.7	10	2	3.0000000000000004	1.4	valid	0.3332598640008655	51200.0	0	0.0	1.0	51200	1	53248	0	51200	1	0.7	53248	red	blue	0	0	ml	2.7.3	lorasick	sub-02_ses-01_task-ml_proj-lorasick_2020-11-13-13-51-08.533158
203	2	1	5	204	stable	8	200	4	vs	red	blue	blue	red	right	left	0.30000000000000004	0.7	6	6	1.8000000000000005	4.199999999999998	0	1	0.7	0.30000000000000004	6	6	4.199999999999998	1.8000000000000005	valid	0.36658038200039295	51200.0	0	0.0	2.0	51200	1	51200	1	53248	0	0.7	51200	red	blue	1	6	ml	2.7.3	lorasick	sub-02_ses-01_task-ml_proj-lorasick_2020-11-13-13-51-08.533158
204	2	1	5	205	stable	8	200	5	vs	red	blue	blue	red	right	left	0.30000000000000004	0.7	10	2	3.0000000000000004	1.4	0	1	0.7	0.30000000000000004	2	10	1.4	3.0000000000000004	valid	0.4165733010013355	51200.0	0	0.0	2.0	53248	0	51200	1	53248	0	0.7	51200	red	blue	0	2	ml	2.7.3	lorasick	sub-02_ses-01_task-ml_proj-lorasick_2020-11-13-13-51-08.533158
205	2	1	5	206	stable	8	200	6	vs	red	blue	blue	red	right	left	0.30000000000000004	0.7	10	2	3.0000000000000004	1.4	1	0	0.7	0.30000000000000004	2	10	1.4	3.0000000000000004	invalid	0.3999112120000064	51200.0	0	0.0	2.0	53248	0	51200	1	53248	0	0.7	51200	red	blue	0	0	ml	2.7.3	lorasick	sub-02_ses-01_task-ml_proj-lorasick_2020-11-13-13-51-08.533158
206	2	1	5	207	stable	8	200	7	vs	red	blue	blue	red	right	left	0.30000000000000004	0.7	4	6	1.2000000000000002	4.199999999999998	0	1	0.7	0.30000000000000004	6	4	4.199999999999998	1.2000000000000002	valid	0.4832197150026332	51200.0	0	0.0	2.0	51200	1	51200	1	51200	1	0.7	51200	red	blue	1	6	ml	2.7.3	lorasick	sub-02_ses-01_task-ml_proj-lorasick_2020-11-13-13-51-08.533158
207	2	1	5	208	stable	8	200	8	vs	red	blue	blue	red	right	left	0.30000000000000004	0.7	6	6	1.8000000000000005	4.199999999999998	0	1	0.7	0.30000000000000004	6	6	4.199999999999998	1.8000000000000005	valid	0.3665875550032069	51200.0	0	0.0	2.0	51200	1	51200	1	53248	0	0.7	51200	red	blue	1	6	ml	2.7.3	lorasick	sub-02_ses-01_task-ml_proj-lorasick_2020-11-13-13-51-08.533158
208	2	1	5	209	stable	8	200	9	vs	red	blue	blue	red	right	left	0.30000000000000004	0.7	4	6	1.2000000000000002	4.199999999999998	0	1	0.7	0.30000000000000004	6	4	4.199999999999998	1.2000000000000002	valid	0.3832684379995044	53248.0	0	1.0	1.0	51200	0	51200	0	51200	0	0.7	51200	red	blue	1	0	ml	2.7.3	lorasick	sub-02_ses-01_task-ml_proj-lorasick_2020-11-13-13-51-08.533158
209	2	1	5	210	stable	8	200	10	vs	red	blue	blue	red	right	left	0.30000000000000004	0.7	2	2	0.6000000000000001	1.4	0	1	0.7	0.30000000000000004	2	2	1.4	0.6000000000000001	valid	0.5831901829988055	51200.0	0	0.0	2.0	51200	1	51200	1	53248	0	0.7	51200	red	blue	1	2	ml	2.7.3	lorasick	sub-02_ses-01_task-ml_proj-lorasick_2020-11-13-13-51-08.533158
210	2	1	5	211	stable	8	200	11	vs	blue	red	blue	red	left	right	0.30000000000000004	0.7	2	4	0.6000000000000001	2.8	1	0	0.30000000000000004	0.7	2	4	0.6000000000000001	2.8	invalid	0.5665481719988747	53248.0	0	1.0	2.0	53248	1	53248	1	53248	1	0.7	53248	red	blue	1	0	ml	2.7.3	lorasick	sub-02_ses-01_task-ml_proj-lorasick_2020-11-13-13-51-08.533158
211	2	1	5	212	stable	8	200	12	vs	red	blue	blue	red	right	left	0.30000000000000004	0.7	6	4	1.8000000000000005	2.8	0	1	0.7	0.30000000000000004	4	6	2.8	1.8000000000000005	valid	0.349921491000714	51200.0	0	0.0	2.0	51200	1	51200	1	53248	0	0.7	51200	red	blue	0	4	ml	2.7.3	lorasick	sub-02_ses-01_task-ml_proj-lorasick_2020-11-13-13-51-08.533158
212	2	1	5	213	stable	8	200	13	vs	red	blue	blue	red	right	left	0.30000000000000004	0.7	6	4	1.8000000000000005	2.8	0	1	0.7	0.30000000000000004	4	6	2.8	1.8000000000000005	valid	0.3332630650002102	51200.0	0	0.0	2.0	51200	1	51200	1	53248	0	0.7	51200	red	blue	0	4	ml	2.7.3	lorasick	sub-02_ses-01_task-ml_proj-lorasick_2020-11-13-13-51-08.533158
213	2	1	5	214	stable	8	200	14	vs	red	blue	blue	red	right	left	0.30000000000000004	0.7	6	6	1.8000000000000005	4.199999999999998	0	1	0.7	0.30000000000000004	6	6	4.199999999999998	1.8000000000000005	valid	0.2999408689975098	51200.0	0	0.0	2.0	51200	1	51200	1	53248	0	0.7	51200	red	blue	1	6	ml	2.7.3	lorasick	sub-02_ses-01_task-ml_proj-lorasick_2020-11-13-13-51-08.533158
214	2	1	5	215	stable	8	200	15	vs	blue	red	blue	red	left	right	0.30000000000000004	0.7	2	4	0.6000000000000001	2.8	0	1	0.30000000000000004	0.7	2	4	0.6000000000000001	2.8	valid	0.4332275440028752	51200.0	0	0.0	1.0	53248	0	53248	0	53248	0	0.7	53248	red	blue	1	0	ml	2.7.3	lorasick	sub-02_ses-01_task-ml_proj-lorasick_2020-11-13-13-51-08.533158
215	2	1	5	216	stable	8	200	16	vs	blue	red	blue	red	left	right	0.30000000000000004	0.7	4	6	1.2000000000000002	4.199999999999998	0	1	0.30000000000000004	0.7	4	6	1.2000000000000002	4.199999999999998	valid	0.4165908569993917	53248.0	0	1.0	2.0	53248	1	53248	1	53248	1	0.7	53248	red	blue	1	6	ml	2.7.3	lorasick	sub-02_ses-01_task-ml_proj-lorasick_2020-11-13-13-51-08.533158
216	2	1	5	217	stable	8	200	17	vs	red	blue	blue	red	right	left	0.30000000000000004	0.7	2	6	0.6000000000000001	4.199999999999998	1	0	0.7	0.30000000000000004	6	2	4.199999999999998	0.6000000000000001	invalid	0.3332672239994281	51200.0	0	0.0	2.0	51200	1	51200	1	51200	1	0.7	51200	red	blue	1	0	ml	2.7.3	lorasick	sub-02_ses-01_task-ml_proj-lorasick_2020-11-13-13-51-08.533158
217	2	1	5	218	stable	8	200	18	vs	red	blue	blue	red	right	left	0.30000000000000004	0.7	6	4	1.8000000000000005	2.8	0	1	0.7	0.30000000000000004	4	6	2.8	1.8000000000000005	valid	1.049726870001905	53248.0	0	1.0	1.0	51200	0	51200	0	53248	1	0.7	51200	red	blue	0	0	ml	2.7.3	lorasick	sub-02_ses-01_task-ml_proj-lorasick_2020-11-13-13-51-08.533158
218	2	1	5	219	stable	8	200	19	vs	red	blue	blue	red	right	left	0.30000000000000004	0.7	4	2	1.2000000000000002	1.4	0	1	0.7	0.30000000000000004	2	4	1.4	1.2000000000000002	valid	0.9164364980024402	53248.0	0	1.0	1.0	51200	0	51200	0	53248	1	0.7	51200	red	blue	0	0	ml	2.7.3	lorasick	sub-02_ses-01_task-ml_proj-lorasick_2020-11-13-13-51-08.533158
219	2	1	5	220	stable	8	200	20	vs	blue	red	blue	red	left	right	0.30000000000000004	0.7	6	4	1.8000000000000005	2.8	0	1	0.30000000000000004	0.7	6	4	1.8000000000000005	2.8	valid	2.3160214640010963	51200.0	0	0.0	1.0	53248	0	53248	0	51200	1	0.7	53248	red	blue	0	0	ml	2.7.3	lorasick	sub-02_ses-01_task-ml_proj-lorasick_2020-11-13-13-51-08.533158
220	2	1	5	221	stable	8	200	21	vs	red	blue	blue	red	right	left	0.30000000000000004	0.7	6	2	1.8000000000000005	1.4	1	0	0.7	0.30000000000000004	2	6	1.4	1.8000000000000005	invalid	0.6331867480002984	53248.0	0	1.0	1.0	53248	1	51200	0	53248	1	0.7	51200	red	blue	0	6	ml	2.7.3	lorasick	sub-02_ses-01_task-ml_proj-lorasick_2020-11-13-13-51-08.533158
221	2	1	5	222	stable	8	200	22	vs	blue	red	blue	red	left	right	0.30000000000000004	0.7	6	2	1.8000000000000005	1.4	0	1	0.30000000000000004	0.7	6	2	1.8000000000000005	1.4	valid	0.3499306420017092	51200.0	0	0.0	1.0	51200	1	53248	0	51200	1	0.7	53248	red	blue	0	0	ml	2.7.3	lorasick	sub-02_ses-01_task-ml_proj-lorasick_2020-11-13-13-51-08.533158
222	2	1	5	223	stable	8	200	23	vs	blue	red	blue	red	left	right	0.30000000000000004	0.7	6	2	1.8000000000000005	1.4	0	1	0.30000000000000004	0.7	6	2	1.8000000000000005	1.4	valid	0.3665883940011554	51200.0	0	0.0	1.0	51200	1	53248	0	51200	1	0.7	53248	red	blue	0	0	ml	2.7.3	lorasick	sub-02_ses-01_task-ml_proj-lorasick_2020-11-13-13-51-08.533158
223	2	1	5	224	stable	8	200	24	vs	blue	red	blue	red	left	right	0.30000000000000004	0.7	10	2	3.0000000000000004	1.4	0	1	0.30000000000000004	0.7	10	2	3.0000000000000004	1.4	valid	0.3332909800010384	53248.0	0	1.0	2.0	51200	0	53248	1	51200	0	0.7	53248	red	blue	0	2	ml	2.7.3	lorasick	sub-02_ses-01_task-ml_proj-lorasick_2020-11-13-13-51-08.533158
224	2	1	5	225	stable	8	200	25	vs	red	blue	blue	red	right	left	0.30000000000000004	0.7	6	6	1.8000000000000005	4.199999999999998	0	1	0.7	0.30000000000000004	6	6	4.199999999999998	1.8000000000000005	valid	0.3332612390004215	51200.0	0	0.0	2.0	51200	1	51200	1	53248	0	0.7	51200	red	blue	1	6	ml	2.7.3	lorasick	sub-02_ses-01_task-ml_proj-lorasick_2020-11-13-13-51-08.533158
225	2	1	5	226	stable	8	200	26	vs	red	blue	blue	red	right	left	0.30000000000000004	0.7	10	2	3.0000000000000004	1.4	1	0	0.7	0.30000000000000004	2	10	1.4	3.0000000000000004	invalid	0.39991044600174064	51200.0	0	0.0	2.0	53248	0	51200	1	53248	0	0.7	51200	red	blue	0	0	ml	2.7.3	lorasick	sub-02_ses-01_task-ml_proj-lorasick_2020-11-13-13-51-08.533158
226	2	1	5	227	stable	8	200	27	vs	red	blue	blue	red	right	left	0.30000000000000004	0.7	2	10	0.6000000000000001	7.0	1	0	0.7	0.30000000000000004	10	2	7.0	0.6000000000000001	invalid	0.3832628829986788	53248.0	0	1.0	1.0	51200	0	51200	0	51200	0	0.7	51200	red	blue	1	2	ml	2.7.3	lorasick	sub-02_ses-01_task-ml_proj-lorasick_2020-11-13-13-51-08.533158
227	2	1	5	228	stable	8	200	28	vs	blue	red	blue	red	left	right	0.30000000000000004	0.7	2	6	0.6000000000000001	4.199999999999998	1	0	0.30000000000000004	0.7	2	6	0.6000000000000001	4.199999999999998	invalid	0.3999078529996041	51200.0	0	0.0	1.0	53248	0	53248	0	53248	0	0.7	53248	red	blue	1	2	ml	2.7.3	lorasick	sub-02_ses-01_task-ml_proj-lorasick_2020-11-13-13-51-08.533158
228	2	1	5	229	stable	8	200	29	vs	blue	red	blue	red	left	right	0.30000000000000004	0.7	6	2	1.8000000000000005	1.4	0	1	0.30000000000000004	0.7	6	2	1.8000000000000005	1.4	valid	0.4999022250012786	51200.0	0	0.0	1.0	51200	1	53248	0	51200	1	0.7	53248	red	blue	0	0	ml	2.7.3	lorasick	sub-02_ses-01_task-ml_proj-lorasick_2020-11-13-13-51-08.533158
229	2	1	5	230	stable	8	200	30	vs	blue	red	blue	red	left	right	0.30000000000000004	0.7	6	4	1.8000000000000005	2.8	0	1	0.30000000000000004	0.7	6	4	1.8000000000000005	2.8	valid	2.9824995859999035	nan	1	nan	nan	53248	0	53248	0	51200	0	0.7	53248	red	blue	0	0	ml	2.7.3	lorasick	sub-02_ses-01_task-ml_proj-lorasick_2020-11-13-13-51-08.533158
230	2	1	5	231	stable	8	200	31	vs	red	blue	blue	red	right	left	0.30000000000000004	0.7	10	2	3.0000000000000004	1.4	0	1	0.7	0.30000000000000004	2	10	1.4	3.0000000000000004	valid	0.7498255419995985	53248.0	0	1.0	1.0	53248	1	51200	0	53248	1	0.7	51200	red	blue	0	0	ml	2.7.3	lorasick	sub-02_ses-01_task-ml_proj-lorasick_2020-11-13-13-51-08.533158
231	2	1	5	232	stable	8	200	32	vs	red	blue	blue	red	right	left	0.30000000000000004	0.7	2	4	0.6000000000000001	2.8	0	1	0.7	0.30000000000000004	4	2	2.8	0.6000000000000001	valid	0.4332395290002751	51200.0	0	0.0	2.0	51200	1	51200	1	51200	1	0.7	51200	red	blue	1	4	ml	2.7.3	lorasick	sub-02_ses-01_task-ml_proj-lorasick_2020-11-13-13-51-08.533158
232	2	1	5	233	stable	8	200	33	vs	blue	red	blue	red	left	right	0.30000000000000004	0.7	2	2	0.6000000000000001	1.4	0	1	0.30000000000000004	0.7	2	2	0.6000000000000001	1.4	valid	0.3665934170021501	53248.0	0	1.0	2.0	53248	1	53248	1	53248	1	0.7	53248	red	blue	0	2	ml	2.7.3	lorasick	sub-02_ses-01_task-ml_proj-lorasick_2020-11-13-13-51-08.533158
233	2	1	5	234	stable	8	200	34	vs	blue	red	blue	red	left	right	0.30000000000000004	0.7	4	2	1.2000000000000002	1.4	1	0	0.30000000000000004	0.7	4	2	1.2000000000000002	1.4	invalid	0.3499292969972885	53248.0	0	1.0	2.0	53248	1	53248	1	51200	0	0.7	53248	red	blue	0	0	ml	2.7.3	lorasick	sub-02_ses-01_task-ml_proj-lorasick_2020-11-13-13-51-08.533158
234	2	1	5	235	stable	8	200	35	vs	red	blue	blue	red	right	left	0.30000000000000004	0.7	2	4	0.6000000000000001	2.8	0	1	0.7	0.30000000000000004	4	2	2.8	0.6000000000000001	valid	0.3665871160010283	51200.0	0	0.0	2.0	51200	1	51200	1	51200	1	0.7	51200	red	blue	1	4	ml	2.7.3	lorasick	sub-02_ses-01_task-ml_proj-lorasick_2020-11-13-13-51-08.533158
235	2	1	5	236	stable	8	200	36	vs	blue	red	blue	red	left	right	0.30000000000000004	0.7	2	6	0.6000000000000001	4.199999999999998	1	0	0.30000000000000004	0.7	2	6	0.6000000000000001	4.199999999999998	invalid	0.36659533599959104	53248.0	0	1.0	2.0	53248	1	53248	1	53248	1	0.7	53248	red	blue	1	0	ml	2.7.3	lorasick	sub-02_ses-01_task-ml_proj-lorasick_2020-11-13-13-51-08.533158
236	2	1	5	237	stable	8	200	37	vs	blue	red	blue	red	left	right	0.30000000000000004	0.7	6	4	1.8000000000000005	2.8	0	1	0.30000000000000004	0.7	6	4	1.8000000000000005	2.8	valid	0.7831363969999074	53248.0	0	1.0	2.0	53248	1	53248	1	51200	0	0.7	53248	red	blue	0	4	ml	2.7.3	lorasick	sub-02_ses-01_task-ml_proj-lorasick_2020-11-13-13-51-08.533158
237	2	1	5	238	stable	8	200	38	vs	blue	red	blue	red	left	right	0.30000000000000004	0.7	6	2	1.8000000000000005	1.4	0	1	0.30000000000000004	0.7	6	2	1.8000000000000005	1.4	valid	1.0330757499978065	53248.0	0	1.0	2.0	51200	0	53248	1	51200	0	0.7	53248	red	blue	0	2	ml	2.7.3	lorasick	sub-02_ses-01_task-ml_proj-lorasick_2020-11-13-13-51-08.533158
238	2	1	5	239	stable	8	200	39	vs	red	blue	blue	red	right	left	0.30000000000000004	0.7	2	10	0.6000000000000001	7.0	1	0	0.7	0.30000000000000004	10	2	7.0	0.6000000000000001	invalid	1.1663551630008442	51200.0	0	0.0	2.0	51200	1	51200	1	51200	1	0.7	51200	red	blue	1	0	ml	2.7.3	lorasick	sub-02_ses-01_task-ml_proj-lorasick_2020-11-13-13-51-08.533158
239	2	1	5	240	stable	8	200	40	vs	blue	red	blue	red	left	right	0.30000000000000004	0.7	6	6	1.8000000000000005	4.199999999999998	0	1	0.30000000000000004	0.7	6	6	1.8000000000000005	4.199999999999998	valid	0.8164682259994152	53248.0	0	1.0	2.0	53248	1	53248	1	53248	1	0.7	53248	red	blue	0	6	ml	2.7.3	lorasick	sub-02_ses-01_task-ml_proj-lorasick_2020-11-13-13-51-08.533158
240	2	1	5	241	stable	8	200	41	vs	red	blue	blue	red	right	left	0.30000000000000004	0.7	2	4	0.6000000000000001	2.8	0	1	0.7	0.30000000000000004	4	2	2.8	0.6000000000000001	valid	0.9164388080025674	53248.0	0	1.0	1.0	51200	0	51200	0	51200	0	0.7	51200	red	blue	1	0	ml	2.7.3	lorasick	sub-02_ses-01_task-ml_proj-lorasick_2020-11-13-13-51-08.533158
241	2	1	5	242	stable	8	200	42	vs	red	blue	blue	red	right	left	0.30000000000000004	0.7	6	2	1.8000000000000005	1.4	0	1	0.7	0.30000000000000004	2	6	1.4	1.8000000000000005	valid	0.4832191130008141	51200.0	0	0.0	2.0	53248	0	51200	1	53248	0	0.7	51200	red	blue	0	2	ml	2.7.3	lorasick	sub-02_ses-01_task-ml_proj-lorasick_2020-11-13-13-51-08.533158
242	2	1	5	243	stable	8	200	43	vs	blue	red	blue	red	left	right	0.30000000000000004	0.7	2	10	0.6000000000000001	7.0	0	1	0.30000000000000004	0.7	2	10	0.6000000000000001	7.0	valid	0.6331861879989447	53248.0	0	1.0	2.0	53248	1	53248	1	53248	1	0.7	53248	red	blue	1	10	ml	2.7.3	lorasick	sub-02_ses-01_task-ml_proj-lorasick_2020-11-13-13-51-08.533158
243	2	1	5	244	stable	8	200	44	vs	blue	red	blue	red	left	right	0.30000000000000004	0.7	6	2	1.8000000000000005	1.4	0	1	0.30000000000000004	0.7	6	2	1.8000000000000005	1.4	valid	0.7331590800022241	53248.0	0	1.0	2.0	51200	0	53248	1	51200	0	0.7	53248	red	blue	0	2	ml	2.7.3	lorasick	sub-02_ses-01_task-ml_proj-lorasick_2020-11-13-13-51-08.533158
244	2	1	5	245	stable	8	200	45	vs	red	blue	blue	red	right	left	0.30000000000000004	0.7	6	6	1.8000000000000005	4.199999999999998	0	1	0.7	0.30000000000000004	6	6	4.199999999999998	1.8000000000000005	valid	0.8664404659975844	51200.0	0	0.0	2.0	51200	1	51200	1	53248	0	0.7	51200	red	blue	1	6	ml	2.7.3	lorasick	sub-02_ses-01_task-ml_proj-lorasick_2020-11-13-13-51-08.533158
245	2	1	5	246	stable	8	200	46	vs	red	blue	blue	red	right	left	0.30000000000000004	0.7	2	6	0.6000000000000001	4.199999999999998	1	0	0.7	0.30000000000000004	6	2	4.199999999999998	0.6000000000000001	invalid	2.9824984280021454	nan	1	nan	nan	51200	0	51200	0	51200	0	0.7	51200	red	blue	1	0	ml	2.7.3	lorasick	sub-02_ses-01_task-ml_proj-lorasick_2020-11-13-13-51-08.533158
246	2	1	5	247	stable	8	200	47	vs	blue	red	blue	red	left	right	0.30000000000000004	0.7	6	4	1.8000000000000005	2.8	0	1	0.30000000000000004	0.7	6	4	1.8000000000000005	2.8	valid	0.7997909030018491	51200.0	0	0.0	1.0	53248	0	53248	0	51200	1	0.7	53248	red	blue	0	0	ml	2.7.3	lorasick	sub-02_ses-01_task-ml_proj-lorasick_2020-11-13-13-51-08.533158
247	2	1	5	248	stable	8	200	48	vs	blue	red	blue	red	left	right	0.30000000000000004	0.7	4	2	1.2000000000000002	1.4	0	1	0.30000000000000004	0.7	4	2	1.2000000000000002	1.4	valid	0.3832588980003493	53248.0	0	1.0	2.0	53248	1	53248	1	51200	0	0.7	53248	red	blue	0	2	ml	2.7.3	lorasick	sub-02_ses-01_task-ml_proj-lorasick_2020-11-13-13-51-08.533158
248	2	1	5	249	stable	8	200	49	vs	blue	red	blue	red	left	right	0.30000000000000004	0.7	2	10	0.6000000000000001	7.0	0	1	0.30000000000000004	0.7	2	10	0.6000000000000001	7.0	valid	0.3999277689981682	53248.0	0	1.0	2.0	53248	1	53248	1	53248	1	0.7	53248	red	blue	1	10	ml	2.7.3	lorasick	sub-02_ses-01_task-ml_proj-lorasick_2020-11-13-13-51-08.533158
249	2	1	5	250	stable	8	200	50	vs	blue	red	blue	red	left	right	0.30000000000000004	0.7	6	2	1.8000000000000005	1.4	0	1	0.30000000000000004	0.7	6	2	1.8000000000000005	1.4	valid	0.3832601459980651	53248.0	0	1.0	2.0	51200	0	53248	1	51200	0	0.7	53248	red	blue	0	2	ml	2.7.3	lorasick	sub-02_ses-01_task-ml_proj-lorasick_2020-11-13-13-51-08.533158
250	2	1	6	251	stable	8	200	51	vs	blue	red	blue	red	left	right	0.30000000000000004	0.7	4	6	1.2000000000000002	4.199999999999998	1	0	0.30000000000000004	0.7	4	6	1.2000000000000002	4.199999999999998	invalid	0.8997786799991445	53248.0	0	1.0	2.0	53248	1	53248	1	53248	1	0.7	53248	red	blue	1	0	ml	2.7.3	lorasick	sub-02_ses-01_task-ml_proj-lorasick_2020-11-13-13-51-08.533158
251	2	1	6	252	stable	8	200	52	vs	red	blue	blue	red	right	left	0.30000000000000004	0.7	6	6	1.8000000000000005	4.199999999999998	0	1	0.7	0.30000000000000004	6	6	4.199999999999998	1.8000000000000005	valid	0.466565451999486	53248.0	0	1.0	1.0	51200	0	51200	0	53248	1	0.7	51200	red	blue	1	0	ml	2.7.3	lorasick	sub-02_ses-01_task-ml_proj-lorasick_2020-11-13-13-51-08.533158
252	2	1	6	253	stable	8	200	53	vs	red	blue	blue	red	right	left	0.30000000000000004	0.7	2	4	0.6000000000000001	2.8	1	0	0.7	0.30000000000000004	4	2	2.8	0.6000000000000001	invalid	0.6665093880001223	53248.0	0	1.0	1.0	51200	0	51200	0	51200	0	0.7	51200	red	blue	1	2	ml	2.7.3	lorasick	sub-02_ses-01_task-ml_proj-lorasick_2020-11-13-13-51-08.533158
253	2	1	6	254	stable	8	200	54	vs	blue	red	blue	red	left	right	0.30000000000000004	0.7	4	6	1.2000000000000002	4.199999999999998	0	1	0.30000000000000004	0.7	4	6	1.2000000000000002	4.199999999999998	valid	0.3999202170016361	53248.0	0	1.0	2.0	53248	1	53248	1	53248	1	0.7	53248	red	blue	1	6	ml	2.7.3	lorasick	sub-02_ses-01_task-ml_proj-lorasick_2020-11-13-13-51-08.533158
254	2	1	6	255	stable	8	200	55	vs	blue	red	blue	red	left	right	0.30000000000000004	0.7	2	10	0.6000000000000001	7.0	1	0	0.30000000000000004	0.7	2	10	0.6000000000000001	7.0	invalid	0.3499224789993605	51200.0	0	0.0	1.0	53248	0	53248	0	53248	0	0.7	53248	red	blue	1	2	ml	2.7.3	lorasick	sub-02_ses-01_task-ml_proj-lorasick_2020-11-13-13-51-08.533158
255	2	1	6	256	stable	8	200	56	vs	red	blue	blue	red	right	left	0.30000000000000004	0.7	2	6	0.6000000000000001	4.199999999999998	0	1	0.7	0.30000000000000004	6	2	4.199999999999998	0.6000000000000001	valid	0.5332137869991129	51200.0	0	0.0	2.0	51200	1	51200	1	51200	1	0.7	51200	red	blue	1	6	ml	2.7.3	lorasick	sub-02_ses-01_task-ml_proj-lorasick_2020-11-13-13-51-08.533158
256	2	1	6	257	stable	8	200	57	vs	blue	red	blue	red	left	right	0.30000000000000004	0.7	4	6	1.2000000000000002	4.199999999999998	0	1	0.30000000000000004	0.7	4	6	1.2000000000000002	4.199999999999998	valid	0.4332340849978209	51200.0	0	0.0	1.0	53248	0	53248	0	53248	0	0.7	53248	red	blue	1	0	ml	2.7.3	lorasick	sub-02_ses-01_task-ml_proj-lorasick_2020-11-13-13-51-08.533158
257	2	1	6	258	stable	8	200	58	vs	blue	red	blue	red	left	right	0.30000000000000004	0.7	6	4	1.8000000000000005	2.8	1	0	0.30000000000000004	0.7	6	4	1.8000000000000005	2.8	invalid	0.333271383002284	53248.0	0	1.0	2.0	53248	1	53248	1	51200	0	0.7	53248	red	blue	0	0	ml	2.7.3	lorasick	sub-02_ses-01_task-ml_proj-lorasick_2020-11-13-13-51-08.533158
258	2	1	6	259	stable	8	200	59	vs	red	blue	blue	red	right	left	0.30000000000000004	0.7	4	6	1.2000000000000002	4.199999999999998	1	0	0.7	0.30000000000000004	6	4	4.199999999999998	1.2000000000000002	invalid	0.3332636019986239	51200.0	0	0.0	2.0	51200	1	51200	1	51200	1	0.7	51200	red	blue	1	0	ml	2.7.3	lorasick	sub-02_ses-01_task-ml_proj-lorasick_2020-11-13-13-51-08.533158
259	2	1	6	260	stable	8	200	60	vs	red	blue	blue	red	right	left	0.30000000000000004	0.7	6	4	1.8000000000000005	2.8	1	0	0.7	0.30000000000000004	4	6	2.8	1.8000000000000005	invalid	0.8331296140022459	53248.0	0	1.0	1.0	51200	0	51200	0	53248	1	0.7	51200	red	blue	0	6	ml	2.7.3	lorasick	sub-02_ses-01_task-ml_proj-lorasick_2020-11-13-13-51-08.533158
260	2	1	6	261	stable	8	200	61	vs	blue	red	blue	red	left	right	0.30000000000000004	0.7	6	6	1.8000000000000005	4.199999999999998	0	1	0.30000000000000004	0.7	6	6	1.8000000000000005	4.199999999999998	valid	0.34992632099965704	51200.0	0	0.0	1.0	53248	0	53248	0	53248	0	0.7	53248	red	blue	0	0	ml	2.7.3	lorasick	sub-02_ses-01_task-ml_proj-lorasick_2020-11-13-13-51-08.533158
261	2	1	6	262	stable	8	200	62	vs	red	blue	blue	red	right	left	0.30000000000000004	0.7	2	6	0.6000000000000001	4.199999999999998	1	0	0.7	0.30000000000000004	6	2	4.199999999999998	0.6000000000000001	invalid	0.4499080239984323	53248.0	0	1.0	1.0	51200	0	51200	0	51200	0	0.7	51200	red	blue	1	2	ml	2.7.3	lorasick	sub-02_ses-01_task-ml_proj-lorasick_2020-11-13-13-51-08.533158
262	2	1	6	263	stable	8	200	63	vs	blue	red	blue	red	left	right	0.30000000000000004	0.7	2	4	0.6000000000000001	2.8	1	0	0.30000000000000004	0.7	2	4	0.6000000000000001	2.8	invalid	0.96642400500059	53248.0	0	1.0	2.0	53248	1	53248	1	53248	1	0.7	53248	red	blue	1	0	ml	2.7.3	lorasick	sub-02_ses-01_task-ml_proj-lorasick_2020-11-13-13-51-08.533158
263	2	1	6	264	stable	8	200	64	vs	blue	red	blue	red	left	right	0.30000000000000004	0.7	2	2	0.6000000000000001	1.4	0	1	0.30000000000000004	0.7	2	2	0.6000000000000001	1.4	valid	0.549866885998199	51200.0	0	0.0	1.0	53248	0	53248	0	53248	0	0.7	53248	red	blue	0	0	ml	2.7.3	lorasick	sub-02_ses-01_task-ml_proj-lorasick_2020-11-13-13-51-08.533158
264	2	1	6	265	stable	8	200	65	vs	red	blue	blue	red	right	left	0.30000000000000004	0.7	6	2	1.8000000000000005	1.4	0	1	0.7	0.30000000000000004	2	6	1.4	1.8000000000000005	valid	0.4332325579998724	51200.0	0	0.0	2.0	53248	0	51200	1	53248	0	0.7	51200	red	blue	0	2	ml	2.7.3	lorasick	sub-02_ses-01_task-ml_proj-lorasick_2020-11-13-13-51-08.533158
265	2	1	6	266	stable	8	200	66	vs	red	blue	blue	red	right	left	0.30000000000000004	0.7	4	6	1.2000000000000002	4.199999999999998	1	0	0.7	0.30000000000000004	6	4	4.199999999999998	1.2000000000000002	invalid	0.5332030199970177	51200.0	0	0.0	2.0	51200	1	51200	1	51200	1	0.7	51200	red	blue	1	0	ml	2.7.3	lorasick	sub-02_ses-01_task-ml_proj-lorasick_2020-11-13-13-51-08.533158
266	2	1	6	267	stable	8	200	67	vs	red	blue	blue	red	right	left	0.30000000000000004	0.7	2	6	0.6000000000000001	4.199999999999998	0	1	0.7	0.30000000000000004	6	2	4.199999999999998	0.6000000000000001	valid	0.3665893199977289	51200.0	0	0.0	2.0	51200	1	51200	1	51200	1	0.7	51200	red	blue	1	6	ml	2.7.3	lorasick	sub-02_ses-01_task-ml_proj-lorasick_2020-11-13-13-51-08.533158
267	2	1	6	268	stable	8	200	68	vs	blue	red	blue	red	left	right	0.30000000000000004	0.7	10	2	3.0000000000000004	1.4	0	1	0.30000000000000004	0.7	10	2	3.0000000000000004	1.4	valid	0.3999020730007032	51200.0	0	0.0	1.0	51200	1	53248	0	51200	1	0.7	53248	red	blue	0	0	ml	2.7.3	lorasick	sub-02_ses-01_task-ml_proj-lorasick_2020-11-13-13-51-08.533158
268	2	1	6	269	stable	8	200	69	vs	blue	red	blue	red	left	right	0.30000000000000004	0.7	6	4	1.8000000000000005	2.8	1	0	0.30000000000000004	0.7	6	4	1.8000000000000005	2.8	invalid	0.4998954250004317	51200.0	0	0.0	1.0	53248	0	53248	0	51200	1	0.7	53248	red	blue	0	6	ml	2.7.3	lorasick	sub-02_ses-01_task-ml_proj-lorasick_2020-11-13-13-51-08.533158
269	2	1	6	270	stable	8	200	70	vs	red	blue	blue	red	right	left	0.30000000000000004	0.7	2	2	0.6000000000000001	1.4	0	1	0.7	0.30000000000000004	2	2	1.4	0.6000000000000001	valid	0.4999069980003696	51200.0	0	0.0	2.0	51200	1	51200	1	53248	0	0.7	51200	red	blue	1	2	ml	2.7.3	lorasick	sub-02_ses-01_task-ml_proj-lorasick_2020-11-13-13-51-08.533158
270	2	1	6	271	stable	8	200	71	vs	red	blue	blue	red	right	left	0.30000000000000004	0.7	6	6	1.8000000000000005	4.199999999999998	0	1	0.7	0.30000000000000004	6	6	4.199999999999998	1.8000000000000005	valid	0.7164836230003857	51200.0	0	0.0	2.0	51200	1	51200	1	53248	0	0.7	51200	red	blue	1	6	ml	2.7.3	lorasick	sub-02_ses-01_task-ml_proj-lorasick_2020-11-13-13-51-08.533158
271	2	1	6	272	stable	8	200	72	vs	red	blue	blue	red	right	left	0.30000000000000004	0.7	2	2	0.6000000000000001	1.4	0	1	0.7	0.30000000000000004	2	2	1.4	0.6000000000000001	valid	0.399921328000346	53248.0	0	1.0	1.0	51200	0	51200	0	53248	1	0.7	51200	red	blue	1	0	ml	2.7.3	lorasick	sub-02_ses-01_task-ml_proj-lorasick_2020-11-13-13-51-08.533158
272	2	1	6	273	stable	8	200	73	vs	blue	red	blue	red	left	right	0.30000000000000004	0.7	4	2	1.2000000000000002	1.4	1	0	0.30000000000000004	0.7	4	2	1.2000000000000002	1.4	invalid	0.44989785000143456	53248.0	0	1.0	2.0	53248	1	53248	1	51200	0	0.7	53248	red	blue	0	0	ml	2.7.3	lorasick	sub-02_ses-01_task-ml_proj-lorasick_2020-11-13-13-51-08.533158
273	2	1	6	274	stable	8	200	74	vs	red	blue	blue	red	right	left	0.30000000000000004	0.7	2	10	0.6000000000000001	7.0	1	0	0.7	0.30000000000000004	10	2	7.0	0.6000000000000001	invalid	0.4332345789989631	51200.0	0	0.0	2.0	51200	1	51200	1	51200	1	0.7	51200	red	blue	1	0	ml	2.7.3	lorasick	sub-02_ses-01_task-ml_proj-lorasick_2020-11-13-13-51-08.533158
274	2	1	6	275	stable	8	200	75	vs	red	blue	blue	red	right	left	0.30000000000000004	0.7	2	2	0.6000000000000001	1.4	0	1	0.7	0.30000000000000004	2	2	1.4	0.6000000000000001	valid	0.6331884770006582	53248.0	0	1.0	1.0	51200	0	51200	0	53248	1	0.7	51200	red	blue	1	0	ml	2.7.3	lorasick	sub-02_ses-01_task-ml_proj-lorasick_2020-11-13-13-51-08.533158
275	2	1	6	276	stable	8	200	76	vs	blue	red	blue	red	left	right	0.30000000000000004	0.7	6	4	1.8000000000000005	2.8	0	1	0.30000000000000004	0.7	6	4	1.8000000000000005	2.8	valid	0.8497961239991128	53248.0	0	1.0	2.0	53248	1	53248	1	51200	0	0.7	53248	red	blue	0	4	ml	2.7.3	lorasick	sub-02_ses-01_task-ml_proj-lorasick_2020-11-13-13-51-08.533158
276	2	1	6	277	stable	8	200	77	vs	red	blue	blue	red	right	left	0.30000000000000004	0.7	6	2	1.8000000000000005	1.4	1	0	0.7	0.30000000000000004	2	6	1.4	1.8000000000000005	invalid	0.3332630800032348	51200.0	0	0.0	2.0	53248	0	51200	1	53248	0	0.7	51200	red	blue	0	0	ml	2.7.3	lorasick	sub-02_ses-01_task-ml_proj-lorasick_2020-11-13-13-51-08.533158
277	2	1	6	278	stable	8	200	78	vs	blue	red	blue	red	left	right	0.30000000000000004	0.7	6	6	1.8000000000000005	4.199999999999998	0	1	0.30000000000000004	0.7	6	6	1.8000000000000005	4.199999999999998	valid	0.4332433000017773	53248.0	0	1.0	2.0	53248	1	53248	1	53248	1	0.7	53248	red	blue	0	6	ml	2.7.3	lorasick	sub-02_ses-01_task-ml_proj-lorasick_2020-11-13-13-51-08.533158
278	2	1	6	279	stable	8	200	79	vs	blue	red	blue	red	left	right	0.30000000000000004	0.7	4	2	1.2000000000000002	1.4	0	1	0.30000000000000004	0.7	4	2	1.2000000000000002	1.4	valid	0.4665572560006694	51200.0	0	0.0	1.0	53248	0	53248	0	51200	1	0.7	53248	red	blue	0	0	ml	2.7.3	lorasick	sub-02_ses-01_task-ml_proj-lorasick_2020-11-13-13-51-08.533158
279	2	1	6	280	stable	8	200	80	vs	red	blue	blue	red	right	left	0.30000000000000004	0.7	6	6	1.8000000000000005	4.199999999999998	0	1	0.7	0.30000000000000004	6	6	4.199999999999998	1.8000000000000005	valid	0.41657151500112377	51200.0	0	0.0	2.0	51200	1	51200	1	53248	0	0.7	51200	red	blue	1	6	ml	2.7.3	lorasick	sub-02_ses-01_task-ml_proj-lorasick_2020-11-13-13-51-08.533158
280	2	1	6	281	stable	8	200	81	vs	red	blue	blue	red	right	left	0.30000000000000004	0.7	4	6	1.2000000000000002	4.199999999999998	0	1	0.7	0.30000000000000004	6	4	4.199999999999998	1.2000000000000002	valid	0.39991095699951984	51200.0	0	0.0	2.0	51200	1	51200	1	51200	1	0.7	51200	red	blue	1	6	ml	2.7.3	lorasick	sub-02_ses-01_task-ml_proj-lorasick_2020-11-13-13-51-08.533158
281	2	1	6	282	stable	8	200	82	vs	blue	red	blue	red	left	right	0.30000000000000004	0.7	2	10	0.6000000000000001	7.0	0	1	0.30000000000000004	0.7	2	10	0.6000000000000001	7.0	valid	0.4998926160005794	53248.0	0	1.0	2.0	53248	1	53248	1	53248	1	0.7	53248	red	blue	1	10	ml	2.7.3	lorasick	sub-02_ses-01_task-ml_proj-lorasick_2020-11-13-13-51-08.533158
282	2	1	6	283	stable	8	200	83	vs	blue	red	blue	red	left	right	0.30000000000000004	0.7	6	4	1.8000000000000005	2.8	1	0	0.30000000000000004	0.7	6	4	1.8000000000000005	2.8	invalid	0.5332171059999382	53248.0	0	1.0	2.0	53248	1	53248	1	51200	0	0.7	53248	red	blue	0	0	ml	2.7.3	lorasick	sub-02_ses-01_task-ml_proj-lorasick_2020-11-13-13-51-08.533158
283	2	1	6	284	stable	8	200	84	vs	red	blue	blue	red	right	left	0.30000000000000004	0.7	10	2	3.0000000000000004	1.4	1	0	0.7	0.30000000000000004	2	10	1.4	3.0000000000000004	invalid	9.191599747282453e-05	51200.0	0	0.0	2.0	53248	0	51200	1	53248	0	0.7	51200	red	blue	0	0	ml	2.7.3	lorasick	sub-02_ses-01_task-ml_proj-lorasick_2020-11-13-13-51-08.533158
284	2	1	6	285	stable	8	200	85	vs	blue	red	blue	red	left	right	0.30000000000000004	0.7	10	2	3.0000000000000004	1.4	0	1	0.30000000000000004	0.7	10	2	3.0000000000000004	1.4	valid	0.4665595149999717	51200.0	0	0.0	1.0	51200	1	53248	0	51200	1	0.7	53248	red	blue	0	0	ml	2.7.3	lorasick	sub-02_ses-01_task-ml_proj-lorasick_2020-11-13-13-51-08.533158
