Unnamed: 0	sub_id	ses_id	block_no	trial_no	phase_type	phase_no	phase_length	trialInPhase_no	phase_type_order	color_left	color_right	color1	color2	position1	position2	prob1	prob2	mag1	mag2	ev1	ev2	outcome1	outcome2	prob_left	prob_right	mag_left	mag_right	ev_left	ev_right	reward_validity	resp_time	resp_key	timeout	choice_side	choice	ev_corr_resp	ev_correct	prob_corr_resp	prob_correct	mag_corr_resp	mag_correct	high_prob	high_prob_side	high_prob_color	low_prob_color	no_brain	reward	name	version	proj_id	logFileID
0	3	2	1	1	stable	1	200	1	sv	purple	turquoise	purple	turquoise	left	right	0.7	0.30000000000000004	2	10	1.4	3.0000000000000004	1	0	0.7	0.30000000000000004	2	10	1.4	3.0000000000000004	valid	0.6331795009991765	53248.0	0	1.0	2.0	53248	1	51200	0	53248	1	0.7	51200	purple	turquoise	0	0	ml	2.7.3	bip	sub-03_ses-02_task-ml_proj-bip_2020-11-03-10-14-14.933299
1	3	2	1	2	stable	1	200	2	sv	purple	turquoise	purple	turquoise	left	right	0.7	0.30000000000000004	2	6	1.4	1.8000000000000005	0	1	0.7	0.30000000000000004	2	6	1.4	1.8000000000000005	invalid	0.3499335819997213	53248.0	0	1.0	2.0	53248	1	51200	0	53248	1	0.7	51200	purple	turquoise	0	6	ml	2.7.3	bip	sub-03_ses-02_task-ml_proj-bip_2020-11-03-10-14-14.933299
2	3	2	1	3	stable	1	200	3	sv	turquoise	purple	purple	turquoise	right	left	0.7	0.30000000000000004	2	4	1.4	1.2000000000000002	0	1	0.30000000000000004	0.7	4	2	1.2000000000000002	1.4	invalid	0.33326054200006183	51200.0	0	0.0	2.0	53248	0	53248	0	51200	1	0.7	53248	purple	turquoise	0	4	ml	2.7.3	bip	sub-03_ses-02_task-ml_proj-bip_2020-11-03-10-14-14.933299
3	3	2	1	4	stable	1	200	4	sv	turquoise	purple	purple	turquoise	right	left	0.7	0.30000000000000004	4	6	2.8	1.8000000000000005	1	0	0.30000000000000004	0.7	6	4	1.8000000000000005	2.8	valid	0.3832431079990784	51200.0	0	0.0	2.0	53248	0	53248	0	51200	1	0.7	53248	purple	turquoise	0	0	ml	2.7.3	bip	sub-03_ses-02_task-ml_proj-bip_2020-11-03-10-14-14.933299
4	3	2	1	5	stable	1	200	5	sv	turquoise	purple	purple	turquoise	right	left	0.7	0.30000000000000004	6	2	4.199999999999998	0.6000000000000001	1	0	0.30000000000000004	0.7	2	6	0.6000000000000001	4.199999999999998	valid	0.3332610119996389	51200.0	0	0.0	2.0	53248	0	53248	0	53248	0	0.7	53248	purple	turquoise	1	0	ml	2.7.3	bip	sub-03_ses-02_task-ml_proj-bip_2020-11-03-10-14-14.933299
5	3	2	1	6	stable	1	200	6	sv	turquoise	purple	purple	turquoise	right	left	0.7	0.30000000000000004	4	6	2.8	1.8000000000000005	1	0	0.30000000000000004	0.7	6	4	1.8000000000000005	2.8	valid	0.3665957199991681	53248.0	0	1.0	1.0	53248	1	53248	1	51200	0	0.7	53248	purple	turquoise	0	4	ml	2.7.3	bip	sub-03_ses-02_task-ml_proj-bip_2020-11-03-10-14-14.933299
6	3	2	1	7	stable	1	200	7	sv	turquoise	purple	purple	turquoise	right	left	0.7	0.30000000000000004	2	6	1.4	1.8000000000000005	1	0	0.30000000000000004	0.7	6	2	1.8000000000000005	1.4	valid	0.3665940619994217	53248.0	0	1.0	1.0	51200	0	53248	1	51200	0	0.7	53248	purple	turquoise	0	2	ml	2.7.3	bip	sub-03_ses-02_task-ml_proj-bip_2020-11-03-10-14-14.933299
7	3	2	1	8	stable	1	200	8	sv	turquoise	purple	purple	turquoise	right	left	0.7	0.30000000000000004	10	2	7.0	0.6000000000000001	1	0	0.30000000000000004	0.7	2	10	0.6000000000000001	7.0	valid	0.3665959739992104	53248.0	0	1.0	1.0	53248	1	53248	1	53248	1	0.7	53248	purple	turquoise	1	10	ml	2.7.3	bip	sub-03_ses-02_task-ml_proj-bip_2020-11-03-10-14-14.933299
8	3	2	1	9	stable	1	200	9	sv	turquoise	purple	purple	turquoise	right	left	0.7	0.30000000000000004	6	2	4.199999999999998	0.6000000000000001	1	0	0.30000000000000004	0.7	2	6	0.6000000000000001	4.199999999999998	valid	0.3499307780002709	53248.0	0	1.0	1.0	53248	1	53248	1	53248	1	0.7	53248	purple	turquoise	1	6	ml	2.7.3	bip	sub-03_ses-02_task-ml_proj-bip_2020-11-03-10-14-14.933299
9	3	2	1	10	stable	1	200	10	sv	purple	turquoise	purple	turquoise	left	right	0.7	0.30000000000000004	2	10	1.4	3.0000000000000004	1	0	0.7	0.30000000000000004	2	10	1.4	3.0000000000000004	valid	0.3332572400013305	51200.0	0	0.0	1.0	53248	0	51200	1	53248	0	0.7	51200	purple	turquoise	0	2	ml	2.7.3	bip	sub-03_ses-02_task-ml_proj-bip_2020-11-03-10-14-14.933299
10	3	2	1	11	stable	1	200	11	sv	turquoise	purple	purple	turquoise	right	left	0.7	0.30000000000000004	2	2	1.4	0.6000000000000001	1	0	0.30000000000000004	0.7	2	2	0.6000000000000001	1.4	valid	0.3665944269996544	53248.0	0	1.0	1.0	53248	1	53248	1	53248	1	0.7	53248	purple	turquoise	0	2	ml	2.7.3	bip	sub-03_ses-02_task-ml_proj-bip_2020-11-03-10-14-14.933299
11	3	2	1	12	stable	1	200	12	sv	turquoise	purple	purple	turquoise	right	left	0.7	0.30000000000000004	4	6	2.8	1.8000000000000005	1	0	0.30000000000000004	0.7	6	4	1.8000000000000005	2.8	valid	0.5498730670005898	53248.0	0	1.0	1.0	53248	1	53248	1	51200	0	0.7	53248	purple	turquoise	0	4	ml	2.7.3	bip	sub-03_ses-02_task-ml_proj-bip_2020-11-03-10-14-14.933299
12	3	2	1	13	stable	1	200	13	sv	turquoise	purple	purple	turquoise	right	left	0.7	0.30000000000000004	2	10	1.4	3.0000000000000004	1	0	0.30000000000000004	0.7	10	2	3.0000000000000004	1.4	valid	0.4499115770013304	53248.0	0	1.0	1.0	51200	0	53248	1	51200	0	0.7	53248	purple	turquoise	0	2	ml	2.7.3	bip	sub-03_ses-02_task-ml_proj-bip_2020-11-03-10-14-14.933299
13	3	2	1	14	stable	1	200	14	sv	purple	turquoise	purple	turquoise	left	right	0.7	0.30000000000000004	4	6	2.8	1.8000000000000005	0	1	0.7	0.30000000000000004	4	6	2.8	1.8000000000000005	invalid	0.34992126199904305	51200.0	0	0.0	1.0	51200	1	51200	1	53248	0	0.7	51200	purple	turquoise	0	0	ml	2.7.3	bip	sub-03_ses-02_task-ml_proj-bip_2020-11-03-10-14-14.933299
14	3	2	1	15	stable	1	200	15	sv	turquoise	purple	purple	turquoise	right	left	0.7	0.30000000000000004	2	4	1.4	1.2000000000000002	0	1	0.30000000000000004	0.7	4	2	1.2000000000000002	1.4	invalid	0.8664493300002505	53248.0	0	1.0	1.0	53248	1	53248	1	51200	0	0.7	53248	purple	turquoise	0	0	ml	2.7.3	bip	sub-03_ses-02_task-ml_proj-bip_2020-11-03-10-14-14.933299
15	3	2	1	16	stable	1	200	16	sv	purple	turquoise	purple	turquoise	left	right	0.7	0.30000000000000004	6	4	4.199999999999998	1.2000000000000002	0	1	0.7	0.30000000000000004	6	4	4.199999999999998	1.2000000000000002	invalid	0.3666023680016224	53248.0	0	1.0	2.0	51200	0	51200	0	51200	0	0.7	51200	purple	turquoise	1	4	ml	2.7.3	bip	sub-03_ses-02_task-ml_proj-bip_2020-11-03-10-14-14.933299
16	3	2	1	17	stable	1	200	17	sv	purple	turquoise	purple	turquoise	left	right	0.7	0.30000000000000004	6	4	4.199999999999998	1.2000000000000002	1	0	0.7	0.30000000000000004	6	4	4.199999999999998	1.2000000000000002	valid	0.3832566229993972	53248.0	0	1.0	2.0	51200	0	51200	0	51200	0	0.7	51200	purple	turquoise	1	0	ml	2.7.3	bip	sub-03_ses-02_task-ml_proj-bip_2020-11-03-10-14-14.933299
17	3	2	1	18	stable	1	200	18	sv	purple	turquoise	purple	turquoise	left	right	0.7	0.30000000000000004	2	4	1.4	1.2000000000000002	0	1	0.7	0.30000000000000004	2	4	1.4	1.2000000000000002	invalid	0.3499320640003134	53248.0	0	1.0	2.0	51200	0	51200	0	53248	1	0.7	51200	purple	turquoise	0	4	ml	2.7.3	bip	sub-03_ses-02_task-ml_proj-bip_2020-11-03-10-14-14.933299
18	3	2	1	19	stable	1	200	19	sv	turquoise	purple	purple	turquoise	right	left	0.7	0.30000000000000004	6	4	4.199999999999998	1.2000000000000002	1	0	0.30000000000000004	0.7	4	6	1.2000000000000002	4.199999999999998	valid	0.39990722600123263	51200.0	0	0.0	2.0	53248	0	53248	0	53248	0	0.7	53248	purple	turquoise	1	0	ml	2.7.3	bip	sub-03_ses-02_task-ml_proj-bip_2020-11-03-10-14-14.933299
19	3	2	1	20	stable	1	200	20	sv	purple	turquoise	purple	turquoise	left	right	0.7	0.30000000000000004	4	2	2.8	0.6000000000000001	0	1	0.7	0.30000000000000004	4	2	2.8	0.6000000000000001	invalid	0.3499249509986839	51200.0	0	0.0	1.0	51200	1	51200	1	51200	1	0.7	51200	purple	turquoise	1	0	ml	2.7.3	bip	sub-03_ses-02_task-ml_proj-bip_2020-11-03-10-14-14.933299
20	3	2	1	21	stable	1	200	21	sv	purple	turquoise	purple	turquoise	left	right	0.7	0.30000000000000004	4	6	2.8	1.8000000000000005	1	0	0.7	0.30000000000000004	4	6	2.8	1.8000000000000005	valid	0.4332327529991744	51200.0	0	0.0	1.0	51200	1	51200	1	53248	0	0.7	51200	purple	turquoise	0	4	ml	2.7.3	bip	sub-03_ses-02_task-ml_proj-bip_2020-11-03-10-14-14.933299
21	3	2	1	22	stable	1	200	22	sv	purple	turquoise	purple	turquoise	left	right	0.7	0.30000000000000004	4	2	2.8	0.6000000000000001	1	0	0.7	0.30000000000000004	4	2	2.8	0.6000000000000001	valid	0.4165660199996637	51200.0	0	0.0	1.0	51200	1	51200	1	51200	1	0.7	51200	purple	turquoise	1	4	ml	2.7.3	bip	sub-03_ses-02_task-ml_proj-bip_2020-11-03-10-14-14.933299
22	3	2	1	23	stable	1	200	23	sv	turquoise	purple	purple	turquoise	right	left	0.7	0.30000000000000004	10	2	7.0	0.6000000000000001	1	0	0.30000000000000004	0.7	2	10	0.6000000000000001	7.0	valid	0.3499349020003137	53248.0	0	1.0	1.0	53248	1	53248	1	53248	1	0.7	53248	purple	turquoise	1	10	ml	2.7.3	bip	sub-03_ses-02_task-ml_proj-bip_2020-11-03-10-14-14.933299
23	3	2	1	24	stable	1	200	24	sv	turquoise	purple	purple	turquoise	right	left	0.7	0.30000000000000004	10	2	7.0	0.6000000000000001	0	1	0.30000000000000004	0.7	2	10	0.6000000000000001	7.0	invalid	0.34993497600044066	53248.0	0	1.0	1.0	53248	1	53248	1	53248	1	0.7	53248	purple	turquoise	1	0	ml	2.7.3	bip	sub-03_ses-02_task-ml_proj-bip_2020-11-03-10-14-14.933299
24	3	2	1	25	stable	1	200	25	sv	turquoise	purple	purple	turquoise	right	left	0.7	0.30000000000000004	4	2	2.8	0.6000000000000001	1	0	0.30000000000000004	0.7	2	4	0.6000000000000001	2.8	valid	0.4165785679997498	53248.0	0	1.0	1.0	53248	1	53248	1	53248	1	0.7	53248	purple	turquoise	1	4	ml	2.7.3	bip	sub-03_ses-02_task-ml_proj-bip_2020-11-03-10-14-14.933299
25	3	2	1	26	stable	1	200	26	sv	purple	turquoise	purple	turquoise	left	right	0.7	0.30000000000000004	2	4	1.4	1.2000000000000002	1	0	0.7	0.30000000000000004	2	4	1.4	1.2000000000000002	valid	0.3332599189998291	51200.0	0	0.0	1.0	51200	1	51200	1	53248	0	0.7	51200	purple	turquoise	0	2	ml	2.7.3	bip	sub-03_ses-02_task-ml_proj-bip_2020-11-03-10-14-14.933299
26	3	2	1	27	stable	1	200	27	sv	turquoise	purple	purple	turquoise	right	left	0.7	0.30000000000000004	6	2	4.199999999999998	0.6000000000000001	0	1	0.30000000000000004	0.7	2	6	0.6000000000000001	4.199999999999998	invalid	0.3499334749994887	53248.0	0	1.0	1.0	53248	1	53248	1	53248	1	0.7	53248	purple	turquoise	1	0	ml	2.7.3	bip	sub-03_ses-02_task-ml_proj-bip_2020-11-03-10-14-14.933299
27	3	2	1	28	stable	1	200	28	sv	turquoise	purple	purple	turquoise	right	left	0.7	0.30000000000000004	10	2	7.0	0.6000000000000001	1	0	0.30000000000000004	0.7	2	10	0.6000000000000001	7.0	valid	0.7831424460000562	53248.0	0	1.0	1.0	53248	1	53248	1	53248	1	0.7	53248	purple	turquoise	1	10	ml	2.7.3	bip	sub-03_ses-02_task-ml_proj-bip_2020-11-03-10-14-14.933299
28	3	2	1	29	stable	1	200	29	sv	purple	turquoise	purple	turquoise	left	right	0.7	0.30000000000000004	2	4	1.4	1.2000000000000002	0	1	0.7	0.30000000000000004	2	4	1.4	1.2000000000000002	invalid	0.3332587559998501	51200.0	0	0.0	1.0	51200	1	51200	1	53248	0	0.7	51200	purple	turquoise	0	0	ml	2.7.3	bip	sub-03_ses-02_task-ml_proj-bip_2020-11-03-10-14-14.933299
29	3	2	1	30	stable	1	200	30	sv	purple	turquoise	purple	turquoise	left	right	0.7	0.30000000000000004	6	6	4.199999999999998	1.8000000000000005	1	0	0.7	0.30000000000000004	6	6	4.199999999999998	1.8000000000000005	valid	0.3499198099998466	51200.0	0	0.0	1.0	51200	1	51200	1	53248	0	0.7	51200	purple	turquoise	1	6	ml	2.7.3	bip	sub-03_ses-02_task-ml_proj-bip_2020-11-03-10-14-14.933299
30	3	2	1	31	stable	1	200	31	sv	turquoise	purple	purple	turquoise	right	left	0.7	0.30000000000000004	6	6	4.199999999999998	1.8000000000000005	1	0	0.30000000000000004	0.7	6	6	1.8000000000000005	4.199999999999998	valid	0.44990456599953177	53248.0	0	1.0	1.0	53248	1	53248	1	53248	1	0.7	53248	purple	turquoise	0	6	ml	2.7.3	bip	sub-03_ses-02_task-ml_proj-bip_2020-11-03-10-14-14.933299
31	3	2	1	32	stable	1	200	32	sv	purple	turquoise	purple	turquoise	left	right	0.7	0.30000000000000004	6	2	4.199999999999998	0.6000000000000001	1	0	0.7	0.30000000000000004	6	2	4.199999999999998	0.6000000000000001	valid	0.3332575039985386	51200.0	0	0.0	1.0	51200	1	51200	1	51200	1	0.7	51200	purple	turquoise	1	6	ml	2.7.3	bip	sub-03_ses-02_task-ml_proj-bip_2020-11-03-10-14-14.933299
32	3	2	1	33	stable	1	200	33	sv	turquoise	purple	purple	turquoise	right	left	0.7	0.30000000000000004	6	6	4.199999999999998	1.8000000000000005	1	0	0.30000000000000004	0.7	6	6	1.8000000000000005	4.199999999999998	valid	0.3499343259991292	53248.0	0	1.0	1.0	53248	1	53248	1	53248	1	0.7	53248	purple	turquoise	0	6	ml	2.7.3	bip	sub-03_ses-02_task-ml_proj-bip_2020-11-03-10-14-14.933299
33	3	2	1	34	stable	1	200	34	sv	turquoise	purple	purple	turquoise	right	left	0.7	0.30000000000000004	2	2	1.4	0.6000000000000001	0	1	0.30000000000000004	0.7	2	2	0.6000000000000001	1.4	invalid	0.3499182920004387	51200.0	0	0.0	2.0	53248	0	53248	0	53248	0	0.7	53248	purple	turquoise	0	2	ml	2.7.3	bip	sub-03_ses-02_task-ml_proj-bip_2020-11-03-10-14-14.933299
34	3	2	1	35	stable	1	200	35	sv	turquoise	purple	purple	turquoise	right	left	0.7	0.30000000000000004	2	4	1.4	1.2000000000000002	1	0	0.30000000000000004	0.7	4	2	1.2000000000000002	1.4	valid	0.3165982040009112	51200.0	0	0.0	2.0	53248	0	53248	0	51200	1	0.7	53248	purple	turquoise	0	0	ml	2.7.3	bip	sub-03_ses-02_task-ml_proj-bip_2020-11-03-10-14-14.933299
35	3	2	1	36	stable	1	200	36	sv	turquoise	purple	purple	turquoise	right	left	0.7	0.30000000000000004	4	2	2.8	0.6000000000000001	1	0	0.30000000000000004	0.7	2	4	0.6000000000000001	2.8	valid	0.38324482400093984	51200.0	0	0.0	2.0	53248	0	53248	0	53248	0	0.7	53248	purple	turquoise	1	0	ml	2.7.3	bip	sub-03_ses-02_task-ml_proj-bip_2020-11-03-10-14-14.933299
36	3	2	1	37	stable	1	200	37	sv	turquoise	purple	purple	turquoise	right	left	0.7	0.30000000000000004	4	6	2.8	1.8000000000000005	1	0	0.30000000000000004	0.7	6	4	1.8000000000000005	2.8	valid	0.31660408600146184	53248.0	0	1.0	1.0	53248	1	53248	1	51200	0	0.7	53248	purple	turquoise	0	4	ml	2.7.3	bip	sub-03_ses-02_task-ml_proj-bip_2020-11-03-10-14-14.933299
37	3	2	1	38	stable	1	200	38	sv	turquoise	purple	purple	turquoise	right	left	0.7	0.30000000000000004	10	2	7.0	0.6000000000000001	1	0	0.30000000000000004	0.7	2	10	0.6000000000000001	7.0	valid	0.3499305219993403	53248.0	0	1.0	1.0	53248	1	53248	1	53248	1	0.7	53248	purple	turquoise	1	10	ml	2.7.3	bip	sub-03_ses-02_task-ml_proj-bip_2020-11-03-10-14-14.933299
38	3	2	1	39	stable	1	200	39	sv	purple	turquoise	purple	turquoise	left	right	0.7	0.30000000000000004	2	6	1.4	1.8000000000000005	1	0	0.7	0.30000000000000004	2	6	1.4	1.8000000000000005	valid	0.3832448779994593	51200.0	0	0.0	1.0	53248	0	51200	1	53248	0	0.7	51200	purple	turquoise	0	2	ml	2.7.3	bip	sub-03_ses-02_task-ml_proj-bip_2020-11-03-10-14-14.933299
39	3	2	1	40	stable	1	200	40	sv	purple	turquoise	purple	turquoise	left	right	0.7	0.30000000000000004	4	6	2.8	1.8000000000000005	1	0	0.7	0.30000000000000004	4	6	2.8	1.8000000000000005	valid	0.34991974699914863	51200.0	0	0.0	1.0	51200	1	51200	1	53248	0	0.7	51200	purple	turquoise	0	4	ml	2.7.3	bip	sub-03_ses-02_task-ml_proj-bip_2020-11-03-10-14-14.933299
40	3	2	1	41	stable	1	200	41	sv	purple	turquoise	purple	turquoise	left	right	0.7	0.30000000000000004	4	2	2.8	0.6000000000000001	1	0	0.7	0.30000000000000004	4	2	2.8	0.6000000000000001	valid	0.3165982150003401	51200.0	0	0.0	1.0	51200	1	51200	1	51200	1	0.7	51200	purple	turquoise	1	4	ml	2.7.3	bip	sub-03_ses-02_task-ml_proj-bip_2020-11-03-10-14-14.933299
41	3	2	1	42	stable	1	200	42	sv	turquoise	purple	purple	turquoise	right	left	0.7	0.30000000000000004	6	6	4.199999999999998	1.8000000000000005	0	1	0.30000000000000004	0.7	6	6	1.8000000000000005	4.199999999999998	invalid	0.3999154490011279	53248.0	0	1.0	1.0	53248	1	53248	1	53248	1	0.7	53248	purple	turquoise	0	0	ml	2.7.3	bip	sub-03_ses-02_task-ml_proj-bip_2020-11-03-10-14-14.933299
42	3	2	1	43	stable	1	200	43	sv	purple	turquoise	purple	turquoise	left	right	0.7	0.30000000000000004	4	2	2.8	0.6000000000000001	0	1	0.7	0.30000000000000004	4	2	2.8	0.6000000000000001	invalid	0.3499236369989376	51200.0	0	0.0	1.0	51200	1	51200	1	51200	1	0.7	51200	purple	turquoise	1	0	ml	2.7.3	bip	sub-03_ses-02_task-ml_proj-bip_2020-11-03-10-14-14.933299
43	3	2	1	44	stable	1	200	44	sv	turquoise	purple	purple	turquoise	right	left	0.7	0.30000000000000004	6	4	4.199999999999998	1.2000000000000002	1	0	0.30000000000000004	0.7	4	6	1.2000000000000002	4.199999999999998	valid	0.5498667960000603	53248.0	0	1.0	1.0	53248	1	53248	1	53248	1	0.7	53248	purple	turquoise	1	6	ml	2.7.3	bip	sub-03_ses-02_task-ml_proj-bip_2020-11-03-10-14-14.933299
44	3	2	1	45	stable	1	200	45	sv	purple	turquoise	purple	turquoise	left	right	0.7	0.30000000000000004	2	2	1.4	0.6000000000000001	1	0	0.7	0.30000000000000004	2	2	1.4	0.6000000000000001	valid	0.4499177420002525	51200.0	0	0.0	1.0	51200	1	51200	1	53248	0	0.7	51200	purple	turquoise	1	2	ml	2.7.3	bip	sub-03_ses-02_task-ml_proj-bip_2020-11-03-10-14-14.933299
45	3	2	1	46	stable	1	200	46	sv	purple	turquoise	purple	turquoise	left	right	0.7	0.30000000000000004	10	2	7.0	0.6000000000000001	1	0	0.7	0.30000000000000004	10	2	7.0	0.6000000000000001	valid	0.3499214479998045	51200.0	0	0.0	1.0	51200	1	51200	1	51200	1	0.7	51200	purple	turquoise	1	10	ml	2.7.3	bip	sub-03_ses-02_task-ml_proj-bip_2020-11-03-10-14-14.933299
46	3	2	1	47	stable	1	200	47	sv	turquoise	purple	purple	turquoise	right	left	0.7	0.30000000000000004	2	10	1.4	3.0000000000000004	1	0	0.30000000000000004	0.7	10	2	3.0000000000000004	1.4	valid	0.4665661319995706	53248.0	0	1.0	1.0	51200	0	53248	1	51200	0	0.7	53248	purple	turquoise	0	2	ml	2.7.3	bip	sub-03_ses-02_task-ml_proj-bip_2020-11-03-10-14-14.933299
47	3	2	1	48	stable	1	200	48	sv	purple	turquoise	purple	turquoise	left	right	0.7	0.30000000000000004	2	6	1.4	1.8000000000000005	0	1	0.7	0.30000000000000004	2	6	1.4	1.8000000000000005	invalid	0.2999363689996244	51200.0	0	0.0	1.0	53248	0	51200	1	53248	0	0.7	51200	purple	turquoise	0	0	ml	2.7.3	bip	sub-03_ses-02_task-ml_proj-bip_2020-11-03-10-14-14.933299
48	3	2	1	49	stable	1	200	49	sv	purple	turquoise	purple	turquoise	left	right	0.7	0.30000000000000004	6	6	4.199999999999998	1.8000000000000005	1	0	0.7	0.30000000000000004	6	6	4.199999999999998	1.8000000000000005	valid	0.5165544559986301	53248.0	0	1.0	2.0	51200	0	51200	0	53248	1	0.7	51200	purple	turquoise	1	0	ml	2.7.3	bip	sub-03_ses-02_task-ml_proj-bip_2020-11-03-10-14-14.933299
49	3	2	1	50	stable	1	200	50	sv	turquoise	purple	purple	turquoise	right	left	0.7	0.30000000000000004	10	2	7.0	0.6000000000000001	1	0	0.30000000000000004	0.7	2	10	0.6000000000000001	7.0	valid	0.5498753439987922	53248.0	0	1.0	1.0	53248	1	53248	1	53248	1	0.7	53248	purple	turquoise	1	10	ml	2.7.3	bip	sub-03_ses-02_task-ml_proj-bip_2020-11-03-10-14-14.933299
50	3	2	2	51	stable	1	200	51	sv	turquoise	purple	purple	turquoise	right	left	0.7	0.30000000000000004	6	6	4.199999999999998	1.8000000000000005	1	0	0.30000000000000004	0.7	6	6	1.8000000000000005	4.199999999999998	valid	0.616519146000428	53248.0	0	1.0	1.0	53248	1	53248	1	53248	1	0.7	53248	purple	turquoise	0	6	ml	2.7.3	bip	sub-03_ses-02_task-ml_proj-bip_2020-11-03-10-14-14.933299
51	3	2	2	52	stable	1	200	52	sv	purple	turquoise	purple	turquoise	left	right	0.7	0.30000000000000004	2	2	1.4	0.6000000000000001	1	0	0.7	0.30000000000000004	2	2	1.4	0.6000000000000001	valid	0.3499172980009462	51200.0	0	0.0	1.0	51200	1	51200	1	53248	0	0.7	51200	purple	turquoise	1	2	ml	2.7.3	bip	sub-03_ses-02_task-ml_proj-bip_2020-11-03-10-14-14.933299
52	3	2	2	53	stable	1	200	53	sv	purple	turquoise	purple	turquoise	left	right	0.7	0.30000000000000004	6	2	4.199999999999998	0.6000000000000001	0	1	0.7	0.30000000000000004	6	2	4.199999999999998	0.6000000000000001	invalid	0.31660526799896616	51200.0	0	0.0	1.0	51200	1	51200	1	51200	1	0.7	51200	purple	turquoise	1	0	ml	2.7.3	bip	sub-03_ses-02_task-ml_proj-bip_2020-11-03-10-14-14.933299
53	3	2	2	54	stable	1	200	54	sv	turquoise	purple	purple	turquoise	right	left	0.7	0.30000000000000004	4	6	2.8	1.8000000000000005	1	0	0.30000000000000004	0.7	6	4	1.8000000000000005	2.8	valid	0.3332684710003377	53248.0	0	1.0	1.0	53248	1	53248	1	51200	0	0.7	53248	purple	turquoise	0	4	ml	2.7.3	bip	sub-03_ses-02_task-ml_proj-bip_2020-11-03-10-14-14.933299
54	3	2	2	55	stable	1	200	55	sv	turquoise	purple	purple	turquoise	right	left	0.7	0.30000000000000004	2	10	1.4	3.0000000000000004	1	0	0.30000000000000004	0.7	10	2	3.0000000000000004	1.4	valid	0.4165782860000036	53248.0	0	1.0	1.0	51200	0	53248	1	51200	0	0.7	53248	purple	turquoise	0	2	ml	2.7.3	bip	sub-03_ses-02_task-ml_proj-bip_2020-11-03-10-14-14.933299
55	3	2	2	56	stable	1	200	56	sv	purple	turquoise	purple	turquoise	left	right	0.7	0.30000000000000004	2	4	1.4	1.2000000000000002	1	0	0.7	0.30000000000000004	2	4	1.4	1.2000000000000002	valid	0.3832467030006228	51200.0	0	0.0	1.0	51200	1	51200	1	53248	0	0.7	51200	purple	turquoise	0	2	ml	2.7.3	bip	sub-03_ses-02_task-ml_proj-bip_2020-11-03-10-14-14.933299
56	3	2	2	57	stable	1	200	57	sv	purple	turquoise	purple	turquoise	left	right	0.7	0.30000000000000004	6	4	4.199999999999998	1.2000000000000002	1	0	0.7	0.30000000000000004	6	4	4.199999999999998	1.2000000000000002	valid	0.4332301069989626	51200.0	0	0.0	1.0	51200	1	51200	1	51200	1	0.7	51200	purple	turquoise	1	6	ml	2.7.3	bip	sub-03_ses-02_task-ml_proj-bip_2020-11-03-10-14-14.933299
57	3	2	2	58	stable	1	200	58	sv	turquoise	purple	purple	turquoise	right	left	0.7	0.30000000000000004	4	6	2.8	1.8000000000000005	1	0	0.30000000000000004	0.7	6	4	1.8000000000000005	2.8	valid	0.3332713229992805	53248.0	0	1.0	1.0	53248	1	53248	1	51200	0	0.7	53248	purple	turquoise	0	4	ml	2.7.3	bip	sub-03_ses-02_task-ml_proj-bip_2020-11-03-10-14-14.933299
58	3	2	2	59	stable	1	200	59	sv	turquoise	purple	purple	turquoise	right	left	0.7	0.30000000000000004	2	4	1.4	1.2000000000000002	0	1	0.30000000000000004	0.7	4	2	1.2000000000000002	1.4	invalid	0.4665652040002897	53248.0	0	1.0	1.0	53248	1	53248	1	51200	0	0.7	53248	purple	turquoise	0	0	ml	2.7.3	bip	sub-03_ses-02_task-ml_proj-bip_2020-11-03-10-14-14.933299
59	3	2	2	60	stable	1	200	60	sv	turquoise	purple	purple	turquoise	right	left	0.7	0.30000000000000004	2	10	1.4	3.0000000000000004	1	0	0.30000000000000004	0.7	10	2	3.0000000000000004	1.4	valid	0.299937231999138	51200.0	0	0.0	2.0	51200	1	53248	0	51200	1	0.7	53248	purple	turquoise	0	0	ml	2.7.3	bip	sub-03_ses-02_task-ml_proj-bip_2020-11-03-10-14-14.933299
60	3	2	2	61	stable	1	200	61	sv	turquoise	purple	purple	turquoise	right	left	0.7	0.30000000000000004	2	10	1.4	3.0000000000000004	1	0	0.30000000000000004	0.7	10	2	3.0000000000000004	1.4	valid	0.2832755970011931	51200.0	0	0.0	2.0	51200	1	53248	0	51200	1	0.7	53248	purple	turquoise	0	0	ml	2.7.3	bip	sub-03_ses-02_task-ml_proj-bip_2020-11-03-10-14-14.933299
61	3	2	2	62	stable	1	200	62	sv	turquoise	purple	purple	turquoise	right	left	0.7	0.30000000000000004	10	2	7.0	0.6000000000000001	0	1	0.30000000000000004	0.7	2	10	0.6000000000000001	7.0	invalid	0.41658288600046944	53248.0	0	1.0	1.0	53248	1	53248	1	53248	1	0.7	53248	purple	turquoise	1	0	ml	2.7.3	bip	sub-03_ses-02_task-ml_proj-bip_2020-11-03-10-14-14.933299
62	3	2	2	63	stable	1	200	63	sv	turquoise	purple	purple	turquoise	right	left	0.7	0.30000000000000004	6	6	4.199999999999998	1.8000000000000005	1	0	0.30000000000000004	0.7	6	6	1.8000000000000005	4.199999999999998	valid	0.3999136110014661	53248.0	0	1.0	1.0	53248	1	53248	1	53248	1	0.7	53248	purple	turquoise	0	6	ml	2.7.3	bip	sub-03_ses-02_task-ml_proj-bip_2020-11-03-10-14-14.933299
63	3	2	2	64	stable	1	200	64	sv	turquoise	purple	purple	turquoise	right	left	0.7	0.30000000000000004	6	2	4.199999999999998	0.6000000000000001	0	1	0.30000000000000004	0.7	2	6	0.6000000000000001	4.199999999999998	invalid	0.3832545610002853	53248.0	0	1.0	1.0	53248	1	53248	1	53248	1	0.7	53248	purple	turquoise	1	0	ml	2.7.3	bip	sub-03_ses-02_task-ml_proj-bip_2020-11-03-10-14-14.933299
64	3	2	2	65	stable	1	200	65	sv	purple	turquoise	purple	turquoise	left	right	0.7	0.30000000000000004	2	4	1.4	1.2000000000000002	1	0	0.7	0.30000000000000004	2	4	1.4	1.2000000000000002	valid	0.38324647300032666	51200.0	0	0.0	1.0	51200	1	51200	1	53248	0	0.7	51200	purple	turquoise	0	2	ml	2.7.3	bip	sub-03_ses-02_task-ml_proj-bip_2020-11-03-10-14-14.933299
65	3	2	2	66	stable	1	200	66	sv	turquoise	purple	purple	turquoise	right	left	0.7	0.30000000000000004	6	2	4.199999999999998	0.6000000000000001	1	0	0.30000000000000004	0.7	2	6	0.6000000000000001	4.199999999999998	valid	0.39991931800068414	53248.0	0	1.0	1.0	53248	1	53248	1	53248	1	0.7	53248	purple	turquoise	1	6	ml	2.7.3	bip	sub-03_ses-02_task-ml_proj-bip_2020-11-03-10-14-14.933299
66	3	2	2	67	stable	1	200	67	sv	purple	turquoise	purple	turquoise	left	right	0.7	0.30000000000000004	2	2	1.4	0.6000000000000001	0	1	0.7	0.30000000000000004	2	2	1.4	0.6000000000000001	invalid	0.3332599149998714	51200.0	0	0.0	1.0	51200	1	51200	1	53248	0	0.7	51200	purple	turquoise	1	0	ml	2.7.3	bip	sub-03_ses-02_task-ml_proj-bip_2020-11-03-10-14-14.933299
67	3	2	2	68	stable	1	200	68	sv	turquoise	purple	purple	turquoise	right	left	0.7	0.30000000000000004	4	6	2.8	1.8000000000000005	1	0	0.30000000000000004	0.7	6	4	1.8000000000000005	2.8	valid	0.4332392689993867	53248.0	0	1.0	1.0	53248	1	53248	1	51200	0	0.7	53248	purple	turquoise	0	4	ml	2.7.3	bip	sub-03_ses-02_task-ml_proj-bip_2020-11-03-10-14-14.933299
68	3	2	2	69	stable	1	200	69	sv	purple	turquoise	purple	turquoise	left	right	0.7	0.30000000000000004	4	2	2.8	0.6000000000000001	1	0	0.7	0.30000000000000004	4	2	2.8	0.6000000000000001	valid	0.2832738480010448	51200.0	0	0.0	1.0	51200	1	51200	1	51200	1	0.7	51200	purple	turquoise	1	4	ml	2.7.3	bip	sub-03_ses-02_task-ml_proj-bip_2020-11-03-10-14-14.933299
69	3	2	2	70	stable	1	200	70	sv	turquoise	purple	purple	turquoise	right	left	0.7	0.30000000000000004	4	6	2.8	1.8000000000000005	1	0	0.30000000000000004	0.7	6	4	1.8000000000000005	2.8	valid	0.5665358389996982	53248.0	0	1.0	1.0	53248	1	53248	1	51200	0	0.7	53248	purple	turquoise	0	4	ml	2.7.3	bip	sub-03_ses-02_task-ml_proj-bip_2020-11-03-10-14-14.933299
70	3	2	2	71	stable	1	200	71	sv	purple	turquoise	purple	turquoise	left	right	0.7	0.30000000000000004	2	4	1.4	1.2000000000000002	1	0	0.7	0.30000000000000004	2	4	1.4	1.2000000000000002	valid	0.3665840930007107	51200.0	0	0.0	1.0	51200	1	51200	1	53248	0	0.7	51200	purple	turquoise	0	2	ml	2.7.3	bip	sub-03_ses-02_task-ml_proj-bip_2020-11-03-10-14-14.933299
71	3	2	2	72	stable	1	200	72	sv	turquoise	purple	purple	turquoise	right	left	0.7	0.30000000000000004	2	10	1.4	3.0000000000000004	1	0	0.30000000000000004	0.7	10	2	3.0000000000000004	1.4	valid	0.6998168049995002	51200.0	0	0.0	2.0	51200	1	53248	0	51200	1	0.7	53248	purple	turquoise	0	0	ml	2.7.3	bip	sub-03_ses-02_task-ml_proj-bip_2020-11-03-10-14-14.933299
72	3	2	2	73	stable	1	200	73	sv	purple	turquoise	purple	turquoise	left	right	0.7	0.30000000000000004	2	2	1.4	0.6000000000000001	1	0	0.7	0.30000000000000004	2	2	1.4	0.6000000000000001	valid	0.333267699001226	53248.0	0	1.0	2.0	51200	0	51200	0	53248	1	0.7	51200	purple	turquoise	1	0	ml	2.7.3	bip	sub-03_ses-02_task-ml_proj-bip_2020-11-03-10-14-14.933299
73	3	2	2	74	stable	1	200	74	sv	purple	turquoise	purple	turquoise	left	right	0.7	0.30000000000000004	2	6	1.4	1.8000000000000005	0	1	0.7	0.30000000000000004	2	6	1.4	1.8000000000000005	invalid	0.4498916910015396	51200.0	0	0.0	1.0	53248	0	51200	1	53248	0	0.7	51200	purple	turquoise	0	0	ml	2.7.3	bip	sub-03_ses-02_task-ml_proj-bip_2020-11-03-10-14-14.933299
74	3	2	2	75	stable	1	200	75	sv	purple	turquoise	purple	turquoise	left	right	0.7	0.30000000000000004	6	2	4.199999999999998	0.6000000000000001	0	1	0.7	0.30000000000000004	6	2	4.199999999999998	0.6000000000000001	invalid	0.36658084000009694	51200.0	0	0.0	1.0	51200	1	51200	1	51200	1	0.7	51200	purple	turquoise	1	0	ml	2.7.3	bip	sub-03_ses-02_task-ml_proj-bip_2020-11-03-10-14-14.933299
75	3	2	2	76	stable	1	200	76	sv	purple	turquoise	purple	turquoise	left	right	0.7	0.30000000000000004	2	2	1.4	0.6000000000000001	0	1	0.7	0.30000000000000004	2	2	1.4	0.6000000000000001	invalid	0.34993482699974265	53248.0	0	1.0	2.0	51200	0	51200	0	53248	1	0.7	51200	purple	turquoise	1	2	ml	2.7.3	bip	sub-03_ses-02_task-ml_proj-bip_2020-11-03-10-14-14.933299
76	3	2	2	77	stable	1	200	77	sv	purple	turquoise	purple	turquoise	left	right	0.7	0.30000000000000004	10	2	7.0	0.6000000000000001	0	1	0.7	0.30000000000000004	10	2	7.0	0.6000000000000001	invalid	0.3832539700015332	53248.0	0	1.0	2.0	51200	0	51200	0	51200	0	0.7	51200	purple	turquoise	1	2	ml	2.7.3	bip	sub-03_ses-02_task-ml_proj-bip_2020-11-03-10-14-14.933299
77	3	2	2	78	stable	1	200	78	sv	purple	turquoise	purple	turquoise	left	right	0.7	0.30000000000000004	4	2	2.8	0.6000000000000001	1	0	0.7	0.30000000000000004	4	2	2.8	0.6000000000000001	valid	0.4165799149996019	53248.0	0	1.0	2.0	51200	0	51200	0	51200	0	0.7	51200	purple	turquoise	1	0	ml	2.7.3	bip	sub-03_ses-02_task-ml_proj-bip_2020-11-03-10-14-14.933299
78	3	2	2	79	stable	1	200	79	sv	purple	turquoise	purple	turquoise	left	right	0.7	0.30000000000000004	6	2	4.199999999999998	0.6000000000000001	0	1	0.7	0.30000000000000004	6	2	4.199999999999998	0.6000000000000001	invalid	0.44990209299976414	53248.0	0	1.0	2.0	51200	0	51200	0	51200	0	0.7	51200	purple	turquoise	1	2	ml	2.7.3	bip	sub-03_ses-02_task-ml_proj-bip_2020-11-03-10-14-14.933299
79	3	2	2	80	stable	1	200	80	sv	turquoise	purple	purple	turquoise	right	left	0.7	0.30000000000000004	6	6	4.199999999999998	1.8000000000000005	1	0	0.30000000000000004	0.7	6	6	1.8000000000000005	4.199999999999998	valid	0.31660445099987555	51200.0	0	0.0	2.0	53248	0	53248	0	53248	0	0.7	53248	purple	turquoise	0	0	ml	2.7.3	bip	sub-03_ses-02_task-ml_proj-bip_2020-11-03-10-14-14.933299
80	3	2	2	81	stable	1	200	81	sv	turquoise	purple	purple	turquoise	right	left	0.7	0.30000000000000004	2	2	1.4	0.6000000000000001	1	0	0.30000000000000004	0.7	2	2	0.6000000000000001	1.4	valid	0.3165973809991556	51200.0	0	0.0	2.0	53248	0	53248	0	53248	0	0.7	53248	purple	turquoise	0	0	ml	2.7.3	bip	sub-03_ses-02_task-ml_proj-bip_2020-11-03-10-14-14.933299
81	3	2	2	82	stable	1	200	82	sv	purple	turquoise	purple	turquoise	left	right	0.7	0.30000000000000004	10	2	7.0	0.6000000000000001	0	1	0.7	0.30000000000000004	10	2	7.0	0.6000000000000001	invalid	0.3999136000002181	51200.0	0	0.0	1.0	51200	1	51200	1	51200	1	0.7	51200	purple	turquoise	1	0	ml	2.7.3	bip	sub-03_ses-02_task-ml_proj-bip_2020-11-03-10-14-14.933299
82	3	2	2	83	stable	1	200	83	sv	turquoise	purple	purple	turquoise	right	left	0.7	0.30000000000000004	6	6	4.199999999999998	1.8000000000000005	1	0	0.30000000000000004	0.7	6	6	1.8000000000000005	4.199999999999998	valid	0.3499330029990233	53248.0	0	1.0	1.0	53248	1	53248	1	53248	1	0.7	53248	purple	turquoise	0	6	ml	2.7.3	bip	sub-03_ses-02_task-ml_proj-bip_2020-11-03-10-14-14.933299
83	3	2	2	84	stable	1	200	84	sv	purple	turquoise	purple	turquoise	left	right	0.7	0.30000000000000004	2	2	1.4	0.6000000000000001	1	0	0.7	0.30000000000000004	2	2	1.4	0.6000000000000001	valid	0.3165981410002132	51200.0	0	0.0	1.0	51200	1	51200	1	53248	0	0.7	51200	purple	turquoise	1	2	ml	2.7.3	bip	sub-03_ses-02_task-ml_proj-bip_2020-11-03-10-14-14.933299
84	3	2	2	85	stable	1	200	85	sv	purple	turquoise	purple	turquoise	left	right	0.7	0.30000000000000004	2	10	1.4	3.0000000000000004	1	0	0.7	0.30000000000000004	2	10	1.4	3.0000000000000004	valid	0.43323122299989336	51200.0	0	0.0	1.0	53248	0	51200	1	53248	0	0.7	51200	purple	turquoise	0	2	ml	2.7.3	bip	sub-03_ses-02_task-ml_proj-bip_2020-11-03-10-14-14.933299
85	3	2	2	86	stable	1	200	86	sv	turquoise	purple	purple	turquoise	right	left	0.7	0.30000000000000004	6	4	4.199999999999998	1.2000000000000002	1	0	0.30000000000000004	0.7	4	6	1.2000000000000002	4.199999999999998	valid	0.366593325001304	53248.0	0	1.0	1.0	53248	1	53248	1	53248	1	0.7	53248	purple	turquoise	1	6	ml	2.7.3	bip	sub-03_ses-02_task-ml_proj-bip_2020-11-03-10-14-14.933299
86	3	2	2	87	stable	1	200	87	sv	turquoise	purple	purple	turquoise	right	left	0.7	0.30000000000000004	6	4	4.199999999999998	1.2000000000000002	1	0	0.30000000000000004	0.7	4	6	1.2000000000000002	4.199999999999998	valid	0.4998925780000718	53248.0	0	1.0	1.0	53248	1	53248	1	53248	1	0.7	53248	purple	turquoise	1	6	ml	2.7.3	bip	sub-03_ses-02_task-ml_proj-bip_2020-11-03-10-14-14.933299
87	3	2	2	88	stable	1	200	88	sv	purple	turquoise	purple	turquoise	left	right	0.7	0.30000000000000004	2	10	1.4	3.0000000000000004	1	0	0.7	0.30000000000000004	2	10	1.4	3.0000000000000004	valid	0.2832820599996921	51200.0	0	0.0	1.0	53248	0	51200	1	53248	0	0.7	51200	purple	turquoise	0	2	ml	2.7.3	bip	sub-03_ses-02_task-ml_proj-bip_2020-11-03-10-14-14.933299
88	3	2	2	89	stable	1	200	89	sv	purple	turquoise	purple	turquoise	left	right	0.7	0.30000000000000004	6	2	4.199999999999998	0.6000000000000001	1	0	0.7	0.30000000000000004	6	2	4.199999999999998	0.6000000000000001	valid	0.3832445999996708	51200.0	0	0.0	1.0	51200	1	51200	1	51200	1	0.7	51200	purple	turquoise	1	6	ml	2.7.3	bip	sub-03_ses-02_task-ml_proj-bip_2020-11-03-10-14-14.933299
89	3	2	2	90	stable	1	200	90	sv	turquoise	purple	purple	turquoise	right	left	0.7	0.30000000000000004	2	10	1.4	3.0000000000000004	1	0	0.30000000000000004	0.7	10	2	3.0000000000000004	1.4	valid	0.33327076999921695	53248.0	0	1.0	1.0	51200	0	53248	1	51200	0	0.7	53248	purple	turquoise	0	2	ml	2.7.3	bip	sub-03_ses-02_task-ml_proj-bip_2020-11-03-10-14-14.933299
90	3	2	2	91	stable	1	200	91	sv	purple	turquoise	purple	turquoise	left	right	0.7	0.30000000000000004	2	4	1.4	1.2000000000000002	0	1	0.7	0.30000000000000004	2	4	1.4	1.2000000000000002	invalid	0.28327512100077	51200.0	0	0.0	1.0	51200	1	51200	1	53248	0	0.7	51200	purple	turquoise	0	0	ml	2.7.3	bip	sub-03_ses-02_task-ml_proj-bip_2020-11-03-10-14-14.933299
91	3	2	2	92	stable	1	200	92	sv	turquoise	purple	purple	turquoise	right	left	0.7	0.30000000000000004	2	6	1.4	1.8000000000000005	0	1	0.30000000000000004	0.7	6	2	1.8000000000000005	1.4	invalid	0.31661084099869186	53248.0	0	1.0	1.0	51200	0	53248	1	51200	0	0.7	53248	purple	turquoise	0	0	ml	2.7.3	bip	sub-03_ses-02_task-ml_proj-bip_2020-11-03-10-14-14.933299
92	3	2	2	93	stable	1	200	93	sv	turquoise	purple	purple	turquoise	right	left	0.7	0.30000000000000004	4	6	2.8	1.8000000000000005	0	1	0.30000000000000004	0.7	6	4	1.8000000000000005	2.8	invalid	0.3499299390005035	53248.0	0	1.0	1.0	53248	1	53248	1	51200	0	0.7	53248	purple	turquoise	0	0	ml	2.7.3	bip	sub-03_ses-02_task-ml_proj-bip_2020-11-03-10-14-14.933299
93	3	2	2	94	stable	1	200	94	sv	purple	turquoise	purple	turquoise	left	right	0.7	0.30000000000000004	6	6	4.199999999999998	1.8000000000000005	0	1	0.7	0.30000000000000004	6	6	4.199999999999998	1.8000000000000005	invalid	0.3999166920002608	53248.0	0	1.0	2.0	51200	0	51200	0	53248	1	0.7	51200	purple	turquoise	1	6	ml	2.7.3	bip	sub-03_ses-02_task-ml_proj-bip_2020-11-03-10-14-14.933299
94	3	2	2	95	stable	1	200	95	sv	turquoise	purple	purple	turquoise	right	left	0.7	0.30000000000000004	2	2	1.4	0.6000000000000001	1	0	0.30000000000000004	0.7	2	2	0.6000000000000001	1.4	valid	0.2999448610007676	51200.0	0	0.0	2.0	53248	0	53248	0	53248	0	0.7	53248	purple	turquoise	0	0	ml	2.7.3	bip	sub-03_ses-02_task-ml_proj-bip_2020-11-03-10-14-14.933299
95	3	2	2	96	stable	1	200	96	sv	purple	turquoise	purple	turquoise	left	right	0.7	0.30000000000000004	4	6	2.8	1.8000000000000005	1	0	0.7	0.30000000000000004	4	6	2.8	1.8000000000000005	valid	0.34993372799908684	53248.0	0	1.0	2.0	51200	0	51200	0	53248	1	0.7	51200	purple	turquoise	0	0	ml	2.7.3	bip	sub-03_ses-02_task-ml_proj-bip_2020-11-03-10-14-14.933299
96	3	2	2	97	stable	1	200	97	sv	purple	turquoise	purple	turquoise	left	right	0.7	0.30000000000000004	6	4	4.199999999999998	1.2000000000000002	1	0	0.7	0.30000000000000004	6	4	4.199999999999998	1.2000000000000002	valid	0.3832550810002431	53248.0	0	1.0	2.0	51200	0	51200	0	51200	0	0.7	51200	purple	turquoise	1	0	ml	2.7.3	bip	sub-03_ses-02_task-ml_proj-bip_2020-11-03-10-14-14.933299
97	3	2	2	98	stable	1	200	98	sv	turquoise	purple	purple	turquoise	right	left	0.7	0.30000000000000004	2	4	1.4	1.2000000000000002	1	0	0.30000000000000004	0.7	4	2	1.2000000000000002	1.4	valid	0.499881251998886	53248.0	0	1.0	1.0	53248	1	53248	1	51200	0	0.7	53248	purple	turquoise	0	2	ml	2.7.3	bip	sub-03_ses-02_task-ml_proj-bip_2020-11-03-10-14-14.933299
98	3	2	2	99	stable	1	200	99	sv	turquoise	purple	purple	turquoise	right	left	0.7	0.30000000000000004	4	2	2.8	0.6000000000000001	1	0	0.30000000000000004	0.7	2	4	0.6000000000000001	2.8	valid	0.3999200320013188	53248.0	0	1.0	1.0	53248	1	53248	1	53248	1	0.7	53248	purple	turquoise	1	4	ml	2.7.3	bip	sub-03_ses-02_task-ml_proj-bip_2020-11-03-10-14-14.933299
99	3	2	2	100	stable	1	200	100	sv	purple	turquoise	purple	turquoise	left	right	0.7	0.30000000000000004	4	6	2.8	1.8000000000000005	1	0	0.7	0.30000000000000004	4	6	2.8	1.8000000000000005	valid	0.3832445379994169	51200.0	0	0.0	1.0	51200	1	51200	1	53248	0	0.7	51200	purple	turquoise	0	4	ml	2.7.3	bip	sub-03_ses-02_task-ml_proj-bip_2020-11-03-10-14-14.933299
100	3	2	3	101	stable	1	200	101	sv	purple	turquoise	purple	turquoise	left	right	0.7	0.30000000000000004	2	4	1.4	1.2000000000000002	1	0	0.7	0.30000000000000004	2	4	1.4	1.2000000000000002	valid	1.1496942810008477	53248.0	0	1.0	2.0	51200	0	51200	0	53248	1	0.7	51200	purple	turquoise	0	0	ml	2.7.3	bip	sub-03_ses-02_task-ml_proj-bip_2020-11-03-10-14-14.933299
101	3	2	3	102	stable	1	200	102	sv	purple	turquoise	purple	turquoise	left	right	0.7	0.30000000000000004	2	2	1.4	0.6000000000000001	1	0	0.7	0.30000000000000004	2	2	1.4	0.6000000000000001	valid	0.3332726429998729	53248.0	0	1.0	2.0	51200	0	51200	0	53248	1	0.7	51200	purple	turquoise	1	0	ml	2.7.3	bip	sub-03_ses-02_task-ml_proj-bip_2020-11-03-10-14-14.933299
102	3	2	3	103	stable	1	200	103	sv	purple	turquoise	purple	turquoise	left	right	0.7	0.30000000000000004	4	6	2.8	1.8000000000000005	1	0	0.7	0.30000000000000004	4	6	2.8	1.8000000000000005	valid	0.299936360999709	51200.0	0	0.0	1.0	51200	1	51200	1	53248	0	0.7	51200	purple	turquoise	0	4	ml	2.7.3	bip	sub-03_ses-02_task-ml_proj-bip_2020-11-03-10-14-14.933299
103	3	2	3	104	stable	1	200	104	sv	turquoise	purple	purple	turquoise	right	left	0.7	0.30000000000000004	2	4	1.4	1.2000000000000002	0	1	0.30000000000000004	0.7	4	2	1.2000000000000002	1.4	invalid	0.3665932680014521	53248.0	0	1.0	1.0	53248	1	53248	1	51200	0	0.7	53248	purple	turquoise	0	0	ml	2.7.3	bip	sub-03_ses-02_task-ml_proj-bip_2020-11-03-10-14-14.933299
104	3	2	3	105	stable	1	200	105	sv	purple	turquoise	purple	turquoise	left	right	0.7	0.30000000000000004	4	2	2.8	0.6000000000000001	1	0	0.7	0.30000000000000004	4	2	2.8	0.6000000000000001	valid	0.33325739599968074	51200.0	0	0.0	1.0	51200	1	51200	1	51200	1	0.7	51200	purple	turquoise	1	4	ml	2.7.3	bip	sub-03_ses-02_task-ml_proj-bip_2020-11-03-10-14-14.933299
105	3	2	3	106	stable	1	200	106	sv	purple	turquoise	purple	turquoise	left	right	0.7	0.30000000000000004	2	6	1.4	1.8000000000000005	0	1	0.7	0.30000000000000004	2	6	1.4	1.8000000000000005	invalid	0.399911783000789	51200.0	0	0.0	1.0	53248	0	51200	1	53248	0	0.7	51200	purple	turquoise	0	0	ml	2.7.3	bip	sub-03_ses-02_task-ml_proj-bip_2020-11-03-10-14-14.933299
106	3	2	3	107	stable	1	200	107	sv	turquoise	purple	purple	turquoise	right	left	0.7	0.30000000000000004	2	10	1.4	3.0000000000000004	0	1	0.30000000000000004	0.7	10	2	3.0000000000000004	1.4	invalid	0.3332718029996613	53248.0	0	1.0	1.0	51200	0	53248	1	51200	0	0.7	53248	purple	turquoise	0	0	ml	2.7.3	bip	sub-03_ses-02_task-ml_proj-bip_2020-11-03-10-14-14.933299
107	3	2	3	108	stable	1	200	108	sv	turquoise	purple	purple	turquoise	right	left	0.7	0.30000000000000004	6	4	4.199999999999998	1.2000000000000002	1	0	0.30000000000000004	0.7	4	6	1.2000000000000002	4.199999999999998	valid	0.3999174769996898	53248.0	0	1.0	1.0	53248	1	53248	1	53248	1	0.7	53248	purple	turquoise	1	6	ml	2.7.3	bip	sub-03_ses-02_task-ml_proj-bip_2020-11-03-10-14-14.933299
108	3	2	3	109	stable	1	200	109	sv	turquoise	purple	purple	turquoise	right	left	0.7	0.30000000000000004	2	10	1.4	3.0000000000000004	0	1	0.30000000000000004	0.7	10	2	3.0000000000000004	1.4	invalid	0.449903393000568	53248.0	0	1.0	1.0	51200	0	53248	1	51200	0	0.7	53248	purple	turquoise	0	0	ml	2.7.3	bip	sub-03_ses-02_task-ml_proj-bip_2020-11-03-10-14-14.933299
109	3	2	3	110	stable	1	200	110	sv	turquoise	purple	purple	turquoise	right	left	0.7	0.30000000000000004	6	6	4.199999999999998	1.8000000000000005	0	1	0.30000000000000004	0.7	6	6	1.8000000000000005	4.199999999999998	invalid	0.3165986079984577	51200.0	0	0.0	2.0	53248	0	53248	0	53248	0	0.7	53248	purple	turquoise	0	6	ml	2.7.3	bip	sub-03_ses-02_task-ml_proj-bip_2020-11-03-10-14-14.933299
110	3	2	3	111	stable	1	200	111	sv	purple	turquoise	purple	turquoise	left	right	0.7	0.30000000000000004	2	10	1.4	3.0000000000000004	1	0	0.7	0.30000000000000004	2	10	1.4	3.0000000000000004	valid	0.3499325479988329	53248.0	0	1.0	2.0	53248	1	51200	0	53248	1	0.7	51200	purple	turquoise	0	0	ml	2.7.3	bip	sub-03_ses-02_task-ml_proj-bip_2020-11-03-10-14-14.933299
111	3	2	3	112	stable	1	200	112	sv	turquoise	purple	purple	turquoise	right	left	0.7	0.30000000000000004	4	6	2.8	1.8000000000000005	0	1	0.30000000000000004	0.7	6	4	1.8000000000000005	2.8	invalid	0.4165609989995573	51200.0	0	0.0	2.0	53248	0	53248	0	51200	1	0.7	53248	purple	turquoise	0	6	ml	2.7.3	bip	sub-03_ses-02_task-ml_proj-bip_2020-11-03-10-14-14.933299
112	3	2	3	113	stable	1	200	113	sv	purple	turquoise	purple	turquoise	left	right	0.7	0.30000000000000004	6	2	4.199999999999998	0.6000000000000001	1	0	0.7	0.30000000000000004	6	2	4.199999999999998	0.6000000000000001	valid	0.4998862719985482	53248.0	0	1.0	2.0	51200	0	51200	0	51200	0	0.7	51200	purple	turquoise	1	0	ml	2.7.3	bip	sub-03_ses-02_task-ml_proj-bip_2020-11-03-10-14-14.933299
113	3	2	3	114	stable	1	200	114	sv	purple	turquoise	purple	turquoise	left	right	0.7	0.30000000000000004	2	10	1.4	3.0000000000000004	0	1	0.7	0.30000000000000004	2	10	1.4	3.0000000000000004	invalid	0.6331824720000441	53248.0	0	1.0	2.0	53248	1	51200	0	53248	1	0.7	51200	purple	turquoise	0	10	ml	2.7.3	bip	sub-03_ses-02_task-ml_proj-bip_2020-11-03-10-14-14.933299
114	3	2	3	115	stable	1	200	115	sv	purple	turquoise	purple	turquoise	left	right	0.7	0.30000000000000004	10	2	7.0	0.6000000000000001	1	0	0.7	0.30000000000000004	10	2	7.0	0.6000000000000001	valid	0.5998569690000295	53248.0	0	1.0	2.0	51200	0	51200	0	51200	0	0.7	51200	purple	turquoise	1	0	ml	2.7.3	bip	sub-03_ses-02_task-ml_proj-bip_2020-11-03-10-14-14.933299
115	3	2	3	116	stable	1	200	116	sv	turquoise	purple	purple	turquoise	right	left	0.7	0.30000000000000004	10	2	7.0	0.6000000000000001	0	1	0.30000000000000004	0.7	2	10	0.6000000000000001	7.0	invalid	0.6998186719993101	51200.0	0	0.0	2.0	53248	0	53248	0	53248	0	0.7	53248	purple	turquoise	1	2	ml	2.7.3	bip	sub-03_ses-02_task-ml_proj-bip_2020-11-03-10-14-14.933299
116	3	2	3	117	stable	1	200	117	sv	turquoise	purple	purple	turquoise	right	left	0.7	0.30000000000000004	6	2	4.199999999999998	0.6000000000000001	0	1	0.30000000000000004	0.7	2	6	0.6000000000000001	4.199999999999998	invalid	0.3999022159987362	51200.0	0	0.0	2.0	53248	0	53248	0	53248	0	0.7	53248	purple	turquoise	1	2	ml	2.7.3	bip	sub-03_ses-02_task-ml_proj-bip_2020-11-03-10-14-14.933299
117	3	2	3	118	stable	1	200	118	sv	purple	turquoise	purple	turquoise	left	right	0.7	0.30000000000000004	2	2	1.4	0.6000000000000001	0	1	0.7	0.30000000000000004	2	2	1.4	0.6000000000000001	invalid	0.39991618400017614	53248.0	0	1.0	2.0	51200	0	51200	0	53248	1	0.7	51200	purple	turquoise	1	2	ml	2.7.3	bip	sub-03_ses-02_task-ml_proj-bip_2020-11-03-10-14-14.933299
118	3	2	3	119	stable	1	200	119	sv	purple	turquoise	purple	turquoise	left	right	0.7	0.30000000000000004	2	2	1.4	0.6000000000000001	1	0	0.7	0.30000000000000004	2	2	1.4	0.6000000000000001	valid	0.4165769310002361	53248.0	0	1.0	2.0	51200	0	51200	0	53248	1	0.7	51200	purple	turquoise	1	0	ml	2.7.3	bip	sub-03_ses-02_task-ml_proj-bip_2020-11-03-10-14-14.933299
119	3	2	3	120	stable	1	200	120	sv	turquoise	purple	purple	turquoise	right	left	0.7	0.30000000000000004	6	2	4.199999999999998	0.6000000000000001	0	1	0.30000000000000004	0.7	2	6	0.6000000000000001	4.199999999999998	invalid	0.3332593149989407	51200.0	0	0.0	2.0	53248	0	53248	0	53248	0	0.7	53248	purple	turquoise	1	2	ml	2.7.3	bip	sub-03_ses-02_task-ml_proj-bip_2020-11-03-10-14-14.933299
120	3	2	3	121	stable	1	200	121	sv	turquoise	purple	purple	turquoise	right	left	0.7	0.30000000000000004	6	2	4.199999999999998	0.6000000000000001	1	0	0.30000000000000004	0.7	2	6	0.6000000000000001	4.199999999999998	valid	0.43323981999856187	53248.0	0	1.0	1.0	53248	1	53248	1	53248	1	0.7	53248	purple	turquoise	1	6	ml	2.7.3	bip	sub-03_ses-02_task-ml_proj-bip_2020-11-03-10-14-14.933299
121	3	2	3	122	stable	1	200	122	sv	purple	turquoise	purple	turquoise	left	right	0.7	0.30000000000000004	2	10	1.4	3.0000000000000004	0	1	0.7	0.30000000000000004	2	10	1.4	3.0000000000000004	invalid	0.516543959000046	53248.0	0	1.0	2.0	53248	1	51200	0	53248	1	0.7	51200	purple	turquoise	0	10	ml	2.7.3	bip	sub-03_ses-02_task-ml_proj-bip_2020-11-03-10-14-14.933299
122	3	2	3	123	stable	1	200	123	sv	purple	turquoise	purple	turquoise	left	right	0.7	0.30000000000000004	6	4	4.199999999999998	1.2000000000000002	1	0	0.7	0.30000000000000004	6	4	4.199999999999998	1.2000000000000002	valid	0.3999182459992881	53248.0	0	1.0	2.0	51200	0	51200	0	51200	0	0.7	51200	purple	turquoise	1	0	ml	2.7.3	bip	sub-03_ses-02_task-ml_proj-bip_2020-11-03-10-14-14.933299
123	3	2	3	124	stable	1	200	124	sv	turquoise	purple	purple	turquoise	right	left	0.7	0.30000000000000004	2	4	1.4	1.2000000000000002	1	0	0.30000000000000004	0.7	4	2	1.2000000000000002	1.4	valid	1.0330637240003853	53248.0	0	1.0	1.0	53248	1	53248	1	51200	0	0.7	53248	purple	turquoise	0	2	ml	2.7.3	bip	sub-03_ses-02_task-ml_proj-bip_2020-11-03-10-14-14.933299
124	3	2	3	125	stable	1	200	125	sv	purple	turquoise	purple	turquoise	left	right	0.7	0.30000000000000004	10	2	7.0	0.6000000000000001	0	1	0.7	0.30000000000000004	10	2	7.0	0.6000000000000001	invalid	0.3999068059983984	51200.0	0	0.0	1.0	51200	1	51200	1	51200	1	0.7	51200	purple	turquoise	1	0	ml	2.7.3	bip	sub-03_ses-02_task-ml_proj-bip_2020-11-03-10-14-14.933299
125	3	2	3	126	stable	1	200	126	sv	turquoise	purple	purple	turquoise	right	left	0.7	0.30000000000000004	6	6	4.199999999999998	1.8000000000000005	1	0	0.30000000000000004	0.7	6	6	1.8000000000000005	4.199999999999998	valid	0.399918326000261	53248.0	0	1.0	1.0	53248	1	53248	1	53248	1	0.7	53248	purple	turquoise	0	6	ml	2.7.3	bip	sub-03_ses-02_task-ml_proj-bip_2020-11-03-10-14-14.933299
126	3	2	3	127	stable	1	200	127	sv	turquoise	purple	purple	turquoise	right	left	0.7	0.30000000000000004	4	6	2.8	1.8000000000000005	0	1	0.30000000000000004	0.7	6	4	1.8000000000000005	2.8	invalid	0.4499036950001027	53248.0	0	1.0	1.0	53248	1	53248	1	51200	0	0.7	53248	purple	turquoise	0	0	ml	2.7.3	bip	sub-03_ses-02_task-ml_proj-bip_2020-11-03-10-14-14.933299
127	3	2	3	128	stable	1	200	128	sv	turquoise	purple	purple	turquoise	right	left	0.7	0.30000000000000004	2	6	1.4	1.8000000000000005	1	0	0.30000000000000004	0.7	6	2	1.8000000000000005	1.4	valid	0.4832286670007306	53248.0	0	1.0	1.0	51200	0	53248	1	51200	0	0.7	53248	purple	turquoise	0	2	ml	2.7.3	bip	sub-03_ses-02_task-ml_proj-bip_2020-11-03-10-14-14.933299
128	3	2	3	129	stable	1	200	129	sv	purple	turquoise	purple	turquoise	left	right	0.7	0.30000000000000004	4	2	2.8	0.6000000000000001	1	0	0.7	0.30000000000000004	4	2	2.8	0.6000000000000001	valid	0.4832149789999676	51200.0	0	0.0	1.0	51200	1	51200	1	51200	1	0.7	51200	purple	turquoise	1	4	ml	2.7.3	bip	sub-03_ses-02_task-ml_proj-bip_2020-11-03-10-14-14.933299
129	3	2	3	130	stable	1	200	130	sv	purple	turquoise	purple	turquoise	left	right	0.7	0.30000000000000004	4	6	2.8	1.8000000000000005	1	0	0.7	0.30000000000000004	4	6	2.8	1.8000000000000005	valid	0.3665825349999068	51200.0	0	0.0	1.0	51200	1	51200	1	53248	0	0.7	51200	purple	turquoise	0	4	ml	2.7.3	bip	sub-03_ses-02_task-ml_proj-bip_2020-11-03-10-14-14.933299
130	3	2	3	131	stable	1	200	131	sv	purple	turquoise	purple	turquoise	left	right	0.7	0.30000000000000004	6	2	4.199999999999998	0.6000000000000001	1	0	0.7	0.30000000000000004	6	2	4.199999999999998	0.6000000000000001	valid	0.39990352099994203	51200.0	0	0.0	1.0	51200	1	51200	1	51200	1	0.7	51200	purple	turquoise	1	6	ml	2.7.3	bip	sub-03_ses-02_task-ml_proj-bip_2020-11-03-10-14-14.933299
131	3	2	3	132	stable	1	200	132	sv	turquoise	purple	purple	turquoise	right	left	0.7	0.30000000000000004	2	6	1.4	1.8000000000000005	1	0	0.30000000000000004	0.7	6	2	1.8000000000000005	1.4	valid	0.4498993609995523	53248.0	0	1.0	1.0	51200	0	53248	1	51200	0	0.7	53248	purple	turquoise	0	2	ml	2.7.3	bip	sub-03_ses-02_task-ml_proj-bip_2020-11-03-10-14-14.933299
132	3	2	3	133	stable	1	200	133	sv	purple	turquoise	purple	turquoise	left	right	0.7	0.30000000000000004	2	10	1.4	3.0000000000000004	1	0	0.7	0.30000000000000004	2	10	1.4	3.0000000000000004	valid	0.1666449719996308	51200.0	0	0.0	1.0	53248	0	51200	1	53248	0	0.7	51200	purple	turquoise	0	2	ml	2.7.3	bip	sub-03_ses-02_task-ml_proj-bip_2020-11-03-10-14-14.933299
133	3	2	3	134	stable	1	200	134	sv	purple	turquoise	purple	turquoise	left	right	0.7	0.30000000000000004	4	6	2.8	1.8000000000000005	1	0	0.7	0.30000000000000004	4	6	2.8	1.8000000000000005	valid	0.3499304970009689	53248.0	0	1.0	2.0	51200	0	51200	0	53248	1	0.7	51200	purple	turquoise	0	0	ml	2.7.3	bip	sub-03_ses-02_task-ml_proj-bip_2020-11-03-10-14-14.933299
134	3	2	3	135	stable	1	200	135	sv	purple	turquoise	purple	turquoise	left	right	0.7	0.30000000000000004	10	2	7.0	0.6000000000000001	1	0	0.7	0.30000000000000004	10	2	7.0	0.6000000000000001	valid	0.41657956599920004	53248.0	0	1.0	2.0	51200	0	51200	0	51200	0	0.7	51200	purple	turquoise	1	0	ml	2.7.3	bip	sub-03_ses-02_task-ml_proj-bip_2020-11-03-10-14-14.933299
135	3	2	3	136	stable	1	200	136	sv	purple	turquoise	purple	turquoise	left	right	0.7	0.30000000000000004	6	6	4.199999999999998	1.8000000000000005	0	1	0.7	0.30000000000000004	6	6	4.199999999999998	1.8000000000000005	invalid	0.3999005339992436	51200.0	0	0.0	1.0	51200	1	51200	1	53248	0	0.7	51200	purple	turquoise	1	0	ml	2.7.3	bip	sub-03_ses-02_task-ml_proj-bip_2020-11-03-10-14-14.933299
136	3	2	3	137	stable	1	200	137	sv	purple	turquoise	purple	turquoise	left	right	0.7	0.30000000000000004	2	4	1.4	1.2000000000000002	1	0	0.7	0.30000000000000004	2	4	1.4	1.2000000000000002	valid	0.33327542199913296	51200.0	0	0.0	1.0	51200	1	51200	1	53248	0	0.7	51200	purple	turquoise	0	2	ml	2.7.3	bip	sub-03_ses-02_task-ml_proj-bip_2020-11-03-10-14-14.933299
137	3	2	3	138	stable	1	200	138	sv	purple	turquoise	purple	turquoise	left	right	0.7	0.30000000000000004	2	4	1.4	1.2000000000000002	1	0	0.7	0.30000000000000004	2	4	1.4	1.2000000000000002	valid	0.3832435819986131	51200.0	0	0.0	1.0	51200	1	51200	1	53248	0	0.7	51200	purple	turquoise	0	2	ml	2.7.3	bip	sub-03_ses-02_task-ml_proj-bip_2020-11-03-10-14-14.933299
138	3	2	3	139	stable	1	200	139	sv	purple	turquoise	purple	turquoise	left	right	0.7	0.30000000000000004	6	4	4.199999999999998	1.2000000000000002	1	0	0.7	0.30000000000000004	6	4	4.199999999999998	1.2000000000000002	valid	0.4998773200004507	51200.0	0	0.0	1.0	51200	1	51200	1	51200	1	0.7	51200	purple	turquoise	1	6	ml	2.7.3	bip	sub-03_ses-02_task-ml_proj-bip_2020-11-03-10-14-14.933299
139	3	2	3	140	stable	1	200	140	sv	purple	turquoise	purple	turquoise	left	right	0.7	0.30000000000000004	2	6	1.4	1.8000000000000005	1	0	0.7	0.30000000000000004	2	6	1.4	1.8000000000000005	valid	0.4832155339991005	51200.0	0	0.0	1.0	53248	0	51200	1	53248	0	0.7	51200	purple	turquoise	0	2	ml	2.7.3	bip	sub-03_ses-02_task-ml_proj-bip_2020-11-03-10-14-14.933299
140	3	2	3	141	stable	1	200	141	sv	turquoise	purple	purple	turquoise	right	left	0.7	0.30000000000000004	2	2	1.4	0.6000000000000001	1	0	0.30000000000000004	0.7	2	2	0.6000000000000001	1.4	valid	0.3499336929999117	53248.0	0	1.0	1.0	53248	1	53248	1	53248	1	0.7	53248	purple	turquoise	0	2	ml	2.7.3	bip	sub-03_ses-02_task-ml_proj-bip_2020-11-03-10-14-14.933299
141	3	2	3	142	stable	1	200	142	sv	purple	turquoise	purple	turquoise	left	right	0.7	0.30000000000000004	2	6	1.4	1.8000000000000005	1	0	0.7	0.30000000000000004	2	6	1.4	1.8000000000000005	valid	0.34992212600081984	51200.0	0	0.0	1.0	53248	0	51200	1	53248	0	0.7	51200	purple	turquoise	0	2	ml	2.7.3	bip	sub-03_ses-02_task-ml_proj-bip_2020-11-03-10-14-14.933299
142	3	2	3	143	stable	1	200	143	sv	turquoise	purple	purple	turquoise	right	left	0.7	0.30000000000000004	2	6	1.4	1.8000000000000005	1	0	0.30000000000000004	0.7	6	2	1.8000000000000005	1.4	valid	0.5332092399985413	53248.0	0	1.0	1.0	51200	0	53248	1	51200	0	0.7	53248	purple	turquoise	0	2	ml	2.7.3	bip	sub-03_ses-02_task-ml_proj-bip_2020-11-03-10-14-14.933299
143	3	2	3	144	stable	1	200	144	sv	purple	turquoise	purple	turquoise	left	right	0.7	0.30000000000000004	4	2	2.8	0.6000000000000001	1	0	0.7	0.30000000000000004	4	2	2.8	0.6000000000000001	valid	0.5498567350005032	51200.0	0	0.0	1.0	51200	1	51200	1	51200	1	0.7	51200	purple	turquoise	1	4	ml	2.7.3	bip	sub-03_ses-02_task-ml_proj-bip_2020-11-03-10-14-14.933299
144	3	2	3	145	stable	1	200	145	sv	turquoise	purple	purple	turquoise	right	left	0.7	0.30000000000000004	6	4	4.199999999999998	1.2000000000000002	0	1	0.30000000000000004	0.7	4	6	1.2000000000000002	4.199999999999998	invalid	0.3999236210001982	53248.0	0	1.0	1.0	53248	1	53248	1	53248	1	0.7	53248	purple	turquoise	1	0	ml	2.7.3	bip	sub-03_ses-02_task-ml_proj-bip_2020-11-03-10-14-14.933299
145	3	2	3	146	stable	1	200	146	sv	turquoise	purple	purple	turquoise	right	left	0.7	0.30000000000000004	2	10	1.4	3.0000000000000004	1	0	0.30000000000000004	0.7	10	2	3.0000000000000004	1.4	valid	0.4165795130011247	53248.0	0	1.0	1.0	51200	0	53248	1	51200	0	0.7	53248	purple	turquoise	0	2	ml	2.7.3	bip	sub-03_ses-02_task-ml_proj-bip_2020-11-03-10-14-14.933299
146	3	2	3	147	stable	1	200	147	sv	purple	turquoise	purple	turquoise	left	right	0.7	0.30000000000000004	2	6	1.4	1.8000000000000005	1	0	0.7	0.30000000000000004	2	6	1.4	1.8000000000000005	valid	0.3832449000001361	51200.0	0	0.0	1.0	53248	0	51200	1	53248	0	0.7	51200	purple	turquoise	0	2	ml	2.7.3	bip	sub-03_ses-02_task-ml_proj-bip_2020-11-03-10-14-14.933299
147	3	2	3	148	stable	1	200	148	sv	turquoise	purple	purple	turquoise	right	left	0.7	0.30000000000000004	2	2	1.4	0.6000000000000001	1	0	0.30000000000000004	0.7	2	2	0.6000000000000001	1.4	valid	0.3999168870013817	53248.0	0	1.0	1.0	53248	1	53248	1	53248	1	0.7	53248	purple	turquoise	0	2	ml	2.7.3	bip	sub-03_ses-02_task-ml_proj-bip_2020-11-03-10-14-14.933299
148	3	2	3	149	stable	1	200	149	sv	turquoise	purple	purple	turquoise	right	left	0.7	0.30000000000000004	6	6	4.199999999999998	1.8000000000000005	0	1	0.30000000000000004	0.7	6	6	1.8000000000000005	4.199999999999998	invalid	0.4998900210011925	53248.0	0	1.0	1.0	53248	1	53248	1	53248	1	0.7	53248	purple	turquoise	0	0	ml	2.7.3	bip	sub-03_ses-02_task-ml_proj-bip_2020-11-03-10-14-14.933299
149	3	2	3	150	stable	1	200	150	sv	purple	turquoise	purple	turquoise	left	right	0.7	0.30000000000000004	2	4	1.4	1.2000000000000002	1	0	0.7	0.30000000000000004	2	4	1.4	1.2000000000000002	valid	0.3499300069997844	53248.0	0	1.0	2.0	51200	0	51200	0	53248	1	0.7	51200	purple	turquoise	0	0	ml	2.7.3	bip	sub-03_ses-02_task-ml_proj-bip_2020-11-03-10-14-14.933299
150	3	2	4	151	stable	1	200	151	sv	turquoise	purple	purple	turquoise	right	left	0.7	0.30000000000000004	6	4	4.199999999999998	1.2000000000000002	1	0	0.30000000000000004	0.7	4	6	1.2000000000000002	4.199999999999998	valid	0.7164917540012539	53248.0	0	1.0	1.0	53248	1	53248	1	53248	1	0.7	53248	purple	turquoise	1	6	ml	2.7.3	bip	sub-03_ses-02_task-ml_proj-bip_2020-11-03-10-14-14.933299
151	3	2	4	152	stable	1	200	152	sv	purple	turquoise	purple	turquoise	left	right	0.7	0.30000000000000004	6	2	4.199999999999998	0.6000000000000001	0	1	0.7	0.30000000000000004	6	2	4.199999999999998	0.6000000000000001	invalid	0.4665527870001824	51200.0	0	0.0	1.0	51200	1	51200	1	51200	1	0.7	51200	purple	turquoise	1	0	ml	2.7.3	bip	sub-03_ses-02_task-ml_proj-bip_2020-11-03-10-14-14.933299
152	3	2	4	153	stable	1	200	153	sv	purple	turquoise	purple	turquoise	left	right	0.7	0.30000000000000004	10	2	7.0	0.6000000000000001	1	0	0.7	0.30000000000000004	10	2	7.0	0.6000000000000001	valid	0.3665819430007105	51200.0	0	0.0	1.0	51200	1	51200	1	51200	1	0.7	51200	purple	turquoise	1	10	ml	2.7.3	bip	sub-03_ses-02_task-ml_proj-bip_2020-11-03-10-14-14.933299
153	3	2	4	154	stable	1	200	154	sv	purple	turquoise	purple	turquoise	left	right	0.7	0.30000000000000004	2	4	1.4	1.2000000000000002	1	0	0.7	0.30000000000000004	2	4	1.4	1.2000000000000002	valid	0.766475206000905	53248.0	0	1.0	2.0	51200	0	51200	0	53248	1	0.7	51200	purple	turquoise	0	0	ml	2.7.3	bip	sub-03_ses-02_task-ml_proj-bip_2020-11-03-10-14-14.933299
154	3	2	4	155	stable	1	200	155	sv	purple	turquoise	purple	turquoise	left	right	0.7	0.30000000000000004	6	6	4.199999999999998	1.8000000000000005	0	1	0.7	0.30000000000000004	6	6	4.199999999999998	1.8000000000000005	invalid	0.39991174200076784	53248.0	0	1.0	2.0	51200	0	51200	0	53248	1	0.7	51200	purple	turquoise	1	6	ml	2.7.3	bip	sub-03_ses-02_task-ml_proj-bip_2020-11-03-10-14-14.933299
155	3	2	4	156	stable	1	200	156	sv	turquoise	purple	purple	turquoise	right	left	0.7	0.30000000000000004	6	4	4.199999999999998	1.2000000000000002	0	1	0.30000000000000004	0.7	4	6	1.2000000000000002	4.199999999999998	invalid	0.5498808310003369	51200.0	0	0.0	2.0	53248	0	53248	0	53248	0	0.7	53248	purple	turquoise	1	4	ml	2.7.3	bip	sub-03_ses-02_task-ml_proj-bip_2020-11-03-10-14-14.933299
156	3	2	4	157	stable	1	200	157	sv	purple	turquoise	purple	turquoise	left	right	0.7	0.30000000000000004	2	4	1.4	1.2000000000000002	1	0	0.7	0.30000000000000004	2	4	1.4	1.2000000000000002	valid	0.4998852600001555	53248.0	0	1.0	2.0	51200	0	51200	0	53248	1	0.7	51200	purple	turquoise	0	0	ml	2.7.3	bip	sub-03_ses-02_task-ml_proj-bip_2020-11-03-10-14-14.933299
157	3	2	4	158	stable	1	200	158	sv	purple	turquoise	purple	turquoise	left	right	0.7	0.30000000000000004	4	6	2.8	1.8000000000000005	1	0	0.7	0.30000000000000004	4	6	2.8	1.8000000000000005	valid	0.449905913999828	53248.0	0	1.0	2.0	51200	0	51200	0	53248	1	0.7	51200	purple	turquoise	0	0	ml	2.7.3	bip	sub-03_ses-02_task-ml_proj-bip_2020-11-03-10-14-14.933299
158	3	2	4	159	stable	1	200	159	sv	turquoise	purple	purple	turquoise	right	left	0.7	0.30000000000000004	2	6	1.4	1.8000000000000005	1	0	0.30000000000000004	0.7	6	2	1.8000000000000005	1.4	valid	0.5165450810000038	53248.0	0	1.0	1.0	51200	0	53248	1	51200	0	0.7	53248	purple	turquoise	0	2	ml	2.7.3	bip	sub-03_ses-02_task-ml_proj-bip_2020-11-03-10-14-14.933299
159	3	2	4	160	stable	1	200	160	sv	turquoise	purple	purple	turquoise	right	left	0.7	0.30000000000000004	2	10	1.4	3.0000000000000004	1	0	0.30000000000000004	0.7	10	2	3.0000000000000004	1.4	valid	0.4665664749991265	53248.0	0	1.0	1.0	51200	0	53248	1	51200	0	0.7	53248	purple	turquoise	0	2	ml	2.7.3	bip	sub-03_ses-02_task-ml_proj-bip_2020-11-03-10-14-14.933299
160	3	2	4	161	stable	1	200	161	sv	purple	turquoise	purple	turquoise	left	right	0.7	0.30000000000000004	2	2	1.4	0.6000000000000001	0	1	0.7	0.30000000000000004	2	2	1.4	0.6000000000000001	invalid	0.4832161320009618	51200.0	0	0.0	1.0	51200	1	51200	1	53248	0	0.7	51200	purple	turquoise	1	0	ml	2.7.3	bip	sub-03_ses-02_task-ml_proj-bip_2020-11-03-10-14-14.933299
161	3	2	4	162	stable	1	200	162	sv	turquoise	purple	purple	turquoise	right	left	0.7	0.30000000000000004	10	2	7.0	0.6000000000000001	0	1	0.30000000000000004	0.7	2	10	0.6000000000000001	7.0	invalid	0.4665648890004377	53248.0	0	1.0	1.0	53248	1	53248	1	53248	1	0.7	53248	purple	turquoise	1	0	ml	2.7.3	bip	sub-03_ses-02_task-ml_proj-bip_2020-11-03-10-14-14.933299
162	3	2	4	163	stable	1	200	163	sv	turquoise	purple	purple	turquoise	right	left	0.7	0.30000000000000004	4	6	2.8	1.8000000000000005	1	0	0.30000000000000004	0.7	6	4	1.8000000000000005	2.8	valid	0.3665861729987228	53248.0	0	1.0	1.0	53248	1	53248	1	51200	0	0.7	53248	purple	turquoise	0	4	ml	2.7.3	bip	sub-03_ses-02_task-ml_proj-bip_2020-11-03-10-14-14.933299
163	3	2	4	164	stable	1	200	164	sv	purple	turquoise	purple	turquoise	left	right	0.7	0.30000000000000004	4	6	2.8	1.8000000000000005	1	0	0.7	0.30000000000000004	4	6	2.8	1.8000000000000005	valid	0.4665654780001205	51200.0	0	0.0	1.0	51200	1	51200	1	53248	0	0.7	51200	purple	turquoise	0	4	ml	2.7.3	bip	sub-03_ses-02_task-ml_proj-bip_2020-11-03-10-14-14.933299
164	3	2	4	165	stable	1	200	165	sv	turquoise	purple	purple	turquoise	right	left	0.7	0.30000000000000004	2	6	1.4	1.8000000000000005	0	1	0.30000000000000004	0.7	6	2	1.8000000000000005	1.4	invalid	0.7498135730002105	53248.0	0	1.0	1.0	51200	0	53248	1	51200	0	0.7	53248	purple	turquoise	0	0	ml	2.7.3	bip	sub-03_ses-02_task-ml_proj-bip_2020-11-03-10-14-14.933299
165	3	2	4	166	stable	1	200	166	sv	purple	turquoise	purple	turquoise	left	right	0.7	0.30000000000000004	6	2	4.199999999999998	0.6000000000000001	1	0	0.7	0.30000000000000004	6	2	4.199999999999998	0.6000000000000001	valid	0.3665879500003939	51200.0	0	0.0	1.0	51200	1	51200	1	51200	1	0.7	51200	purple	turquoise	1	6	ml	2.7.3	bip	sub-03_ses-02_task-ml_proj-bip_2020-11-03-10-14-14.933299
166	3	2	4	167	stable	1	200	167	sv	turquoise	purple	purple	turquoise	right	left	0.7	0.30000000000000004	10	2	7.0	0.6000000000000001	1	0	0.30000000000000004	0.7	2	10	0.6000000000000001	7.0	valid	0.3665939789989352	53248.0	0	1.0	1.0	53248	1	53248	1	53248	1	0.7	53248	purple	turquoise	1	10	ml	2.7.3	bip	sub-03_ses-02_task-ml_proj-bip_2020-11-03-10-14-14.933299
167	3	2	4	168	stable	1	200	168	sv	turquoise	purple	purple	turquoise	right	left	0.7	0.30000000000000004	4	2	2.8	0.6000000000000001	1	0	0.30000000000000004	0.7	2	4	0.6000000000000001	2.8	valid	0.4499032140010968	53248.0	0	1.0	1.0	53248	1	53248	1	53248	1	0.7	53248	purple	turquoise	1	4	ml	2.7.3	bip	sub-03_ses-02_task-ml_proj-bip_2020-11-03-10-14-14.933299
168	3	2	4	169	stable	1	200	169	sv	purple	turquoise	purple	turquoise	left	right	0.7	0.30000000000000004	6	6	4.199999999999998	1.8000000000000005	0	1	0.7	0.30000000000000004	6	6	4.199999999999998	1.8000000000000005	invalid	0.6664874689995486	51200.0	0	0.0	1.0	51200	1	51200	1	53248	0	0.7	51200	purple	turquoise	1	0	ml	2.7.3	bip	sub-03_ses-02_task-ml_proj-bip_2020-11-03-10-14-14.933299
169	3	2	4	170	stable	1	200	170	sv	turquoise	purple	purple	turquoise	right	left	0.7	0.30000000000000004	2	6	1.4	1.8000000000000005	1	0	0.30000000000000004	0.7	6	2	1.8000000000000005	1.4	valid	0.4498841659988102	51200.0	0	0.0	2.0	51200	1	53248	0	51200	1	0.7	53248	purple	turquoise	0	0	ml	2.7.3	bip	sub-03_ses-02_task-ml_proj-bip_2020-11-03-10-14-14.933299
170	3	2	4	171	stable	1	200	171	sv	purple	turquoise	purple	turquoise	left	right	0.7	0.30000000000000004	2	2	1.4	0.6000000000000001	1	0	0.7	0.30000000000000004	2	2	1.4	0.6000000000000001	valid	0.416578959000617	53248.0	0	1.0	2.0	51200	0	51200	0	53248	1	0.7	51200	purple	turquoise	1	0	ml	2.7.3	bip	sub-03_ses-02_task-ml_proj-bip_2020-11-03-10-14-14.933299
171	3	2	4	172	stable	1	200	172	sv	turquoise	purple	purple	turquoise	right	left	0.7	0.30000000000000004	6	4	4.199999999999998	1.2000000000000002	0	1	0.30000000000000004	0.7	4	6	1.2000000000000002	4.199999999999998	invalid	0.3999042899995402	51200.0	0	0.0	2.0	53248	0	53248	0	53248	0	0.7	53248	purple	turquoise	1	4	ml	2.7.3	bip	sub-03_ses-02_task-ml_proj-bip_2020-11-03-10-14-14.933299
172	3	2	4	173	stable	1	200	173	sv	purple	turquoise	purple	turquoise	left	right	0.7	0.30000000000000004	4	6	2.8	1.8000000000000005	0	1	0.7	0.30000000000000004	4	6	2.8	1.8000000000000005	invalid	0.3665941939998447	53248.0	0	1.0	2.0	51200	0	51200	0	53248	1	0.7	51200	purple	turquoise	0	6	ml	2.7.3	bip	sub-03_ses-02_task-ml_proj-bip_2020-11-03-10-14-14.933299
173	3	2	4	174	stable	1	200	174	sv	turquoise	purple	purple	turquoise	right	left	0.7	0.30000000000000004	6	2	4.199999999999998	0.6000000000000001	0	1	0.30000000000000004	0.7	2	6	0.6000000000000001	4.199999999999998	invalid	0.7498025200002303	51200.0	0	0.0	2.0	53248	0	53248	0	53248	0	0.7	53248	purple	turquoise	1	2	ml	2.7.3	bip	sub-03_ses-02_task-ml_proj-bip_2020-11-03-10-14-14.933299
174	3	2	4	175	stable	1	200	175	sv	purple	turquoise	purple	turquoise	left	right	0.7	0.30000000000000004	6	2	4.199999999999998	0.6000000000000001	1	0	0.7	0.30000000000000004	6	2	4.199999999999998	0.6000000000000001	valid	0.6998191250004311	51200.0	0	0.0	1.0	51200	1	51200	1	51200	1	0.7	51200	purple	turquoise	1	6	ml	2.7.3	bip	sub-03_ses-02_task-ml_proj-bip_2020-11-03-10-14-14.933299
175	3	2	4	176	stable	1	200	176	sv	purple	turquoise	purple	turquoise	left	right	0.7	0.30000000000000004	2	2	1.4	0.6000000000000001	1	0	0.7	0.30000000000000004	2	2	1.4	0.6000000000000001	valid	0.4165724489994318	51200.0	0	0.0	1.0	51200	1	51200	1	53248	0	0.7	51200	purple	turquoise	1	2	ml	2.7.3	bip	sub-03_ses-02_task-ml_proj-bip_2020-11-03-10-14-14.933299
176	3	2	4	177	stable	1	200	177	sv	turquoise	purple	purple	turquoise	right	left	0.7	0.30000000000000004	4	2	2.8	0.6000000000000001	1	0	0.30000000000000004	0.7	2	4	0.6000000000000001	2.8	valid	0.29995179800062033	53248.0	0	1.0	1.0	53248	1	53248	1	53248	1	0.7	53248	purple	turquoise	1	4	ml	2.7.3	bip	sub-03_ses-02_task-ml_proj-bip_2020-11-03-10-14-14.933299
177	3	2	4	178	stable	1	200	178	sv	turquoise	purple	purple	turquoise	right	left	0.7	0.30000000000000004	4	2	2.8	0.6000000000000001	1	0	0.30000000000000004	0.7	2	4	0.6000000000000001	2.8	valid	0.4832334149996314	53248.0	0	1.0	1.0	53248	1	53248	1	53248	1	0.7	53248	purple	turquoise	1	4	ml	2.7.3	bip	sub-03_ses-02_task-ml_proj-bip_2020-11-03-10-14-14.933299
178	3	2	4	179	stable	1	200	179	sv	turquoise	purple	purple	turquoise	right	left	0.7	0.30000000000000004	6	2	4.199999999999998	0.6000000000000001	1	0	0.30000000000000004	0.7	2	6	0.6000000000000001	4.199999999999998	valid	0.3999174759992457	53248.0	0	1.0	1.0	53248	1	53248	1	53248	1	0.7	53248	purple	turquoise	1	6	ml	2.7.3	bip	sub-03_ses-02_task-ml_proj-bip_2020-11-03-10-14-14.933299
179	3	2	4	180	stable	1	200	180	sv	turquoise	purple	purple	turquoise	right	left	0.7	0.30000000000000004	10	2	7.0	0.6000000000000001	1	0	0.30000000000000004	0.7	2	10	0.6000000000000001	7.0	valid	0.5665343380005652	53248.0	0	1.0	1.0	53248	1	53248	1	53248	1	0.7	53248	purple	turquoise	1	10	ml	2.7.3	bip	sub-03_ses-02_task-ml_proj-bip_2020-11-03-10-14-14.933299
180	3	2	4	181	stable	1	200	181	sv	purple	turquoise	purple	turquoise	left	right	0.7	0.30000000000000004	4	2	2.8	0.6000000000000001	1	0	0.7	0.30000000000000004	4	2	2.8	0.6000000000000001	valid	0.5665233159998024	51200.0	0	0.0	1.0	51200	1	51200	1	51200	1	0.7	51200	purple	turquoise	1	4	ml	2.7.3	bip	sub-03_ses-02_task-ml_proj-bip_2020-11-03-10-14-14.933299
181	3	2	4	182	stable	1	200	182	sv	turquoise	purple	purple	turquoise	right	left	0.7	0.30000000000000004	2	2	1.4	0.6000000000000001	1	0	0.30000000000000004	0.7	2	2	0.6000000000000001	1.4	valid	0.6665054569984932	53248.0	0	1.0	1.0	53248	1	53248	1	53248	1	0.7	53248	purple	turquoise	0	2	ml	2.7.3	bip	sub-03_ses-02_task-ml_proj-bip_2020-11-03-10-14-14.933299
182	3	2	4	183	stable	1	200	183	sv	turquoise	purple	purple	turquoise	right	left	0.7	0.30000000000000004	4	2	2.8	0.6000000000000001	0	1	0.30000000000000004	0.7	2	4	0.6000000000000001	2.8	invalid	0.4332246079993638	53248.0	0	1.0	1.0	53248	1	53248	1	53248	1	0.7	53248	purple	turquoise	1	0	ml	2.7.3	bip	sub-03_ses-02_task-ml_proj-bip_2020-11-03-10-14-14.933299
183	3	2	4	184	stable	1	200	184	sv	turquoise	purple	purple	turquoise	right	left	0.7	0.30000000000000004	2	6	1.4	1.8000000000000005	1	0	0.30000000000000004	0.7	6	2	1.8000000000000005	1.4	valid	0.3165969730016513	51200.0	0	0.0	2.0	51200	1	53248	0	51200	1	0.7	53248	purple	turquoise	0	0	ml	2.7.3	bip	sub-03_ses-02_task-ml_proj-bip_2020-11-03-10-14-14.933299
184	3	2	4	185	stable	1	200	185	sv	purple	turquoise	purple	turquoise	left	right	0.7	0.30000000000000004	10	2	7.0	0.6000000000000001	1	0	0.7	0.30000000000000004	10	2	7.0	0.6000000000000001	valid	0.4499034149994259	53248.0	0	1.0	2.0	51200	0	51200	0	51200	0	0.7	51200	purple	turquoise	1	0	ml	2.7.3	bip	sub-03_ses-02_task-ml_proj-bip_2020-11-03-10-14-14.933299
185	3	2	4	186	stable	1	200	186	sv	purple	turquoise	purple	turquoise	left	right	0.7	0.30000000000000004	2	2	1.4	0.6000000000000001	1	0	0.7	0.30000000000000004	2	2	1.4	0.6000000000000001	valid	0.5665315660007764	53248.0	0	1.0	2.0	51200	0	51200	0	53248	1	0.7	51200	purple	turquoise	1	0	ml	2.7.3	bip	sub-03_ses-02_task-ml_proj-bip_2020-11-03-10-14-14.933299
186	3	2	4	187	stable	1	200	187	sv	purple	turquoise	purple	turquoise	left	right	0.7	0.30000000000000004	2	6	1.4	1.8000000000000005	1	0	0.7	0.30000000000000004	2	6	1.4	1.8000000000000005	valid	0.29993670800104155	51200.0	0	0.0	1.0	53248	0	51200	1	53248	0	0.7	51200	purple	turquoise	0	2	ml	2.7.3	bip	sub-03_ses-02_task-ml_proj-bip_2020-11-03-10-14-14.933299
187	3	2	4	188	stable	1	200	188	sv	purple	turquoise	purple	turquoise	left	right	0.7	0.30000000000000004	6	4	4.199999999999998	1.2000000000000002	1	0	0.7	0.30000000000000004	6	4	4.199999999999998	1.2000000000000002	valid	0.4832156180000311	51200.0	0	0.0	1.0	51200	1	51200	1	51200	1	0.7	51200	purple	turquoise	1	6	ml	2.7.3	bip	sub-03_ses-02_task-ml_proj-bip_2020-11-03-10-14-14.933299
188	3	2	4	189	stable	1	200	189	sv	purple	turquoise	purple	turquoise	left	right	0.7	0.30000000000000004	6	6	4.199999999999998	1.8000000000000005	1	0	0.7	0.30000000000000004	6	6	4.199999999999998	1.8000000000000005	valid	0.3832435829990573	51200.0	0	0.0	1.0	51200	1	51200	1	53248	0	0.7	51200	purple	turquoise	1	6	ml	2.7.3	bip	sub-03_ses-02_task-ml_proj-bip_2020-11-03-10-14-14.933299
189	3	2	4	190	stable	1	200	190	sv	purple	turquoise	purple	turquoise	left	right	0.7	0.30000000000000004	6	2	4.199999999999998	0.6000000000000001	1	0	0.7	0.30000000000000004	6	2	4.199999999999998	0.6000000000000001	valid	0.5498594670007151	51200.0	0	0.0	1.0	51200	1	51200	1	51200	1	0.7	51200	purple	turquoise	1	6	ml	2.7.3	bip	sub-03_ses-02_task-ml_proj-bip_2020-11-03-10-14-14.933299
190	3	2	4	191	stable	1	200	191	sv	turquoise	purple	purple	turquoise	right	left	0.7	0.30000000000000004	2	10	1.4	3.0000000000000004	1	0	0.30000000000000004	0.7	10	2	3.0000000000000004	1.4	valid	0.3665936540000985	53248.0	0	1.0	1.0	51200	0	53248	1	51200	0	0.7	53248	purple	turquoise	0	2	ml	2.7.3	bip	sub-03_ses-02_task-ml_proj-bip_2020-11-03-10-14-14.933299
191	3	2	4	192	stable	1	200	192	sv	purple	turquoise	purple	turquoise	left	right	0.7	0.30000000000000004	2	10	1.4	3.0000000000000004	1	0	0.7	0.30000000000000004	2	10	1.4	3.0000000000000004	valid	0.4498934359999112	51200.0	0	0.0	1.0	53248	0	51200	1	53248	0	0.7	51200	purple	turquoise	0	2	ml	2.7.3	bip	sub-03_ses-02_task-ml_proj-bip_2020-11-03-10-14-14.933299
192	3	2	4	193	stable	1	200	193	sv	turquoise	purple	purple	turquoise	right	left	0.7	0.30000000000000004	2	4	1.4	1.2000000000000002	1	0	0.30000000000000004	0.7	4	2	1.2000000000000002	1.4	valid	0.7331519309991563	53248.0	0	1.0	1.0	53248	1	53248	1	51200	0	0.7	53248	purple	turquoise	0	2	ml	2.7.3	bip	sub-03_ses-02_task-ml_proj-bip_2020-11-03-10-14-14.933299
193	3	2	4	194	stable	1	200	194	sv	turquoise	purple	purple	turquoise	right	left	0.7	0.30000000000000004	6	6	4.199999999999998	1.8000000000000005	0	1	0.30000000000000004	0.7	6	6	1.8000000000000005	4.199999999999998	invalid	0.516538785001103	51200.0	0	0.0	2.0	53248	0	53248	0	53248	0	0.7	53248	purple	turquoise	0	6	ml	2.7.3	bip	sub-03_ses-02_task-ml_proj-bip_2020-11-03-10-14-14.933299
194	3	2	4	195	stable	1	200	195	sv	purple	turquoise	purple	turquoise	left	right	0.7	0.30000000000000004	6	4	4.199999999999998	1.2000000000000002	1	0	0.7	0.30000000000000004	6	4	4.199999999999998	1.2000000000000002	valid	0.7664655950011365	51200.0	0	0.0	1.0	51200	1	51200	1	51200	1	0.7	51200	purple	turquoise	1	6	ml	2.7.3	bip	sub-03_ses-02_task-ml_proj-bip_2020-11-03-10-14-14.933299
195	3	2	4	196	stable	1	200	196	sv	purple	turquoise	purple	turquoise	left	right	0.7	0.30000000000000004	6	6	4.199999999999998	1.8000000000000005	0	1	0.7	0.30000000000000004	6	6	4.199999999999998	1.8000000000000005	invalid	0.6331808579998324	53248.0	0	1.0	2.0	51200	0	51200	0	53248	1	0.7	51200	purple	turquoise	1	6	ml	2.7.3	bip	sub-03_ses-02_task-ml_proj-bip_2020-11-03-10-14-14.933299
196	3	2	4	197	stable	1	200	197	sv	turquoise	purple	purple	turquoise	right	left	0.7	0.30000000000000004	6	2	4.199999999999998	0.6000000000000001	1	0	0.30000000000000004	0.7	2	6	0.6000000000000001	4.199999999999998	valid	0.4165681150007004	51200.0	0	0.0	2.0	53248	0	53248	0	53248	0	0.7	53248	purple	turquoise	1	0	ml	2.7.3	bip	sub-03_ses-02_task-ml_proj-bip_2020-11-03-10-14-14.933299
197	3	2	4	198	stable	1	200	198	sv	turquoise	purple	purple	turquoise	right	left	0.7	0.30000000000000004	2	4	1.4	1.2000000000000002	0	1	0.30000000000000004	0.7	4	2	1.2000000000000002	1.4	invalid	0.4332282579998719	51200.0	0	0.0	2.0	53248	0	53248	0	51200	1	0.7	53248	purple	turquoise	0	4	ml	2.7.3	bip	sub-03_ses-02_task-ml_proj-bip_2020-11-03-10-14-14.933299
198	3	2	4	199	stable	1	200	199	sv	turquoise	purple	purple	turquoise	right	left	0.7	0.30000000000000004	6	6	4.199999999999998	1.8000000000000005	1	0	0.30000000000000004	0.7	6	6	1.8000000000000005	4.199999999999998	valid	0.3832453390004957	51200.0	0	0.0	2.0	53248	0	53248	0	53248	0	0.7	53248	purple	turquoise	0	0	ml	2.7.3	bip	sub-03_ses-02_task-ml_proj-bip_2020-11-03-10-14-14.933299
199	3	2	4	200	stable	1	200	200	sv	turquoise	purple	purple	turquoise	right	left	0.7	0.30000000000000004	2	4	1.4	1.2000000000000002	1	0	0.30000000000000004	0.7	4	2	1.2000000000000002	1.4	valid	0.4165801319995808	53248.0	0	1.0	1.0	53248	1	53248	1	51200	0	0.7	53248	purple	turquoise	0	2	ml	2.7.3	bip	sub-03_ses-02_task-ml_proj-bip_2020-11-03-10-14-14.933299
200	3	2	5	201	volatile	2	40	1	sv	turquoise	purple	purple	turquoise	right	left	0.30000000000000004	0.7	4	2	1.2000000000000002	1.4	0	1	0.7	0.30000000000000004	2	4	1.4	1.2000000000000002	valid	0.5832019440003933	53248.0	0	1.0	1.0	51200	0	51200	0	53248	1	0.7	51200	turquoise	purple	0	0	ml	2.7.3	bip	sub-03_ses-02_task-ml_proj-bip_2020-11-03-10-14-14.933299
201	3	2	5	202	volatile	2	40	2	sv	purple	turquoise	purple	turquoise	left	right	0.30000000000000004	0.7	6	2	1.8000000000000005	1.4	0	1	0.30000000000000004	0.7	6	2	1.8000000000000005	1.4	valid	0.3832457160006015	51200.0	0	0.0	1.0	51200	1	53248	0	51200	1	0.7	53248	turquoise	purple	0	0	ml	2.7.3	bip	sub-03_ses-02_task-ml_proj-bip_2020-11-03-10-14-14.933299
202	3	2	5	203	volatile	2	40	3	sv	purple	turquoise	purple	turquoise	left	right	0.30000000000000004	0.7	2	2	0.6000000000000001	1.4	0	1	0.30000000000000004	0.7	2	2	0.6000000000000001	1.4	valid	0.39991696099968976	53248.0	0	1.0	2.0	53248	1	53248	1	53248	1	0.7	53248	turquoise	purple	0	2	ml	2.7.3	bip	sub-03_ses-02_task-ml_proj-bip_2020-11-03-10-14-14.933299
203	3	2	5	204	volatile	2	40	4	sv	turquoise	purple	purple	turquoise	right	left	0.30000000000000004	0.7	4	6	1.2000000000000002	4.199999999999998	1	0	0.7	0.30000000000000004	6	4	4.199999999999998	1.2000000000000002	invalid	0.3165961810009321	51200.0	0	0.0	2.0	51200	1	51200	1	51200	1	0.7	51200	turquoise	purple	1	0	ml	2.7.3	bip	sub-03_ses-02_task-ml_proj-bip_2020-11-03-10-14-14.933299
204	3	2	5	205	volatile	2	40	5	sv	turquoise	purple	purple	turquoise	right	left	0.30000000000000004	0.7	2	4	0.6000000000000001	2.8	1	0	0.7	0.30000000000000004	4	2	2.8	0.6000000000000001	invalid	0.3332692280000629	51200.0	0	0.0	2.0	51200	1	51200	1	51200	1	0.7	51200	turquoise	purple	1	0	ml	2.7.3	bip	sub-03_ses-02_task-ml_proj-bip_2020-11-03-10-14-14.933299
205	3	2	5	206	volatile	2	40	6	sv	purple	turquoise	purple	turquoise	left	right	0.30000000000000004	0.7	4	6	1.2000000000000002	4.199999999999998	0	1	0.30000000000000004	0.7	4	6	1.2000000000000002	4.199999999999998	valid	0.4499064880001242	53248.0	0	1.0	2.0	53248	1	53248	1	53248	1	0.7	53248	turquoise	purple	1	6	ml	2.7.3	bip	sub-03_ses-02_task-ml_proj-bip_2020-11-03-10-14-14.933299
206	3	2	5	207	volatile	2	40	7	sv	purple	turquoise	purple	turquoise	left	right	0.30000000000000004	0.7	2	2	0.6000000000000001	1.4	1	0	0.30000000000000004	0.7	2	2	0.6000000000000001	1.4	invalid	0.6498429359999136	53248.0	0	1.0	2.0	53248	1	53248	1	53248	1	0.7	53248	turquoise	purple	0	0	ml	2.7.3	bip	sub-03_ses-02_task-ml_proj-bip_2020-11-03-10-14-14.933299
207	3	2	5	208	volatile	2	40	8	sv	purple	turquoise	purple	turquoise	left	right	0.30000000000000004	0.7	4	6	1.2000000000000002	4.199999999999998	1	0	0.30000000000000004	0.7	4	6	1.2000000000000002	4.199999999999998	invalid	0.34991614499995194	51200.0	0	0.0	1.0	53248	0	53248	0	53248	0	0.7	53248	turquoise	purple	1	4	ml	2.7.3	bip	sub-03_ses-02_task-ml_proj-bip_2020-11-03-10-14-14.933299
208	3	2	5	209	volatile	2	40	9	sv	purple	turquoise	purple	turquoise	left	right	0.30000000000000004	0.7	6	6	1.8000000000000005	4.199999999999998	0	1	0.30000000000000004	0.7	6	6	1.8000000000000005	4.199999999999998	valid	0.4665534209998441	51200.0	0	0.0	1.0	53248	0	53248	0	53248	0	0.7	53248	turquoise	purple	0	0	ml	2.7.3	bip	sub-03_ses-02_task-ml_proj-bip_2020-11-03-10-14-14.933299
209	3	2	5	210	volatile	2	40	10	sv	purple	turquoise	purple	turquoise	left	right	0.30000000000000004	0.7	2	4	0.6000000000000001	2.8	0	1	0.30000000000000004	0.7	2	4	0.6000000000000001	2.8	valid	0.3499232989997836	51200.0	0	0.0	1.0	53248	0	53248	0	53248	0	0.7	53248	turquoise	purple	1	0	ml	2.7.3	bip	sub-03_ses-02_task-ml_proj-bip_2020-11-03-10-14-14.933299
210	3	2	5	211	volatile	2	40	11	sv	turquoise	purple	purple	turquoise	right	left	0.30000000000000004	0.7	6	6	1.8000000000000005	4.199999999999998	1	0	0.7	0.30000000000000004	6	6	4.199999999999998	1.8000000000000005	invalid	0.4499023200005468	53248.0	0	1.0	1.0	51200	0	51200	0	53248	1	0.7	51200	turquoise	purple	1	6	ml	2.7.3	bip	sub-03_ses-02_task-ml_proj-bip_2020-11-03-10-14-14.933299
211	3	2	5	212	volatile	2	40	12	sv	turquoise	purple	purple	turquoise	right	left	0.30000000000000004	0.7	2	4	0.6000000000000001	2.8	1	0	0.7	0.30000000000000004	4	2	2.8	0.6000000000000001	invalid	2.982484600001044	nan	1	nan	nan	51200	0	51200	0	51200	0	0.7	51200	turquoise	purple	1	0	ml	2.7.3	bip	sub-03_ses-02_task-ml_proj-bip_2020-11-03-10-14-14.933299
212	3	2	5	213	volatile	2	40	13	sv	purple	turquoise	purple	turquoise	left	right	0.30000000000000004	0.7	10	2	3.0000000000000004	1.4	0	1	0.30000000000000004	0.7	10	2	3.0000000000000004	1.4	valid	0.5998469229998591	51200.0	0	0.0	1.0	51200	1	53248	0	51200	1	0.7	53248	turquoise	purple	0	0	ml	2.7.3	bip	sub-03_ses-02_task-ml_proj-bip_2020-11-03-10-14-14.933299
213	3	2	5	214	volatile	2	40	14	sv	purple	turquoise	purple	turquoise	left	right	0.30000000000000004	0.7	6	2	1.8000000000000005	1.4	0	1	0.30000000000000004	0.7	6	2	1.8000000000000005	1.4	valid	0.4165816889999405	53248.0	0	1.0	2.0	51200	0	53248	1	51200	0	0.7	53248	turquoise	purple	0	2	ml	2.7.3	bip	sub-03_ses-02_task-ml_proj-bip_2020-11-03-10-14-14.933299
214	3	2	5	215	volatile	2	40	15	sv	purple	turquoise	purple	turquoise	left	right	0.30000000000000004	0.7	6	6	1.8000000000000005	4.199999999999998	0	1	0.30000000000000004	0.7	6	6	1.8000000000000005	4.199999999999998	valid	0.3499321579984098	53248.0	0	1.0	2.0	53248	1	53248	1	53248	1	0.7	53248	turquoise	purple	0	6	ml	2.7.3	bip	sub-03_ses-02_task-ml_proj-bip_2020-11-03-10-14-14.933299
215	3	2	5	216	volatile	2	40	16	sv	turquoise	purple	purple	turquoise	right	left	0.30000000000000004	0.7	6	2	1.8000000000000005	1.4	0	1	0.7	0.30000000000000004	2	6	1.4	1.8000000000000005	valid	0.36659128499923105	51200.0	0	0.0	2.0	53248	0	51200	1	53248	0	0.7	51200	turquoise	purple	0	2	ml	2.7.3	bip	sub-03_ses-02_task-ml_proj-bip_2020-11-03-10-14-14.933299
216	3	2	5	217	volatile	2	40	17	sv	purple	turquoise	purple	turquoise	left	right	0.30000000000000004	0.7	2	6	0.6000000000000001	4.199999999999998	1	0	0.30000000000000004	0.7	2	6	0.6000000000000001	4.199999999999998	invalid	0.5665356240006076	53248.0	0	1.0	2.0	53248	1	53248	1	53248	1	0.7	53248	turquoise	purple	1	0	ml	2.7.3	bip	sub-03_ses-02_task-ml_proj-bip_2020-11-03-10-14-14.933299
217	3	2	5	218	volatile	2	40	18	sv	turquoise	purple	purple	turquoise	right	left	0.30000000000000004	0.7	2	10	0.6000000000000001	7.0	0	1	0.7	0.30000000000000004	10	2	7.0	0.6000000000000001	valid	0.29992912799934857	51200.0	0	0.0	2.0	51200	1	51200	1	51200	1	0.7	51200	turquoise	purple	1	10	ml	2.7.3	bip	sub-03_ses-02_task-ml_proj-bip_2020-11-03-10-14-14.933299
218	3	2	5	219	volatile	2	40	19	sv	purple	turquoise	purple	turquoise	left	right	0.30000000000000004	0.7	2	10	0.6000000000000001	7.0	0	1	0.30000000000000004	0.7	2	10	0.6000000000000001	7.0	valid	0.3332701669987728	53248.0	0	1.0	2.0	53248	1	53248	1	53248	1	0.7	53248	turquoise	purple	1	10	ml	2.7.3	bip	sub-03_ses-02_task-ml_proj-bip_2020-11-03-10-14-14.933299
219	3	2	5	220	volatile	2	40	20	sv	turquoise	purple	purple	turquoise	right	left	0.30000000000000004	0.7	10	2	3.0000000000000004	1.4	0	1	0.7	0.30000000000000004	2	10	1.4	3.0000000000000004	valid	0.34992253000018536	51200.0	0	0.0	2.0	53248	0	51200	1	53248	0	0.7	51200	turquoise	purple	0	2	ml	2.7.3	bip	sub-03_ses-02_task-ml_proj-bip_2020-11-03-10-14-14.933299
220	3	2	5	221	volatile	2	40	21	sv	turquoise	purple	purple	turquoise	right	left	0.30000000000000004	0.7	2	2	0.6000000000000001	1.4	0	1	0.7	0.30000000000000004	2	2	1.4	0.6000000000000001	valid	0.4832152559993119	51200.0	0	0.0	2.0	51200	1	51200	1	53248	0	0.7	51200	turquoise	purple	1	2	ml	2.7.3	bip	sub-03_ses-02_task-ml_proj-bip_2020-11-03-10-14-14.933299
221	3	2	5	222	volatile	2	40	22	sv	turquoise	purple	purple	turquoise	right	left	0.30000000000000004	0.7	4	2	1.2000000000000002	1.4	0	1	0.7	0.30000000000000004	2	4	1.4	1.2000000000000002	valid	0.3832476040006441	51200.0	0	0.0	2.0	51200	1	51200	1	53248	0	0.7	51200	turquoise	purple	0	2	ml	2.7.3	bip	sub-03_ses-02_task-ml_proj-bip_2020-11-03-10-14-14.933299
222	3	2	5	223	volatile	2	40	23	sv	turquoise	purple	purple	turquoise	right	left	0.30000000000000004	0.7	6	4	1.8000000000000005	2.8	0	1	0.7	0.30000000000000004	4	6	2.8	1.8000000000000005	valid	0.3999012500007666	51200.0	0	0.0	2.0	51200	1	51200	1	53248	0	0.7	51200	turquoise	purple	0	4	ml	2.7.3	bip	sub-03_ses-02_task-ml_proj-bip_2020-11-03-10-14-14.933299
223	3	2	5	224	volatile	2	40	24	sv	turquoise	purple	purple	turquoise	right	left	0.30000000000000004	0.7	6	6	1.8000000000000005	4.199999999999998	0	1	0.7	0.30000000000000004	6	6	4.199999999999998	1.8000000000000005	valid	0.4165689219989872	51200.0	0	0.0	2.0	51200	1	51200	1	53248	0	0.7	51200	turquoise	purple	1	6	ml	2.7.3	bip	sub-03_ses-02_task-ml_proj-bip_2020-11-03-10-14-14.933299
224	3	2	5	225	volatile	2	40	25	sv	purple	turquoise	purple	turquoise	left	right	0.30000000000000004	0.7	2	6	0.6000000000000001	4.199999999999998	0	1	0.30000000000000004	0.7	2	6	0.6000000000000001	4.199999999999998	valid	0.4332401020001271	53248.0	0	1.0	2.0	53248	1	53248	1	53248	1	0.7	53248	turquoise	purple	1	6	ml	2.7.3	bip	sub-03_ses-02_task-ml_proj-bip_2020-11-03-10-14-14.933299
225	3	2	5	226	volatile	2	40	26	sv	purple	turquoise	purple	turquoise	left	right	0.30000000000000004	0.7	4	6	1.2000000000000002	4.199999999999998	1	0	0.30000000000000004	0.7	4	6	1.2000000000000002	4.199999999999998	invalid	0.4499010580002505	53248.0	0	1.0	2.0	53248	1	53248	1	53248	1	0.7	53248	turquoise	purple	1	0	ml	2.7.3	bip	sub-03_ses-02_task-ml_proj-bip_2020-11-03-10-14-14.933299
226	3	2	5	227	volatile	2	40	27	sv	turquoise	purple	purple	turquoise	right	left	0.30000000000000004	0.7	2	2	0.6000000000000001	1.4	1	0	0.7	0.30000000000000004	2	2	1.4	0.6000000000000001	invalid	0.3665945039992948	53248.0	0	1.0	1.0	51200	0	51200	0	53248	1	0.7	51200	turquoise	purple	1	2	ml	2.7.3	bip	sub-03_ses-02_task-ml_proj-bip_2020-11-03-10-14-14.933299
227	3	2	5	228	volatile	2	40	28	sv	purple	turquoise	purple	turquoise	left	right	0.30000000000000004	0.7	6	2	1.8000000000000005	1.4	0	1	0.30000000000000004	0.7	6	2	1.8000000000000005	1.4	valid	0.43322548600008304	51200.0	0	0.0	1.0	51200	1	53248	0	51200	1	0.7	53248	turquoise	purple	0	0	ml	2.7.3	bip	sub-03_ses-02_task-ml_proj-bip_2020-11-03-10-14-14.933299
228	3	2	5	229	volatile	2	40	29	sv	turquoise	purple	purple	turquoise	right	left	0.30000000000000004	0.7	2	10	0.6000000000000001	7.0	0	1	0.7	0.30000000000000004	10	2	7.0	0.6000000000000001	valid	0.499875401999816	51200.0	0	0.0	2.0	51200	1	51200	1	51200	1	0.7	51200	turquoise	purple	1	10	ml	2.7.3	bip	sub-03_ses-02_task-ml_proj-bip_2020-11-03-10-14-14.933299
229	3	2	5	230	volatile	2	40	30	sv	purple	turquoise	purple	turquoise	left	right	0.30000000000000004	0.7	2	10	0.6000000000000001	7.0	1	0	0.30000000000000004	0.7	2	10	0.6000000000000001	7.0	invalid	0.499887433999902	53248.0	0	1.0	2.0	53248	1	53248	1	53248	1	0.7	53248	turquoise	purple	1	0	ml	2.7.3	bip	sub-03_ses-02_task-ml_proj-bip_2020-11-03-10-14-14.933299
230	3	2	5	231	volatile	2	40	31	sv	turquoise	purple	purple	turquoise	right	left	0.30000000000000004	0.7	2	6	0.6000000000000001	4.199999999999998	1	0	0.7	0.30000000000000004	6	2	4.199999999999998	0.6000000000000001	invalid	0.316593751000255	51200.0	0	0.0	2.0	51200	1	51200	1	51200	1	0.7	51200	turquoise	purple	1	0	ml	2.7.3	bip	sub-03_ses-02_task-ml_proj-bip_2020-11-03-10-14-14.933299
231	3	2	5	232	volatile	2	40	32	sv	purple	turquoise	purple	turquoise	left	right	0.30000000000000004	0.7	6	4	1.8000000000000005	2.8	0	1	0.30000000000000004	0.7	6	4	1.8000000000000005	2.8	valid	0.3999112080000487	51200.0	0	0.0	1.0	53248	0	53248	0	51200	1	0.7	53248	turquoise	purple	0	0	ml	2.7.3	bip	sub-03_ses-02_task-ml_proj-bip_2020-11-03-10-14-14.933299
232	3	2	5	233	volatile	2	40	33	sv	turquoise	purple	purple	turquoise	right	left	0.30000000000000004	0.7	4	6	1.2000000000000002	4.199999999999998	0	1	0.7	0.30000000000000004	6	4	4.199999999999998	1.2000000000000002	valid	0.6331806179987325	53248.0	0	1.0	1.0	51200	0	51200	0	51200	0	0.7	51200	turquoise	purple	1	0	ml	2.7.3	bip	sub-03_ses-02_task-ml_proj-bip_2020-11-03-10-14-14.933299
233	3	2	5	234	volatile	2	40	34	sv	purple	turquoise	purple	turquoise	left	right	0.30000000000000004	0.7	6	4	1.8000000000000005	2.8	1	0	0.30000000000000004	0.7	6	4	1.8000000000000005	2.8	invalid	0.3332687380006973	53248.0	0	1.0	2.0	53248	1	53248	1	51200	0	0.7	53248	turquoise	purple	0	0	ml	2.7.3	bip	sub-03_ses-02_task-ml_proj-bip_2020-11-03-10-14-14.933299
234	3	2	5	235	volatile	2	40	35	sv	turquoise	purple	purple	turquoise	right	left	0.30000000000000004	0.7	2	4	0.6000000000000001	2.8	0	1	0.7	0.30000000000000004	4	2	2.8	0.6000000000000001	valid	0.31659681699966313	51200.0	0	0.0	2.0	51200	1	51200	1	51200	1	0.7	51200	turquoise	purple	1	4	ml	2.7.3	bip	sub-03_ses-02_task-ml_proj-bip_2020-11-03-10-14-14.933299
235	3	2	5	236	volatile	2	40	36	sv	turquoise	purple	purple	turquoise	right	left	0.30000000000000004	0.7	4	2	1.2000000000000002	1.4	0	1	0.7	0.30000000000000004	2	4	1.4	1.2000000000000002	valid	0.3499201520007773	51200.0	0	0.0	2.0	51200	1	51200	1	53248	0	0.7	51200	turquoise	purple	0	2	ml	2.7.3	bip	sub-03_ses-02_task-ml_proj-bip_2020-11-03-10-14-14.933299
236	3	2	5	237	volatile	2	40	37	sv	turquoise	purple	purple	turquoise	right	left	0.30000000000000004	0.7	2	10	0.6000000000000001	7.0	0	1	0.7	0.30000000000000004	10	2	7.0	0.6000000000000001	valid	0.3665859930006263	51200.0	0	0.0	2.0	51200	1	51200	1	51200	1	0.7	51200	turquoise	purple	1	10	ml	2.7.3	bip	sub-03_ses-02_task-ml_proj-bip_2020-11-03-10-14-14.933299
237	3	2	5	238	volatile	2	40	38	sv	purple	turquoise	purple	turquoise	left	right	0.30000000000000004	0.7	2	6	0.6000000000000001	4.199999999999998	0	1	0.30000000000000004	0.7	2	6	0.6000000000000001	4.199999999999998	valid	0.3665887029983424	53248.0	0	1.0	2.0	53248	1	53248	1	53248	1	0.7	53248	turquoise	purple	1	6	ml	2.7.3	bip	sub-03_ses-02_task-ml_proj-bip_2020-11-03-10-14-14.933299
238	3	2	5	239	volatile	2	40	39	sv	purple	turquoise	purple	turquoise	left	right	0.30000000000000004	0.7	4	2	1.2000000000000002	1.4	0	1	0.30000000000000004	0.7	4	2	1.2000000000000002	1.4	valid	0.4332382960001269	53248.0	0	1.0	2.0	53248	1	53248	1	51200	0	0.7	53248	turquoise	purple	0	2	ml	2.7.3	bip	sub-03_ses-02_task-ml_proj-bip_2020-11-03-10-14-14.933299
239	3	2	5	240	volatile	2	40	40	sv	turquoise	purple	purple	turquoise	right	left	0.30000000000000004	0.7	10	2	3.0000000000000004	1.4	0	1	0.7	0.30000000000000004	2	10	1.4	3.0000000000000004	valid	0.4665537100008805	51200.0	0	0.0	2.0	53248	0	51200	1	53248	0	0.7	51200	turquoise	purple	0	2	ml	2.7.3	bip	sub-03_ses-02_task-ml_proj-bip_2020-11-03-10-14-14.933299
240	3	2	5	241	volatile	3	20	1	sv	turquoise	purple	purple	turquoise	right	left	0.7	0.30000000000000004	10	2	7.0	0.6000000000000001	1	0	0.30000000000000004	0.7	2	10	0.6000000000000001	7.0	valid	0.3665837030002877	51200.0	0	0.0	2.0	53248	0	53248	0	53248	0	0.7	53248	purple	turquoise	1	0	ml	2.7.3	bip	sub-03_ses-02_task-ml_proj-bip_2020-11-03-10-14-14.933299
241	3	2	5	242	volatile	3	20	2	sv	purple	turquoise	purple	turquoise	left	right	0.7	0.30000000000000004	6	4	4.199999999999998	1.2000000000000002	0	1	0.7	0.30000000000000004	6	4	4.199999999999998	1.2000000000000002	invalid	0.3499538290016062	53248.0	0	1.0	2.0	51200	0	51200	0	51200	0	0.7	51200	purple	turquoise	1	4	ml	2.7.3	bip	sub-03_ses-02_task-ml_proj-bip_2020-11-03-10-14-14.933299
242	3	2	5	243	volatile	3	20	3	sv	turquoise	purple	purple	turquoise	right	left	0.7	0.30000000000000004	4	2	2.8	0.6000000000000001	1	0	0.30000000000000004	0.7	2	4	0.6000000000000001	2.8	valid	0.3665839549994416	51200.0	0	0.0	2.0	53248	0	53248	0	53248	0	0.7	53248	purple	turquoise	1	0	ml	2.7.3	bip	sub-03_ses-02_task-ml_proj-bip_2020-11-03-10-14-14.933299
243	3	2	5	244	volatile	3	20	4	sv	turquoise	purple	purple	turquoise	right	left	0.7	0.30000000000000004	2	2	1.4	0.6000000000000001	0	1	0.30000000000000004	0.7	2	2	0.6000000000000001	1.4	invalid	0.3665818110002874	51200.0	0	0.0	2.0	53248	0	53248	0	53248	0	0.7	53248	purple	turquoise	0	2	ml	2.7.3	bip	sub-03_ses-02_task-ml_proj-bip_2020-11-03-10-14-14.933299
244	3	2	5	245	volatile	3	20	5	sv	turquoise	purple	purple	turquoise	right	left	0.7	0.30000000000000004	10	2	7.0	0.6000000000000001	1	0	0.30000000000000004	0.7	2	10	0.6000000000000001	7.0	valid	0.4499028749996796	51200.0	0	0.0	2.0	53248	0	53248	0	53248	0	0.7	53248	purple	turquoise	1	0	ml	2.7.3	bip	sub-03_ses-02_task-ml_proj-bip_2020-11-03-10-14-14.933299
245	3	2	5	246	volatile	3	20	6	sv	turquoise	purple	purple	turquoise	right	left	0.7	0.30000000000000004	4	6	2.8	1.8000000000000005	0	1	0.30000000000000004	0.7	6	4	1.8000000000000005	2.8	invalid	0.3665821860013239	51200.0	0	0.0	2.0	53248	0	53248	0	51200	1	0.7	53248	purple	turquoise	0	6	ml	2.7.3	bip	sub-03_ses-02_task-ml_proj-bip_2020-11-03-10-14-14.933299
246	3	2	5	247	volatile	3	20	7	sv	turquoise	purple	purple	turquoise	right	left	0.7	0.30000000000000004	2	10	1.4	3.0000000000000004	1	0	0.30000000000000004	0.7	10	2	3.0000000000000004	1.4	valid	0.3832368819985277	51200.0	0	0.0	2.0	51200	1	53248	0	51200	1	0.7	53248	purple	turquoise	0	0	ml	2.7.3	bip	sub-03_ses-02_task-ml_proj-bip_2020-11-03-10-14-14.933299
247	3	2	5	248	volatile	3	20	8	sv	purple	turquoise	purple	turquoise	left	right	0.7	0.30000000000000004	2	4	1.4	1.2000000000000002	1	0	0.7	0.30000000000000004	2	4	1.4	1.2000000000000002	valid	0.4998841540000285	51200.0	0	0.0	1.0	51200	1	51200	1	53248	0	0.7	51200	purple	turquoise	0	2	ml	2.7.3	bip	sub-03_ses-02_task-ml_proj-bip_2020-11-03-10-14-14.933299
248	3	2	5	249	volatile	3	20	9	sv	purple	turquoise	purple	turquoise	left	right	0.7	0.30000000000000004	2	2	1.4	0.6000000000000001	1	0	0.7	0.30000000000000004	2	2	1.4	0.6000000000000001	valid	0.3332591649996175	51200.0	0	0.0	1.0	51200	1	51200	1	53248	0	0.7	51200	purple	turquoise	1	2	ml	2.7.3	bip	sub-03_ses-02_task-ml_proj-bip_2020-11-03-10-14-14.933299
249	3	2	5	250	volatile	3	20	10	sv	purple	turquoise	purple	turquoise	left	right	0.7	0.30000000000000004	2	6	1.4	1.8000000000000005	1	0	0.7	0.30000000000000004	2	6	1.4	1.8000000000000005	valid	0.6831553230003921	51200.0	0	0.0	1.0	53248	0	51200	1	53248	0	0.7	51200	purple	turquoise	0	2	ml	2.7.3	bip	sub-03_ses-02_task-ml_proj-bip_2020-11-03-10-14-14.933299
250	3	2	6	251	volatile	3	20	11	sv	purple	turquoise	purple	turquoise	left	right	0.7	0.30000000000000004	2	6	1.4	1.8000000000000005	1	0	0.7	0.30000000000000004	2	6	1.4	1.8000000000000005	valid	0.5498721790008858	53248.0	0	1.0	2.0	53248	1	51200	0	53248	1	0.7	51200	purple	turquoise	0	0	ml	2.7.3	bip	sub-03_ses-02_task-ml_proj-bip_2020-11-03-10-14-14.933299
251	3	2	6	252	volatile	3	20	12	sv	turquoise	purple	purple	turquoise	right	left	0.7	0.30000000000000004	2	10	1.4	3.0000000000000004	1	0	0.30000000000000004	0.7	10	2	3.0000000000000004	1.4	valid	0.3665824220006471	51200.0	0	0.0	2.0	51200	1	53248	0	51200	1	0.7	53248	purple	turquoise	0	0	ml	2.7.3	bip	sub-03_ses-02_task-ml_proj-bip_2020-11-03-10-14-14.933299
252	3	2	6	253	volatile	3	20	13	sv	turquoise	purple	purple	turquoise	right	left	0.7	0.30000000000000004	2	4	1.4	1.2000000000000002	1	0	0.30000000000000004	0.7	4	2	1.2000000000000002	1.4	valid	0.3332420119986637	51200.0	0	0.0	2.0	53248	0	53248	0	51200	1	0.7	53248	purple	turquoise	0	0	ml	2.7.3	bip	sub-03_ses-02_task-ml_proj-bip_2020-11-03-10-14-14.933299
253	3	2	6	254	volatile	3	20	14	sv	purple	turquoise	purple	turquoise	left	right	0.7	0.30000000000000004	6	2	4.199999999999998	0.6000000000000001	0	1	0.7	0.30000000000000004	6	2	4.199999999999998	0.6000000000000001	invalid	0.3499196070006292	51200.0	0	0.0	1.0	51200	1	51200	1	51200	1	0.7	51200	purple	turquoise	1	0	ml	2.7.3	bip	sub-03_ses-02_task-ml_proj-bip_2020-11-03-10-14-14.933299
254	3	2	6	255	volatile	3	20	15	sv	purple	turquoise	purple	turquoise	left	right	0.7	0.30000000000000004	6	6	4.199999999999998	1.8000000000000005	1	0	0.7	0.30000000000000004	6	6	4.199999999999998	1.8000000000000005	valid	0.4498849619994871	51200.0	0	0.0	1.0	51200	1	51200	1	53248	0	0.7	51200	purple	turquoise	1	6	ml	2.7.3	bip	sub-03_ses-02_task-ml_proj-bip_2020-11-03-10-14-14.933299
255	3	2	6	256	volatile	3	20	16	sv	purple	turquoise	purple	turquoise	left	right	0.7	0.30000000000000004	6	6	4.199999999999998	1.8000000000000005	1	0	0.7	0.30000000000000004	6	6	4.199999999999998	1.8000000000000005	valid	0.3499217680000584	51200.0	0	0.0	1.0	51200	1	51200	1	53248	0	0.7	51200	purple	turquoise	1	6	ml	2.7.3	bip	sub-03_ses-02_task-ml_proj-bip_2020-11-03-10-14-14.933299
256	3	2	6	257	volatile	3	20	17	sv	purple	turquoise	purple	turquoise	left	right	0.7	0.30000000000000004	4	6	2.8	1.8000000000000005	1	0	0.7	0.30000000000000004	4	6	2.8	1.8000000000000005	valid	0.3499264019992552	51200.0	0	0.0	1.0	51200	1	51200	1	53248	0	0.7	51200	purple	turquoise	0	4	ml	2.7.3	bip	sub-03_ses-02_task-ml_proj-bip_2020-11-03-10-14-14.933299
257	3	2	6	258	volatile	3	20	18	sv	purple	turquoise	purple	turquoise	left	right	0.7	0.30000000000000004	4	2	2.8	0.6000000000000001	0	1	0.7	0.30000000000000004	4	2	2.8	0.6000000000000001	invalid	0.4498913789993821	51200.0	0	0.0	1.0	51200	1	51200	1	51200	1	0.7	51200	purple	turquoise	1	0	ml	2.7.3	bip	sub-03_ses-02_task-ml_proj-bip_2020-11-03-10-14-14.933299
258	3	2	6	259	volatile	3	20	19	sv	turquoise	purple	purple	turquoise	right	left	0.7	0.30000000000000004	2	6	1.4	1.8000000000000005	0	1	0.30000000000000004	0.7	6	2	1.8000000000000005	1.4	invalid	0.31661046699991857	53248.0	0	1.0	1.0	51200	0	53248	1	51200	0	0.7	53248	purple	turquoise	0	0	ml	2.7.3	bip	sub-03_ses-02_task-ml_proj-bip_2020-11-03-10-14-14.933299
259	3	2	6	260	volatile	3	20	20	sv	turquoise	purple	purple	turquoise	right	left	0.7	0.30000000000000004	6	4	4.199999999999998	1.2000000000000002	1	0	0.30000000000000004	0.7	4	6	1.2000000000000002	4.199999999999998	valid	0.4665632469987031	53248.0	0	1.0	1.0	53248	1	53248	1	53248	1	0.7	53248	purple	turquoise	1	6	ml	2.7.3	bip	sub-03_ses-02_task-ml_proj-bip_2020-11-03-10-14-14.933299
260	3	2	6	261	volatile	4	20	1	sv	turquoise	purple	purple	turquoise	right	left	0.30000000000000004	0.7	2	10	0.6000000000000001	7.0	1	0	0.7	0.30000000000000004	10	2	7.0	0.6000000000000001	invalid	0.4832256269983191	53248.0	0	1.0	1.0	51200	0	51200	0	51200	0	0.7	51200	turquoise	purple	1	2	ml	2.7.3	bip	sub-03_ses-02_task-ml_proj-bip_2020-11-03-10-14-14.933299
261	3	2	6	262	volatile	4	20	2	sv	purple	turquoise	purple	turquoise	left	right	0.30000000000000004	0.7	6	6	1.8000000000000005	4.199999999999998	0	1	0.30000000000000004	0.7	6	6	1.8000000000000005	4.199999999999998	valid	0.2999357129992859	51200.0	0	0.0	1.0	53248	0	53248	0	53248	0	0.7	53248	turquoise	purple	0	0	ml	2.7.3	bip	sub-03_ses-02_task-ml_proj-bip_2020-11-03-10-14-14.933299
262	3	2	6	263	volatile	4	20	3	sv	turquoise	purple	purple	turquoise	right	left	0.30000000000000004	0.7	6	2	1.8000000000000005	1.4	1	0	0.7	0.30000000000000004	2	6	1.4	1.8000000000000005	invalid	0.3166076870002144	53248.0	0	1.0	1.0	53248	1	51200	0	53248	1	0.7	51200	turquoise	purple	0	6	ml	2.7.3	bip	sub-03_ses-02_task-ml_proj-bip_2020-11-03-10-14-14.933299
263	3	2	6	264	volatile	4	20	4	sv	purple	turquoise	purple	turquoise	left	right	0.30000000000000004	0.7	4	2	1.2000000000000002	1.4	0	1	0.30000000000000004	0.7	4	2	1.2000000000000002	1.4	valid	0.33326505799959705	51200.0	0	0.0	1.0	53248	0	53248	0	51200	1	0.7	53248	turquoise	purple	0	0	ml	2.7.3	bip	sub-03_ses-02_task-ml_proj-bip_2020-11-03-10-14-14.933299
264	3	2	6	265	volatile	4	20	5	sv	purple	turquoise	purple	turquoise	left	right	0.30000000000000004	0.7	6	4	1.8000000000000005	2.8	1	0	0.30000000000000004	0.7	6	4	1.8000000000000005	2.8	invalid	0.3999042069990537	51200.0	0	0.0	1.0	53248	0	53248	0	51200	1	0.7	53248	turquoise	purple	0	6	ml	2.7.3	bip	sub-03_ses-02_task-ml_proj-bip_2020-11-03-10-14-14.933299
265	3	2	6	266	volatile	4	20	6	sv	turquoise	purple	purple	turquoise	right	left	0.30000000000000004	0.7	10	2	3.0000000000000004	1.4	0	1	0.7	0.30000000000000004	2	10	1.4	3.0000000000000004	valid	0.3999184989988862	53248.0	0	1.0	1.0	53248	1	51200	0	53248	1	0.7	51200	turquoise	purple	0	0	ml	2.7.3	bip	sub-03_ses-02_task-ml_proj-bip_2020-11-03-10-14-14.933299
266	3	2	6	267	volatile	4	20	7	sv	turquoise	purple	purple	turquoise	right	left	0.30000000000000004	0.7	6	6	1.8000000000000005	4.199999999999998	0	1	0.7	0.30000000000000004	6	6	4.199999999999998	1.8000000000000005	valid	0.3665820989990607	51200.0	0	0.0	2.0	51200	1	51200	1	53248	0	0.7	51200	turquoise	purple	1	6	ml	2.7.3	bip	sub-03_ses-02_task-ml_proj-bip_2020-11-03-10-14-14.933299
267	3	2	6	268	volatile	4	20	8	sv	turquoise	purple	purple	turquoise	right	left	0.30000000000000004	0.7	2	6	0.6000000000000001	4.199999999999998	0	1	0.7	0.30000000000000004	6	2	4.199999999999998	0.6000000000000001	valid	0.3332625380007812	51200.0	0	0.0	2.0	51200	1	51200	1	51200	1	0.7	51200	turquoise	purple	1	6	ml	2.7.3	bip	sub-03_ses-02_task-ml_proj-bip_2020-11-03-10-14-14.933299
268	3	2	6	269	volatile	4	20	9	sv	turquoise	purple	purple	turquoise	right	left	0.30000000000000004	0.7	4	2	1.2000000000000002	1.4	1	0	0.7	0.30000000000000004	2	4	1.4	1.2000000000000002	invalid	0.3499197119999735	51200.0	0	0.0	2.0	51200	1	51200	1	53248	0	0.7	51200	turquoise	purple	0	0	ml	2.7.3	bip	sub-03_ses-02_task-ml_proj-bip_2020-11-03-10-14-14.933299
269	3	2	6	270	volatile	4	20	10	sv	turquoise	purple	purple	turquoise	right	left	0.30000000000000004	0.7	4	6	1.2000000000000002	4.199999999999998	0	1	0.7	0.30000000000000004	6	4	4.199999999999998	1.2000000000000002	valid	0.3665834170005837	51200.0	0	0.0	2.0	51200	1	51200	1	51200	1	0.7	51200	turquoise	purple	1	6	ml	2.7.3	bip	sub-03_ses-02_task-ml_proj-bip_2020-11-03-10-14-14.933299
270	3	2	6	271	volatile	4	20	11	sv	turquoise	purple	purple	turquoise	right	left	0.30000000000000004	0.7	2	10	0.6000000000000001	7.0	0	1	0.7	0.30000000000000004	10	2	7.0	0.6000000000000001	valid	0.3832398539998394	51200.0	0	0.0	2.0	51200	1	51200	1	51200	1	0.7	51200	turquoise	purple	1	10	ml	2.7.3	bip	sub-03_ses-02_task-ml_proj-bip_2020-11-03-10-14-14.933299
271	3	2	6	272	volatile	4	20	12	sv	purple	turquoise	purple	turquoise	left	right	0.30000000000000004	0.7	2	4	0.6000000000000001	2.8	0	1	0.30000000000000004	0.7	2	4	0.6000000000000001	2.8	valid	0.3332713330000843	53248.0	0	1.0	2.0	53248	1	53248	1	53248	1	0.7	53248	turquoise	purple	1	4	ml	2.7.3	bip	sub-03_ses-02_task-ml_proj-bip_2020-11-03-10-14-14.933299
272	3	2	6	273	volatile	4	20	13	sv	purple	turquoise	purple	turquoise	left	right	0.30000000000000004	0.7	2	2	0.6000000000000001	1.4	0	1	0.30000000000000004	0.7	2	2	0.6000000000000001	1.4	valid	0.5165495490000467	53248.0	0	1.0	2.0	53248	1	53248	1	53248	1	0.7	53248	turquoise	purple	0	2	ml	2.7.3	bip	sub-03_ses-02_task-ml_proj-bip_2020-11-03-10-14-14.933299
273	3	2	6	274	volatile	4	20	14	sv	turquoise	purple	purple	turquoise	right	left	0.30000000000000004	0.7	6	2	1.8000000000000005	1.4	0	1	0.7	0.30000000000000004	2	6	1.4	1.8000000000000005	valid	0.31659765299991705	51200.0	0	0.0	2.0	53248	0	51200	1	53248	0	0.7	51200	turquoise	purple	0	2	ml	2.7.3	bip	sub-03_ses-02_task-ml_proj-bip_2020-11-03-10-14-14.933299
