Unnamed: 0	sub_id	ses_id	block_no	trial_no	phase_type	phase_no	phase_length	trialInPhase_no	phase_type_order	color_left	color_right	color1	color2	position1	position2	prob1	prob2	mag1	mag2	ev1	ev2	outcome1	outcome2	prob_left	prob_right	mag_left	mag_right	ev_left	ev_right	reward_validity	resp_time	resp_key	timeout	choice_side	choice	ev_corr_resp	ev_correct	prob_corr_resp	prob_correct	mag_corr_resp	mag_correct	high_prob	high_prob_side	high_prob_color	low_prob_color	no_brain	reward	name	version	proj_id	logFileID
0	3	1	1	1	stable	1	200	1	sv	blue	red	red	blue	right	left	0.7	0.30000000000000004	2	6	1.4	1.8000000000000005	1	0	0.30000000000000004	0.7	6	2	1.8000000000000005	1.4	valid	0.6831569539990596	51200.0	0	0.0	2.0	51200	1	53248	0	51200	1	0.7	53248	red	blue	0	0	ml	2.7.3	bip	sub-03_ses-01_task-ml_proj-bip_2020-10-27-10-13-46.535960
1	3	1	1	2	stable	1	200	2	sv	blue	red	red	blue	right	left	0.7	0.30000000000000004	6	4	4.199999999999998	1.2000000000000002	1	0	0.30000000000000004	0.7	4	6	1.2000000000000002	4.199999999999998	valid	0.3499207499990007	51200.0	0	0.0	2.0	53248	0	53248	0	53248	0	0.7	53248	red	blue	1	0	ml	2.7.3	bip	sub-03_ses-01_task-ml_proj-bip_2020-10-27-10-13-46.535960
2	3	1	1	3	stable	1	200	3	sv	red	blue	red	blue	left	right	0.7	0.30000000000000004	2	10	1.4	3.0000000000000004	1	0	0.7	0.30000000000000004	2	10	1.4	3.0000000000000004	valid	0.4832255310011533	53248.0	0	1.0	2.0	53248	1	51200	0	53248	1	0.7	51200	red	blue	0	0	ml	2.7.3	bip	sub-03_ses-01_task-ml_proj-bip_2020-10-27-10-13-46.535960
3	3	1	1	4	stable	1	200	4	sv	red	blue	red	blue	left	right	0.7	0.30000000000000004	6	6	4.199999999999998	1.8000000000000005	1	0	0.7	0.30000000000000004	6	6	4.199999999999998	1.8000000000000005	valid	0.38324554099926894	51200.0	0	0.0	1.0	51200	1	51200	1	53248	0	0.7	51200	red	blue	1	6	ml	2.7.3	bip	sub-03_ses-01_task-ml_proj-bip_2020-10-27-10-13-46.535960
4	3	1	1	5	stable	1	200	5	sv	red	blue	red	blue	left	right	0.7	0.30000000000000004	4	6	2.8	1.8000000000000005	1	0	0.7	0.30000000000000004	4	6	2.8	1.8000000000000005	valid	0.3832441249996919	51200.0	0	0.0	1.0	51200	1	51200	1	53248	0	0.7	51200	red	blue	0	4	ml	2.7.3	bip	sub-03_ses-01_task-ml_proj-bip_2020-10-27-10-13-46.535960
5	3	1	1	6	stable	1	200	6	sv	blue	red	red	blue	right	left	0.7	0.30000000000000004	6	4	4.199999999999998	1.2000000000000002	1	0	0.30000000000000004	0.7	4	6	1.2000000000000002	4.199999999999998	valid	0.33327577499949257	53248.0	0	1.0	1.0	53248	1	53248	1	53248	1	0.7	53248	red	blue	1	6	ml	2.7.3	bip	sub-03_ses-01_task-ml_proj-bip_2020-10-27-10-13-46.535960
6	3	1	1	7	stable	1	200	7	sv	blue	red	red	blue	right	left	0.7	0.30000000000000004	2	2	1.4	0.6000000000000001	0	1	0.30000000000000004	0.7	2	2	0.6000000000000001	1.4	invalid	0.4832281500002864	53248.0	0	1.0	1.0	53248	1	53248	1	53248	1	0.7	53248	red	blue	0	0	ml	2.7.3	bip	sub-03_ses-01_task-ml_proj-bip_2020-10-27-10-13-46.535960
7	3	1	1	8	stable	1	200	8	sv	blue	red	red	blue	right	left	0.7	0.30000000000000004	10	2	7.0	0.6000000000000001	0	1	0.30000000000000004	0.7	2	10	0.6000000000000001	7.0	invalid	0.3166075259996433	53248.0	0	1.0	1.0	53248	1	53248	1	53248	1	0.7	53248	red	blue	1	0	ml	2.7.3	bip	sub-03_ses-01_task-ml_proj-bip_2020-10-27-10-13-46.535960
8	3	1	1	9	stable	1	200	9	sv	blue	red	red	blue	right	left	0.7	0.30000000000000004	2	6	1.4	1.8000000000000005	0	1	0.30000000000000004	0.7	6	2	1.8000000000000005	1.4	invalid	0.3665929740000138	53248.0	0	1.0	1.0	51200	0	53248	1	51200	0	0.7	53248	red	blue	0	0	ml	2.7.3	bip	sub-03_ses-01_task-ml_proj-bip_2020-10-27-10-13-46.535960
9	3	1	1	10	stable	1	200	10	sv	red	blue	red	blue	left	right	0.7	0.30000000000000004	2	2	1.4	0.6000000000000001	1	0	0.7	0.30000000000000004	2	2	1.4	0.6000000000000001	valid	0.4332426370001485	53248.0	0	1.0	2.0	51200	0	51200	0	53248	1	0.7	51200	red	blue	1	0	ml	2.7.3	bip	sub-03_ses-01_task-ml_proj-bip_2020-10-27-10-13-46.535960
10	3	1	1	11	stable	1	200	11	sv	blue	red	red	blue	right	left	0.7	0.30000000000000004	6	6	4.199999999999998	1.8000000000000005	0	1	0.30000000000000004	0.7	6	6	1.8000000000000005	4.199999999999998	invalid	0.2999365579998994	51200.0	0	0.0	2.0	53248	0	53248	0	53248	0	0.7	53248	red	blue	0	6	ml	2.7.3	bip	sub-03_ses-01_task-ml_proj-bip_2020-10-27-10-13-46.535960
11	3	1	1	12	stable	1	200	12	sv	red	blue	red	blue	left	right	0.7	0.30000000000000004	4	6	2.8	1.8000000000000005	0	1	0.7	0.30000000000000004	4	6	2.8	1.8000000000000005	invalid	0.4832275739991019	53248.0	0	1.0	2.0	51200	0	51200	0	53248	1	0.7	51200	red	blue	0	6	ml	2.7.3	bip	sub-03_ses-01_task-ml_proj-bip_2020-10-27-10-13-46.535960
12	3	1	1	13	stable	1	200	13	sv	blue	red	red	blue	right	left	0.7	0.30000000000000004	2	4	1.4	1.2000000000000002	1	0	0.30000000000000004	0.7	4	2	1.2000000000000002	1.4	valid	0.39991526800076826	51200.0	0	0.0	2.0	53248	0	53248	0	51200	1	0.7	53248	red	blue	0	0	ml	2.7.3	bip	sub-03_ses-01_task-ml_proj-bip_2020-10-27-10-13-46.535960
13	3	1	1	14	stable	1	200	14	sv	red	blue	red	blue	left	right	0.7	0.30000000000000004	4	2	2.8	0.6000000000000001	1	0	0.7	0.30000000000000004	4	2	2.8	0.6000000000000001	valid	0.3665945379998448	53248.0	0	1.0	2.0	51200	0	51200	0	51200	0	0.7	51200	red	blue	1	0	ml	2.7.3	bip	sub-03_ses-01_task-ml_proj-bip_2020-10-27-10-13-46.535960
14	3	1	1	15	stable	1	200	15	sv	red	blue	red	blue	left	right	0.7	0.30000000000000004	6	4	4.199999999999998	1.2000000000000002	1	0	0.7	0.30000000000000004	6	4	4.199999999999998	1.2000000000000002	valid	0.4332420820010157	53248.0	0	1.0	2.0	51200	0	51200	0	51200	0	0.7	51200	red	blue	1	0	ml	2.7.3	bip	sub-03_ses-01_task-ml_proj-bip_2020-10-27-10-13-46.535960
15	3	1	1	16	stable	1	200	16	sv	blue	red	red	blue	right	left	0.7	0.30000000000000004	2	10	1.4	3.0000000000000004	1	0	0.30000000000000004	0.7	10	2	3.0000000000000004	1.4	valid	0.3665926779995061	53248.0	0	1.0	1.0	51200	0	53248	1	51200	0	0.7	53248	red	blue	0	2	ml	2.7.3	bip	sub-03_ses-01_task-ml_proj-bip_2020-10-27-10-13-46.535960
16	3	1	1	17	stable	1	200	17	sv	blue	red	red	blue	right	left	0.7	0.30000000000000004	2	10	1.4	3.0000000000000004	1	0	0.30000000000000004	0.7	10	2	3.0000000000000004	1.4	valid	0.3499322499992559	53248.0	0	1.0	1.0	51200	0	53248	1	51200	0	0.7	53248	red	blue	0	2	ml	2.7.3	bip	sub-03_ses-01_task-ml_proj-bip_2020-10-27-10-13-46.535960
17	3	1	1	18	stable	1	200	18	sv	blue	red	red	blue	right	left	0.7	0.30000000000000004	6	6	4.199999999999998	1.8000000000000005	1	0	0.30000000000000004	0.7	6	6	1.8000000000000005	4.199999999999998	valid	0.3666052700009459	53248.0	0	1.0	1.0	53248	1	53248	1	53248	1	0.7	53248	red	blue	0	6	ml	2.7.3	bip	sub-03_ses-01_task-ml_proj-bip_2020-10-27-10-13-46.535960
18	3	1	1	19	stable	1	200	19	sv	red	blue	red	blue	left	right	0.7	0.30000000000000004	2	4	1.4	1.2000000000000002	0	1	0.7	0.30000000000000004	2	4	1.4	1.2000000000000002	invalid	0.5665236730001197	51200.0	0	0.0	1.0	51200	1	51200	1	53248	0	0.7	51200	red	blue	0	0	ml	2.7.3	bip	sub-03_ses-01_task-ml_proj-bip_2020-10-27-10-13-46.535960
19	3	1	1	20	stable	1	200	20	sv	blue	red	red	blue	right	left	0.7	0.30000000000000004	4	2	2.8	0.6000000000000001	1	0	0.30000000000000004	0.7	2	4	0.6000000000000001	2.8	valid	0.38326357699952496	53248.0	0	1.0	1.0	53248	1	53248	1	53248	1	0.7	53248	red	blue	1	4	ml	2.7.3	bip	sub-03_ses-01_task-ml_proj-bip_2020-10-27-10-13-46.535960
20	3	1	1	21	stable	1	200	21	sv	red	blue	red	blue	left	right	0.7	0.30000000000000004	6	4	4.199999999999998	1.2000000000000002	0	1	0.7	0.30000000000000004	6	4	4.199999999999998	1.2000000000000002	invalid	0.5165385860000242	51200.0	0	0.0	1.0	51200	1	51200	1	51200	1	0.7	51200	red	blue	1	0	ml	2.7.3	bip	sub-03_ses-01_task-ml_proj-bip_2020-10-27-10-13-46.535960
21	3	1	1	22	stable	1	200	22	sv	blue	red	red	blue	right	left	0.7	0.30000000000000004	6	6	4.199999999999998	1.8000000000000005	1	0	0.30000000000000004	0.7	6	6	1.8000000000000005	4.199999999999998	valid	0.5332321900004899	53248.0	0	1.0	1.0	53248	1	53248	1	53248	1	0.7	53248	red	blue	0	6	ml	2.7.3	bip	sub-03_ses-01_task-ml_proj-bip_2020-10-27-10-13-46.535960
22	3	1	1	23	stable	1	200	23	sv	red	blue	red	blue	left	right	0.7	0.30000000000000004	2	2	1.4	0.6000000000000001	1	0	0.7	0.30000000000000004	2	2	1.4	0.6000000000000001	valid	0.5998496689990134	51200.0	0	0.0	1.0	51200	1	51200	1	53248	0	0.7	51200	red	blue	1	2	ml	2.7.3	bip	sub-03_ses-01_task-ml_proj-bip_2020-10-27-10-13-46.535960
23	3	1	1	24	stable	1	200	24	sv	blue	red	red	blue	right	left	0.7	0.30000000000000004	6	2	4.199999999999998	0.6000000000000001	1	0	0.30000000000000004	0.7	2	6	0.6000000000000001	4.199999999999998	valid	0.3832579830013856	53248.0	0	1.0	1.0	53248	1	53248	1	53248	1	0.7	53248	red	blue	1	6	ml	2.7.3	bip	sub-03_ses-01_task-ml_proj-bip_2020-10-27-10-13-46.535960
24	3	1	1	25	stable	1	200	25	sv	blue	red	red	blue	right	left	0.7	0.30000000000000004	6	2	4.199999999999998	0.6000000000000001	1	0	0.30000000000000004	0.7	2	6	0.6000000000000001	4.199999999999998	valid	0.5332126440007414	53248.0	0	1.0	1.0	53248	1	53248	1	53248	1	0.7	53248	red	blue	1	6	ml	2.7.3	bip	sub-03_ses-01_task-ml_proj-bip_2020-10-27-10-13-46.535960
25	3	1	1	26	stable	1	200	26	sv	blue	red	red	blue	right	left	0.7	0.30000000000000004	4	6	2.8	1.8000000000000005	0	1	0.30000000000000004	0.7	6	4	1.8000000000000005	2.8	invalid	0.33327428399934433	53248.0	0	1.0	1.0	53248	1	53248	1	51200	0	0.7	53248	red	blue	0	0	ml	2.7.3	bip	sub-03_ses-01_task-ml_proj-bip_2020-10-27-10-13-46.535960
26	3	1	1	27	stable	1	200	27	sv	red	blue	red	blue	left	right	0.7	0.30000000000000004	6	4	4.199999999999998	1.2000000000000002	0	1	0.7	0.30000000000000004	6	4	4.199999999999998	1.2000000000000002	invalid	0.2832889829987835	53248.0	0	1.0	2.0	51200	0	51200	0	51200	0	0.7	51200	red	blue	1	4	ml	2.7.3	bip	sub-03_ses-01_task-ml_proj-bip_2020-10-27-10-13-46.535960
27	3	1	1	28	stable	1	200	28	sv	red	blue	red	blue	left	right	0.7	0.30000000000000004	2	6	1.4	1.8000000000000005	1	0	0.7	0.30000000000000004	2	6	1.4	1.8000000000000005	valid	0.4499028440004622	53248.0	0	1.0	2.0	53248	1	51200	0	53248	1	0.7	51200	red	blue	0	0	ml	2.7.3	bip	sub-03_ses-01_task-ml_proj-bip_2020-10-27-10-13-46.535960
28	3	1	1	29	stable	1	200	29	sv	blue	red	red	blue	right	left	0.7	0.30000000000000004	2	6	1.4	1.8000000000000005	0	1	0.30000000000000004	0.7	6	2	1.8000000000000005	1.4	invalid	0.5165520730006392	53248.0	0	1.0	1.0	51200	0	53248	1	51200	0	0.7	53248	red	blue	0	0	ml	2.7.3	bip	sub-03_ses-01_task-ml_proj-bip_2020-10-27-10-13-46.535960
29	3	1	1	30	stable	1	200	30	sv	red	blue	red	blue	left	right	0.7	0.30000000000000004	2	2	1.4	0.6000000000000001	1	0	0.7	0.30000000000000004	2	2	1.4	0.6000000000000001	valid	0.4498913019997417	51200.0	0	0.0	1.0	51200	1	51200	1	53248	0	0.7	51200	red	blue	1	2	ml	2.7.3	bip	sub-03_ses-01_task-ml_proj-bip_2020-10-27-10-13-46.535960
30	3	1	1	31	stable	1	200	31	sv	red	blue	red	blue	left	right	0.7	0.30000000000000004	6	6	4.199999999999998	1.8000000000000005	0	1	0.7	0.30000000000000004	6	6	4.199999999999998	1.8000000000000005	invalid	0.3999050319998787	51200.0	0	0.0	1.0	51200	1	51200	1	53248	0	0.7	51200	red	blue	1	0	ml	2.7.3	bip	sub-03_ses-01_task-ml_proj-bip_2020-10-27-10-13-46.535960
31	3	1	1	32	stable	1	200	32	sv	blue	red	red	blue	right	left	0.7	0.30000000000000004	6	4	4.199999999999998	1.2000000000000002	0	1	0.30000000000000004	0.7	4	6	1.2000000000000002	4.199999999999998	invalid	0.4998899510010233	53248.0	0	1.0	1.0	53248	1	53248	1	53248	1	0.7	53248	red	blue	1	0	ml	2.7.3	bip	sub-03_ses-01_task-ml_proj-bip_2020-10-27-10-13-46.535960
32	3	1	1	33	stable	1	200	33	sv	red	blue	red	blue	left	right	0.7	0.30000000000000004	2	6	1.4	1.8000000000000005	1	0	0.7	0.30000000000000004	2	6	1.4	1.8000000000000005	valid	0.3666131480003969	53248.0	0	1.0	2.0	53248	1	51200	0	53248	1	0.7	51200	red	blue	0	0	ml	2.7.3	bip	sub-03_ses-01_task-ml_proj-bip_2020-10-27-10-13-46.535960
33	3	1	1	34	stable	1	200	34	sv	blue	red	red	blue	right	left	0.7	0.30000000000000004	2	10	1.4	3.0000000000000004	1	0	0.30000000000000004	0.7	10	2	3.0000000000000004	1.4	valid	0.3499226969997835	51200.0	0	0.0	2.0	51200	1	53248	0	51200	1	0.7	53248	red	blue	0	0	ml	2.7.3	bip	sub-03_ses-01_task-ml_proj-bip_2020-10-27-10-13-46.535960
34	3	1	1	35	stable	1	200	35	sv	red	blue	red	blue	left	right	0.7	0.30000000000000004	2	2	1.4	0.6000000000000001	1	0	0.7	0.30000000000000004	2	2	1.4	0.6000000000000001	valid	0.4332416750003176	53248.0	0	1.0	2.0	51200	0	51200	0	53248	1	0.7	51200	red	blue	1	0	ml	2.7.3	bip	sub-03_ses-01_task-ml_proj-bip_2020-10-27-10-13-46.535960
35	3	1	1	36	stable	1	200	36	sv	blue	red	red	blue	right	left	0.7	0.30000000000000004	2	2	1.4	0.6000000000000001	1	0	0.30000000000000004	0.7	2	2	0.6000000000000001	1.4	valid	0.5165523989999201	53248.0	0	1.0	1.0	53248	1	53248	1	53248	1	0.7	53248	red	blue	0	2	ml	2.7.3	bip	sub-03_ses-01_task-ml_proj-bip_2020-10-27-10-13-46.535960
36	3	1	1	37	stable	1	200	37	sv	red	blue	red	blue	left	right	0.7	0.30000000000000004	2	10	1.4	3.0000000000000004	1	0	0.7	0.30000000000000004	2	10	1.4	3.0000000000000004	valid	0.31659708700135525	51200.0	0	0.0	1.0	53248	0	51200	1	53248	0	0.7	51200	red	blue	0	2	ml	2.7.3	bip	sub-03_ses-01_task-ml_proj-bip_2020-10-27-10-13-46.535960
37	3	1	1	38	stable	1	200	38	sv	blue	red	red	blue	right	left	0.7	0.30000000000000004	10	2	7.0	0.6000000000000001	1	0	0.30000000000000004	0.7	2	10	0.6000000000000001	7.0	valid	0.383257974001026	53248.0	0	1.0	1.0	53248	1	53248	1	53248	1	0.7	53248	red	blue	1	10	ml	2.7.3	bip	sub-03_ses-01_task-ml_proj-bip_2020-10-27-10-13-46.535960
38	3	1	1	39	stable	1	200	39	sv	red	blue	red	blue	left	right	0.7	0.30000000000000004	4	6	2.8	1.8000000000000005	1	0	0.7	0.30000000000000004	4	6	2.8	1.8000000000000005	valid	0.3665875229999074	51200.0	0	0.0	1.0	51200	1	51200	1	53248	0	0.7	51200	red	blue	0	4	ml	2.7.3	bip	sub-03_ses-01_task-ml_proj-bip_2020-10-27-10-13-46.535960
39	3	1	1	40	stable	1	200	40	sv	red	blue	red	blue	left	right	0.7	0.30000000000000004	2	4	1.4	1.2000000000000002	1	0	0.7	0.30000000000000004	2	4	1.4	1.2000000000000002	valid	0.4665660380014742	51200.0	0	0.0	1.0	51200	1	51200	1	53248	0	0.7	51200	red	blue	0	2	ml	2.7.3	bip	sub-03_ses-01_task-ml_proj-bip_2020-10-27-10-13-46.535960
40	3	1	1	41	stable	1	200	41	sv	red	blue	red	blue	left	right	0.7	0.30000000000000004	2	4	1.4	1.2000000000000002	1	0	0.7	0.30000000000000004	2	4	1.4	1.2000000000000002	valid	0.4998788670000067	51200.0	0	0.0	1.0	51200	1	51200	1	53248	0	0.7	51200	red	blue	0	2	ml	2.7.3	bip	sub-03_ses-01_task-ml_proj-bip_2020-10-27-10-13-46.535960
41	3	1	1	42	stable	1	200	42	sv	blue	red	red	blue	right	left	0.7	0.30000000000000004	10	2	7.0	0.6000000000000001	0	1	0.30000000000000004	0.7	2	10	0.6000000000000001	7.0	invalid	0.4832267770016188	53248.0	0	1.0	1.0	53248	1	53248	1	53248	1	0.7	53248	red	blue	1	0	ml	2.7.3	bip	sub-03_ses-01_task-ml_proj-bip_2020-10-27-10-13-46.535960
42	3	1	1	43	stable	1	200	43	sv	blue	red	red	blue	right	left	0.7	0.30000000000000004	2	6	1.4	1.8000000000000005	0	1	0.30000000000000004	0.7	6	2	1.8000000000000005	1.4	invalid	0.4832301330006885	53248.0	0	1.0	1.0	51200	0	53248	1	51200	0	0.7	53248	red	blue	0	0	ml	2.7.3	bip	sub-03_ses-01_task-ml_proj-bip_2020-10-27-10-13-46.535960
43	3	1	1	44	stable	1	200	44	sv	red	blue	red	blue	left	right	0.7	0.30000000000000004	2	10	1.4	3.0000000000000004	0	1	0.7	0.30000000000000004	2	10	1.4	3.0000000000000004	invalid	0.7498198600005708	53248.0	0	1.0	2.0	53248	1	51200	0	53248	1	0.7	51200	red	blue	0	10	ml	2.7.3	bip	sub-03_ses-01_task-ml_proj-bip_2020-10-27-10-13-46.535960
44	3	1	1	45	stable	1	200	45	sv	red	blue	red	blue	left	right	0.7	0.30000000000000004	6	2	4.199999999999998	0.6000000000000001	1	0	0.7	0.30000000000000004	6	2	4.199999999999998	0.6000000000000001	valid	0.5332120390012278	53248.0	0	1.0	2.0	51200	0	51200	0	51200	0	0.7	51200	red	blue	1	0	ml	2.7.3	bip	sub-03_ses-01_task-ml_proj-bip_2020-10-27-10-13-46.535960
45	3	1	1	46	stable	1	200	46	sv	red	blue	red	blue	left	right	0.7	0.30000000000000004	4	2	2.8	0.6000000000000001	1	0	0.7	0.30000000000000004	4	2	2.8	0.6000000000000001	valid	0.4332401859992388	53248.0	0	1.0	2.0	51200	0	51200	0	51200	0	0.7	51200	red	blue	1	0	ml	2.7.3	bip	sub-03_ses-01_task-ml_proj-bip_2020-10-27-10-13-46.535960
46	3	1	1	47	stable	1	200	47	sv	blue	red	red	blue	right	left	0.7	0.30000000000000004	4	2	2.8	0.6000000000000001	0	1	0.30000000000000004	0.7	2	4	0.6000000000000001	2.8	invalid	0.3999072110000271	51200.0	0	0.0	2.0	53248	0	53248	0	53248	0	0.7	53248	red	blue	1	2	ml	2.7.3	bip	sub-03_ses-01_task-ml_proj-bip_2020-10-27-10-13-46.535960
47	3	1	1	48	stable	1	200	48	sv	red	blue	red	blue	left	right	0.7	0.30000000000000004	2	10	1.4	3.0000000000000004	1	0	0.7	0.30000000000000004	2	10	1.4	3.0000000000000004	valid	0.4332415489989216	53248.0	0	1.0	2.0	53248	1	51200	0	53248	1	0.7	51200	red	blue	0	0	ml	2.7.3	bip	sub-03_ses-01_task-ml_proj-bip_2020-10-27-10-13-46.535960
48	3	1	1	49	stable	1	200	49	sv	blue	red	red	blue	right	left	0.7	0.30000000000000004	2	10	1.4	3.0000000000000004	0	1	0.30000000000000004	0.7	10	2	3.0000000000000004	1.4	invalid	0.34993219100033457	53248.0	0	1.0	1.0	51200	0	53248	1	51200	0	0.7	53248	red	blue	0	0	ml	2.7.3	bip	sub-03_ses-01_task-ml_proj-bip_2020-10-27-10-13-46.535960
49	3	1	1	50	stable	1	200	50	sv	red	blue	red	blue	left	right	0.7	0.30000000000000004	6	2	4.199999999999998	0.6000000000000001	1	0	0.7	0.30000000000000004	6	2	4.199999999999998	0.6000000000000001	valid	0.3165987360007421	51200.0	0	0.0	1.0	51200	1	51200	1	51200	1	0.7	51200	red	blue	1	6	ml	2.7.3	bip	sub-03_ses-01_task-ml_proj-bip_2020-10-27-10-13-46.535960
50	3	1	2	51	stable	1	200	51	sv	blue	red	red	blue	right	left	0.7	0.30000000000000004	2	6	1.4	1.8000000000000005	1	0	0.30000000000000004	0.7	6	2	1.8000000000000005	1.4	valid	0.7498104589994911	51200.0	0	0.0	2.0	51200	1	53248	0	51200	1	0.7	53248	red	blue	0	0	ml	2.7.3	bip	sub-03_ses-01_task-ml_proj-bip_2020-10-27-10-13-46.535960
51	3	1	2	52	stable	1	200	52	sv	blue	red	red	blue	right	left	0.7	0.30000000000000004	4	6	2.8	1.8000000000000005	1	0	0.30000000000000004	0.7	6	4	1.8000000000000005	2.8	valid	0.416567483000108	51200.0	0	0.0	2.0	53248	0	53248	0	51200	1	0.7	53248	red	blue	0	0	ml	2.7.3	bip	sub-03_ses-01_task-ml_proj-bip_2020-10-27-10-13-46.535960
52	3	1	2	53	stable	1	200	53	sv	red	blue	red	blue	left	right	0.7	0.30000000000000004	10	2	7.0	0.6000000000000001	1	0	0.7	0.30000000000000004	10	2	7.0	0.6000000000000001	valid	0.41656697300095397	51200.0	0	0.0	1.0	51200	1	51200	1	51200	1	0.7	51200	red	blue	1	10	ml	2.7.3	bip	sub-03_ses-01_task-ml_proj-bip_2020-10-27-10-13-46.535960
53	3	1	2	54	stable	1	200	54	sv	red	blue	red	blue	left	right	0.7	0.30000000000000004	2	4	1.4	1.2000000000000002	1	0	0.7	0.30000000000000004	2	4	1.4	1.2000000000000002	valid	0.4165665540003829	51200.0	0	0.0	1.0	51200	1	51200	1	53248	0	0.7	51200	red	blue	0	2	ml	2.7.3	bip	sub-03_ses-01_task-ml_proj-bip_2020-10-27-10-13-46.535960
54	3	1	2	55	stable	1	200	55	sv	blue	red	red	blue	right	left	0.7	0.30000000000000004	2	4	1.4	1.2000000000000002	0	1	0.30000000000000004	0.7	4	2	1.2000000000000002	1.4	invalid	0.4165783440002997	53248.0	0	1.0	1.0	53248	1	53248	1	51200	0	0.7	53248	red	blue	0	0	ml	2.7.3	bip	sub-03_ses-01_task-ml_proj-bip_2020-10-27-10-13-46.535960
55	3	1	2	56	stable	1	200	56	sv	red	blue	red	blue	left	right	0.7	0.30000000000000004	2	4	1.4	1.2000000000000002	1	0	0.7	0.30000000000000004	2	4	1.4	1.2000000000000002	valid	0.433225737999237	51200.0	0	0.0	1.0	51200	1	51200	1	53248	0	0.7	51200	red	blue	0	2	ml	2.7.3	bip	sub-03_ses-01_task-ml_proj-bip_2020-10-27-10-13-46.535960
56	3	1	2	57	stable	1	200	57	sv	blue	red	red	blue	right	left	0.7	0.30000000000000004	4	6	2.8	1.8000000000000005	1	0	0.30000000000000004	0.7	6	4	1.8000000000000005	2.8	valid	0.466565040000205	53248.0	0	1.0	1.0	53248	1	53248	1	51200	0	0.7	53248	red	blue	0	4	ml	2.7.3	bip	sub-03_ses-01_task-ml_proj-bip_2020-10-27-10-13-46.535960
57	3	1	2	58	stable	1	200	58	sv	red	blue	red	blue	left	right	0.7	0.30000000000000004	2	10	1.4	3.0000000000000004	1	0	0.7	0.30000000000000004	2	10	1.4	3.0000000000000004	valid	0.4832192570011102	51200.0	0	0.0	1.0	53248	0	51200	1	53248	0	0.7	51200	red	blue	0	2	ml	2.7.3	bip	sub-03_ses-01_task-ml_proj-bip_2020-10-27-10-13-46.535960
58	3	1	2	59	stable	1	200	59	sv	blue	red	red	blue	right	left	0.7	0.30000000000000004	4	2	2.8	0.6000000000000001	1	0	0.30000000000000004	0.7	2	4	0.6000000000000001	2.8	valid	0.44989325999995344	51200.0	0	0.0	2.0	53248	0	53248	0	53248	0	0.7	53248	red	blue	1	0	ml	2.7.3	bip	sub-03_ses-01_task-ml_proj-bip_2020-10-27-10-13-46.535960
59	3	1	2	60	stable	1	200	60	sv	red	blue	red	blue	left	right	0.7	0.30000000000000004	4	2	2.8	0.6000000000000001	1	0	0.7	0.30000000000000004	4	2	2.8	0.6000000000000001	valid	0.44989456700022856	51200.0	0	0.0	1.0	51200	1	51200	1	51200	1	0.7	51200	red	blue	1	4	ml	2.7.3	bip	sub-03_ses-01_task-ml_proj-bip_2020-10-27-10-13-46.535960
60	3	1	2	61	stable	1	200	61	sv	red	blue	red	blue	left	right	0.7	0.30000000000000004	6	6	4.199999999999998	1.8000000000000005	1	0	0.7	0.30000000000000004	6	6	4.199999999999998	1.8000000000000005	valid	0.5998488540008111	51200.0	0	0.0	1.0	51200	1	51200	1	53248	0	0.7	51200	red	blue	1	6	ml	2.7.3	bip	sub-03_ses-01_task-ml_proj-bip_2020-10-27-10-13-46.535960
61	3	1	2	62	stable	1	200	62	sv	blue	red	red	blue	right	left	0.7	0.30000000000000004	2	2	1.4	0.6000000000000001	1	0	0.30000000000000004	0.7	2	2	0.6000000000000001	1.4	valid	0.5332910340002854	53248.0	0	1.0	1.0	53248	1	53248	1	53248	1	0.7	53248	red	blue	0	2	ml	2.7.3	bip	sub-03_ses-01_task-ml_proj-bip_2020-10-27-10-13-46.535960
62	3	1	2	63	stable	1	200	63	sv	blue	red	red	blue	right	left	0.7	0.30000000000000004	2	10	1.4	3.0000000000000004	1	0	0.30000000000000004	0.7	10	2	3.0000000000000004	1.4	valid	0.7497995209996589	51200.0	0	0.0	2.0	51200	1	53248	0	51200	1	0.7	53248	red	blue	0	0	ml	2.7.3	bip	sub-03_ses-01_task-ml_proj-bip_2020-10-27-10-13-46.535960
63	3	1	2	64	stable	1	200	64	sv	blue	red	red	blue	right	left	0.7	0.30000000000000004	2	6	1.4	1.8000000000000005	1	0	0.30000000000000004	0.7	6	2	1.8000000000000005	1.4	valid	1.349637999999686	53248.0	0	1.0	1.0	51200	0	53248	1	51200	0	0.7	53248	red	blue	0	2	ml	2.7.3	bip	sub-03_ses-01_task-ml_proj-bip_2020-10-27-10-13-46.535960
64	3	1	2	65	stable	1	200	65	sv	blue	red	red	blue	right	left	0.7	0.30000000000000004	2	4	1.4	1.2000000000000002	1	0	0.30000000000000004	0.7	4	2	1.2000000000000002	1.4	valid	0.8331233230001089	53248.0	0	1.0	1.0	53248	1	53248	1	51200	0	0.7	53248	red	blue	0	2	ml	2.7.3	bip	sub-03_ses-01_task-ml_proj-bip_2020-10-27-10-13-46.535960
65	3	1	2	66	stable	1	200	66	sv	blue	red	red	blue	right	left	0.7	0.30000000000000004	6	2	4.199999999999998	0.6000000000000001	1	0	0.30000000000000004	0.7	2	6	0.6000000000000001	4.199999999999998	valid	0.5665323339999304	53248.0	0	1.0	1.0	53248	1	53248	1	53248	1	0.7	53248	red	blue	1	6	ml	2.7.3	bip	sub-03_ses-01_task-ml_proj-bip_2020-10-27-10-13-46.535960
66	3	1	2	67	stable	1	200	67	sv	red	blue	red	blue	left	right	0.7	0.30000000000000004	6	6	4.199999999999998	1.8000000000000005	1	0	0.7	0.30000000000000004	6	6	4.199999999999998	1.8000000000000005	valid	0.6498331109996798	51200.0	0	0.0	1.0	51200	1	51200	1	53248	0	0.7	51200	red	blue	1	6	ml	2.7.3	bip	sub-03_ses-01_task-ml_proj-bip_2020-10-27-10-13-46.535960
67	3	1	2	68	stable	1	200	68	sv	blue	red	red	blue	right	left	0.7	0.30000000000000004	2	6	1.4	1.8000000000000005	1	0	0.30000000000000004	0.7	6	2	1.8000000000000005	1.4	valid	0.4665650059996551	53248.0	0	1.0	1.0	51200	0	53248	1	51200	0	0.7	53248	red	blue	0	2	ml	2.7.3	bip	sub-03_ses-01_task-ml_proj-bip_2020-10-27-10-13-46.535960
68	3	1	2	69	stable	1	200	69	sv	red	blue	red	blue	left	right	0.7	0.30000000000000004	4	6	2.8	1.8000000000000005	0	1	0.7	0.30000000000000004	4	6	2.8	1.8000000000000005	invalid	0.366585017000034	51200.0	0	0.0	1.0	51200	1	51200	1	53248	0	0.7	51200	red	blue	0	0	ml	2.7.3	bip	sub-03_ses-01_task-ml_proj-bip_2020-10-27-10-13-46.535960
69	3	1	2	70	stable	1	200	70	sv	red	blue	red	blue	left	right	0.7	0.30000000000000004	10	2	7.0	0.6000000000000001	0	1	0.7	0.30000000000000004	10	2	7.0	0.6000000000000001	invalid	0.4832153909992485	51200.0	0	0.0	1.0	51200	1	51200	1	51200	1	0.7	51200	red	blue	1	0	ml	2.7.3	bip	sub-03_ses-01_task-ml_proj-bip_2020-10-27-10-13-46.535960
70	3	1	2	71	stable	1	200	71	sv	blue	red	red	blue	right	left	0.7	0.30000000000000004	6	6	4.199999999999998	1.8000000000000005	0	1	0.30000000000000004	0.7	6	6	1.8000000000000005	4.199999999999998	invalid	0.4665551380003308	51200.0	0	0.0	2.0	53248	0	53248	0	53248	0	0.7	53248	red	blue	0	6	ml	2.7.3	bip	sub-03_ses-01_task-ml_proj-bip_2020-10-27-10-13-46.535960
71	3	1	2	72	stable	1	200	72	sv	red	blue	red	blue	left	right	0.7	0.30000000000000004	6	4	4.199999999999998	1.2000000000000002	1	0	0.7	0.30000000000000004	6	4	4.199999999999998	1.2000000000000002	valid	0.31661333900046884	53248.0	0	1.0	2.0	51200	0	51200	0	51200	0	0.7	51200	red	blue	1	0	ml	2.7.3	bip	sub-03_ses-01_task-ml_proj-bip_2020-10-27-10-13-46.535960
72	3	1	2	73	stable	1	200	73	sv	red	blue	red	blue	left	right	0.7	0.30000000000000004	2	4	1.4	1.2000000000000002	1	0	0.7	0.30000000000000004	2	4	1.4	1.2000000000000002	valid	0.4665780690011161	53248.0	0	1.0	2.0	51200	0	51200	0	53248	1	0.7	51200	red	blue	0	0	ml	2.7.3	bip	sub-03_ses-01_task-ml_proj-bip_2020-10-27-10-13-46.535960
73	3	1	2	74	stable	1	200	74	sv	blue	red	red	blue	right	left	0.7	0.30000000000000004	6	6	4.199999999999998	1.8000000000000005	0	1	0.30000000000000004	0.7	6	6	1.8000000000000005	4.199999999999998	invalid	0.44990039199910825	53248.0	0	1.0	1.0	53248	1	53248	1	53248	1	0.7	53248	red	blue	0	0	ml	2.7.3	bip	sub-03_ses-01_task-ml_proj-bip_2020-10-27-10-13-46.535960
74	3	1	2	75	stable	1	200	75	sv	red	blue	red	blue	left	right	0.7	0.30000000000000004	4	2	2.8	0.6000000000000001	0	1	0.7	0.30000000000000004	4	2	2.8	0.6000000000000001	invalid	0.33325909599989245	51200.0	0	0.0	1.0	51200	1	51200	1	51200	1	0.7	51200	red	blue	1	0	ml	2.7.3	bip	sub-03_ses-01_task-ml_proj-bip_2020-10-27-10-13-46.535960
75	3	1	2	76	stable	1	200	76	sv	blue	red	red	blue	right	left	0.7	0.30000000000000004	4	2	2.8	0.6000000000000001	1	0	0.30000000000000004	0.7	2	4	0.6000000000000001	2.8	valid	0.4665764960009256	53248.0	0	1.0	1.0	53248	1	53248	1	53248	1	0.7	53248	red	blue	1	4	ml	2.7.3	bip	sub-03_ses-01_task-ml_proj-bip_2020-10-27-10-13-46.535960
76	3	1	2	77	stable	1	200	77	sv	red	blue	red	blue	left	right	0.7	0.30000000000000004	2	6	1.4	1.8000000000000005	1	0	0.7	0.30000000000000004	2	6	1.4	1.8000000000000005	valid	0.4832165679999889	51200.0	0	0.0	1.0	53248	0	51200	1	53248	0	0.7	51200	red	blue	0	2	ml	2.7.3	bip	sub-03_ses-01_task-ml_proj-bip_2020-10-27-10-13-46.535960
77	3	1	2	78	stable	1	200	78	sv	blue	red	red	blue	right	left	0.7	0.30000000000000004	2	2	1.4	0.6000000000000001	1	0	0.30000000000000004	0.7	2	2	0.6000000000000001	1.4	valid	0.36659452999992936	53248.0	0	1.0	1.0	53248	1	53248	1	53248	1	0.7	53248	red	blue	0	2	ml	2.7.3	bip	sub-03_ses-01_task-ml_proj-bip_2020-10-27-10-13-46.535960
78	3	1	2	79	stable	1	200	79	sv	red	blue	red	blue	left	right	0.7	0.30000000000000004	6	2	4.199999999999998	0.6000000000000001	0	1	0.7	0.30000000000000004	6	2	4.199999999999998	0.6000000000000001	invalid	1.2329961900013586	51200.0	0	0.0	1.0	51200	1	51200	1	51200	1	0.7	51200	red	blue	1	0	ml	2.7.3	bip	sub-03_ses-01_task-ml_proj-bip_2020-10-27-10-13-46.535960
79	3	1	2	80	stable	1	200	80	sv	blue	red	red	blue	right	left	0.7	0.30000000000000004	4	2	2.8	0.6000000000000001	0	1	0.30000000000000004	0.7	2	4	0.6000000000000001	2.8	invalid	0.699817628999881	51200.0	0	0.0	2.0	53248	0	53248	0	53248	0	0.7	53248	red	blue	1	2	ml	2.7.3	bip	sub-03_ses-01_task-ml_proj-bip_2020-10-27-10-13-46.535960
80	3	1	2	81	stable	1	200	81	sv	red	blue	red	blue	left	right	0.7	0.30000000000000004	4	2	2.8	0.6000000000000001	0	1	0.7	0.30000000000000004	4	2	2.8	0.6000000000000001	invalid	1.1496998319998966	53248.0	0	1.0	2.0	51200	0	51200	0	51200	0	0.7	51200	red	blue	1	2	ml	2.7.3	bip	sub-03_ses-01_task-ml_proj-bip_2020-10-27-10-13-46.535960
81	3	1	2	82	stable	1	200	82	sv	red	blue	red	blue	left	right	0.7	0.30000000000000004	2	2	1.4	0.6000000000000001	1	0	0.7	0.30000000000000004	2	2	1.4	0.6000000000000001	valid	1.4162875050005823	53248.0	0	1.0	2.0	51200	0	51200	0	53248	1	0.7	51200	red	blue	1	0	ml	2.7.3	bip	sub-03_ses-01_task-ml_proj-bip_2020-10-27-10-13-46.535960
82	3	1	2	83	stable	1	200	83	sv	red	blue	red	blue	left	right	0.7	0.30000000000000004	4	2	2.8	0.6000000000000001	1	0	0.7	0.30000000000000004	4	2	2.8	0.6000000000000001	valid	1.0330639969997721	53248.0	0	1.0	2.0	51200	0	51200	0	51200	0	0.7	51200	red	blue	1	0	ml	2.7.3	bip	sub-03_ses-01_task-ml_proj-bip_2020-10-27-10-13-46.535960
83	3	1	2	84	stable	1	200	84	sv	red	blue	red	blue	left	right	0.7	0.30000000000000004	2	6	1.4	1.8000000000000005	0	1	0.7	0.30000000000000004	2	6	1.4	1.8000000000000005	invalid	0.7164793249994545	53248.0	0	1.0	2.0	53248	1	51200	0	53248	1	0.7	51200	red	blue	0	6	ml	2.7.3	bip	sub-03_ses-01_task-ml_proj-bip_2020-10-27-10-13-46.535960
84	3	1	2	85	stable	1	200	85	sv	blue	red	red	blue	right	left	0.7	0.30000000000000004	10	2	7.0	0.6000000000000001	1	0	0.30000000000000004	0.7	2	10	0.6000000000000001	7.0	valid	0.6831656960002874	53248.0	0	1.0	1.0	53248	1	53248	1	53248	1	0.7	53248	red	blue	1	10	ml	2.7.3	bip	sub-03_ses-01_task-ml_proj-bip_2020-10-27-10-13-46.535960
85	3	1	2	86	stable	1	200	86	sv	blue	red	red	blue	right	left	0.7	0.30000000000000004	10	2	7.0	0.6000000000000001	0	1	0.30000000000000004	0.7	2	10	0.6000000000000001	7.0	invalid	0.4499110260003363	53248.0	0	1.0	1.0	53248	1	53248	1	53248	1	0.7	53248	red	blue	1	0	ml	2.7.3	bip	sub-03_ses-01_task-ml_proj-bip_2020-10-27-10-13-46.535960
86	3	1	2	87	stable	1	200	87	sv	red	blue	red	blue	left	right	0.7	0.30000000000000004	2	2	1.4	0.6000000000000001	0	1	0.7	0.30000000000000004	2	2	1.4	0.6000000000000001	invalid	0.5665208860009443	51200.0	0	0.0	1.0	51200	1	51200	1	53248	0	0.7	51200	red	blue	1	0	ml	2.7.3	bip	sub-03_ses-01_task-ml_proj-bip_2020-10-27-10-13-46.535960
87	3	1	2	88	stable	1	200	88	sv	blue	red	red	blue	right	left	0.7	0.30000000000000004	6	2	4.199999999999998	0.6000000000000001	1	0	0.30000000000000004	0.7	2	6	0.6000000000000001	4.199999999999998	valid	0.5498652440001024	51200.0	0	0.0	2.0	53248	0	53248	0	53248	0	0.7	53248	red	blue	1	0	ml	2.7.3	bip	sub-03_ses-01_task-ml_proj-bip_2020-10-27-10-13-46.535960
88	3	1	2	89	stable	1	200	89	sv	red	blue	red	blue	left	right	0.7	0.30000000000000004	4	2	2.8	0.6000000000000001	0	1	0.7	0.30000000000000004	4	2	2.8	0.6000000000000001	invalid	0.5498743250009284	53248.0	0	1.0	2.0	51200	0	51200	0	51200	0	0.7	51200	red	blue	1	2	ml	2.7.3	bip	sub-03_ses-01_task-ml_proj-bip_2020-10-27-10-13-46.535960
89	3	1	2	90	stable	1	200	90	sv	blue	red	red	blue	right	left	0.7	0.30000000000000004	6	6	4.199999999999998	1.8000000000000005	1	0	0.30000000000000004	0.7	6	6	1.8000000000000005	4.199999999999998	valid	0.5498635669991927	51200.0	0	0.0	2.0	53248	0	53248	0	53248	0	0.7	53248	red	blue	0	0	ml	2.7.3	bip	sub-03_ses-01_task-ml_proj-bip_2020-10-27-10-13-46.535960
90	3	1	2	91	stable	1	200	91	sv	red	blue	red	blue	left	right	0.7	0.30000000000000004	6	4	4.199999999999998	1.2000000000000002	0	1	0.7	0.30000000000000004	6	4	4.199999999999998	1.2000000000000002	invalid	0.4998791520010855	51200.0	0	0.0	1.0	51200	1	51200	1	51200	1	0.7	51200	red	blue	1	0	ml	2.7.3	bip	sub-03_ses-01_task-ml_proj-bip_2020-10-27-10-13-46.535960
91	3	1	2	92	stable	1	200	92	sv	blue	red	red	blue	right	left	0.7	0.30000000000000004	6	2	4.199999999999998	0.6000000000000001	0	1	0.30000000000000004	0.7	2	6	0.6000000000000001	4.199999999999998	invalid	1.1663570250002522	53248.0	0	1.0	1.0	53248	1	53248	1	53248	1	0.7	53248	red	blue	1	0	ml	2.7.3	bip	sub-03_ses-01_task-ml_proj-bip_2020-10-27-10-13-46.535960
92	3	1	2	93	stable	1	200	93	sv	red	blue	red	blue	left	right	0.7	0.30000000000000004	2	6	1.4	1.8000000000000005	0	1	0.7	0.30000000000000004	2	6	1.4	1.8000000000000005	invalid	0.8830973579988495	51200.0	0	0.0	1.0	53248	0	51200	1	53248	0	0.7	51200	red	blue	0	0	ml	2.7.3	bip	sub-03_ses-01_task-ml_proj-bip_2020-10-27-10-13-46.535960
93	3	1	2	94	stable	1	200	94	sv	red	blue	red	blue	left	right	0.7	0.30000000000000004	2	6	1.4	1.8000000000000005	1	0	0.7	0.30000000000000004	2	6	1.4	1.8000000000000005	valid	0.4832165679999889	51200.0	0	0.0	1.0	53248	0	51200	1	53248	0	0.7	51200	red	blue	0	2	ml	2.7.3	bip	sub-03_ses-01_task-ml_proj-bip_2020-10-27-10-13-46.535960
94	3	1	2	95	stable	1	200	95	sv	red	blue	red	blue	left	right	0.7	0.30000000000000004	6	2	4.199999999999998	0.6000000000000001	1	0	0.7	0.30000000000000004	6	2	4.199999999999998	0.6000000000000001	valid	0.5332092080006987	51200.0	0	0.0	1.0	51200	1	51200	1	51200	1	0.7	51200	red	blue	1	6	ml	2.7.3	bip	sub-03_ses-01_task-ml_proj-bip_2020-10-27-10-13-46.535960
95	3	1	2	96	stable	1	200	96	sv	blue	red	red	blue	right	left	0.7	0.30000000000000004	6	4	4.199999999999998	1.2000000000000002	0	1	0.30000000000000004	0.7	4	6	1.2000000000000002	4.199999999999998	invalid	0.5332168330005516	53248.0	0	1.0	1.0	53248	1	53248	1	53248	1	0.7	53248	red	blue	1	0	ml	2.7.3	bip	sub-03_ses-01_task-ml_proj-bip_2020-10-27-10-13-46.535960
96	3	1	2	97	stable	1	200	97	sv	red	blue	red	blue	left	right	0.7	0.30000000000000004	2	2	1.4	0.6000000000000001	1	0	0.7	0.30000000000000004	2	2	1.4	0.6000000000000001	valid	0.7498089090004214	51200.0	0	0.0	1.0	51200	1	51200	1	53248	0	0.7	51200	red	blue	1	2	ml	2.7.3	bip	sub-03_ses-01_task-ml_proj-bip_2020-10-27-10-13-46.535960
97	3	1	2	98	stable	1	200	98	sv	red	blue	red	blue	left	right	0.7	0.30000000000000004	2	2	1.4	0.6000000000000001	1	0	0.7	0.30000000000000004	2	2	1.4	0.6000000000000001	valid	0.5332026220003172	51200.0	0	0.0	1.0	51200	1	51200	1	53248	0	0.7	51200	red	blue	1	2	ml	2.7.3	bip	sub-03_ses-01_task-ml_proj-bip_2020-10-27-10-13-46.535960
98	3	1	2	99	stable	1	200	99	sv	red	blue	red	blue	left	right	0.7	0.30000000000000004	2	10	1.4	3.0000000000000004	0	1	0.7	0.30000000000000004	2	10	1.4	3.0000000000000004	invalid	0.5165386839998973	51200.0	0	0.0	1.0	53248	0	51200	1	53248	0	0.7	51200	red	blue	0	0	ml	2.7.3	bip	sub-03_ses-01_task-ml_proj-bip_2020-10-27-10-13-46.535960
99	3	1	2	100	stable	1	200	100	sv	red	blue	red	blue	left	right	0.7	0.30000000000000004	10	2	7.0	0.6000000000000001	0	1	0.7	0.30000000000000004	10	2	7.0	0.6000000000000001	invalid	0.666495338000459	51200.0	0	0.0	1.0	51200	1	51200	1	51200	1	0.7	51200	red	blue	1	0	ml	2.7.3	bip	sub-03_ses-01_task-ml_proj-bip_2020-10-27-10-13-46.535960
100	3	1	3	101	stable	1	200	101	sv	red	blue	red	blue	left	right	0.7	0.30000000000000004	2	2	1.4	0.6000000000000001	1	0	0.7	0.30000000000000004	2	2	1.4	0.6000000000000001	valid	1.3996206640003948	53248.0	0	1.0	2.0	51200	0	51200	0	53248	1	0.7	51200	red	blue	1	0	ml	2.7.3	bip	sub-03_ses-01_task-ml_proj-bip_2020-10-27-10-13-46.535960
101	3	1	3	102	stable	1	200	102	sv	red	blue	red	blue	left	right	0.7	0.30000000000000004	2	10	1.4	3.0000000000000004	1	0	0.7	0.30000000000000004	2	10	1.4	3.0000000000000004	valid	0.4665550440004154	51200.0	0	0.0	1.0	53248	0	51200	1	53248	0	0.7	51200	red	blue	0	2	ml	2.7.3	bip	sub-03_ses-01_task-ml_proj-bip_2020-10-27-10-13-46.535960
102	3	1	3	103	stable	1	200	103	sv	red	blue	red	blue	left	right	0.7	0.30000000000000004	2	6	1.4	1.8000000000000005	1	0	0.7	0.30000000000000004	2	6	1.4	1.8000000000000005	valid	0.4832130340000731	51200.0	0	0.0	1.0	53248	0	51200	1	53248	0	0.7	51200	red	blue	0	2	ml	2.7.3	bip	sub-03_ses-01_task-ml_proj-bip_2020-10-27-10-13-46.535960
103	3	1	3	104	stable	1	200	104	sv	blue	red	red	blue	right	left	0.7	0.30000000000000004	2	10	1.4	3.0000000000000004	1	0	0.30000000000000004	0.7	10	2	3.0000000000000004	1.4	valid	0.7831385480003519	53248.0	0	1.0	1.0	51200	0	53248	1	51200	0	0.7	53248	red	blue	0	2	ml	2.7.3	bip	sub-03_ses-01_task-ml_proj-bip_2020-10-27-10-13-46.535960
104	3	1	3	105	stable	1	200	105	sv	red	blue	red	blue	left	right	0.7	0.30000000000000004	2	6	1.4	1.8000000000000005	1	0	0.7	0.30000000000000004	2	6	1.4	1.8000000000000005	valid	0.38324547900083417	51200.0	0	0.0	1.0	53248	0	51200	1	53248	0	0.7	51200	red	blue	0	2	ml	2.7.3	bip	sub-03_ses-01_task-ml_proj-bip_2020-10-27-10-13-46.535960
105	3	1	3	106	stable	1	200	106	sv	red	blue	red	blue	left	right	0.7	0.30000000000000004	6	4	4.199999999999998	1.2000000000000002	1	0	0.7	0.30000000000000004	6	4	4.199999999999998	1.2000000000000002	valid	0.5332060019991332	51200.0	0	0.0	1.0	51200	1	51200	1	51200	1	0.7	51200	red	blue	1	6	ml	2.7.3	bip	sub-03_ses-01_task-ml_proj-bip_2020-10-27-10-13-46.535960
106	3	1	3	107	stable	1	200	107	sv	blue	red	red	blue	right	left	0.7	0.30000000000000004	4	2	2.8	0.6000000000000001	1	0	0.30000000000000004	0.7	2	4	0.6000000000000001	2.8	valid	0.41658146000008855	53248.0	0	1.0	1.0	53248	1	53248	1	53248	1	0.7	53248	red	blue	1	4	ml	2.7.3	bip	sub-03_ses-01_task-ml_proj-bip_2020-10-27-10-13-46.535960
107	3	1	3	108	stable	1	200	108	sv	blue	red	red	blue	right	left	0.7	0.30000000000000004	4	6	2.8	1.8000000000000005	1	0	0.30000000000000004	0.7	6	4	1.8000000000000005	2.8	valid	0.48322807899967296	53248.0	0	1.0	1.0	53248	1	53248	1	51200	0	0.7	53248	red	blue	0	4	ml	2.7.3	bip	sub-03_ses-01_task-ml_proj-bip_2020-10-27-10-13-46.535960
108	3	1	3	109	stable	1	200	109	sv	blue	red	red	blue	right	left	0.7	0.30000000000000004	6	4	4.199999999999998	1.2000000000000002	0	1	0.30000000000000004	0.7	4	6	1.2000000000000002	4.199999999999998	invalid	0.4165842750007869	53248.0	0	1.0	1.0	53248	1	53248	1	53248	1	0.7	53248	red	blue	1	0	ml	2.7.3	bip	sub-03_ses-01_task-ml_proj-bip_2020-10-27-10-13-46.535960
109	3	1	3	110	stable	1	200	110	sv	red	blue	red	blue	left	right	0.7	0.30000000000000004	6	2	4.199999999999998	0.6000000000000001	0	1	0.7	0.30000000000000004	6	2	4.199999999999998	0.6000000000000001	invalid	1.5829054360001464	53248.0	0	1.0	2.0	51200	0	51200	0	51200	0	0.7	51200	red	blue	1	2	ml	2.7.3	bip	sub-03_ses-01_task-ml_proj-bip_2020-10-27-10-13-46.535960
110	3	1	3	111	stable	1	200	111	sv	red	blue	red	blue	left	right	0.7	0.30000000000000004	10	2	7.0	0.6000000000000001	1	0	0.7	0.30000000000000004	10	2	7.0	0.6000000000000001	valid	0.6165216289991804	53248.0	0	1.0	2.0	51200	0	51200	0	51200	0	0.7	51200	red	blue	1	0	ml	2.7.3	bip	sub-03_ses-01_task-ml_proj-bip_2020-10-27-10-13-46.535960
111	3	1	3	112	stable	1	200	112	sv	blue	red	red	blue	right	left	0.7	0.30000000000000004	6	2	4.199999999999998	0.6000000000000001	1	0	0.30000000000000004	0.7	2	6	0.6000000000000001	4.199999999999998	valid	0.7331425569991552	51200.0	0	0.0	2.0	53248	0	53248	0	53248	0	0.7	53248	red	blue	1	0	ml	2.7.3	bip	sub-03_ses-01_task-ml_proj-bip_2020-10-27-10-13-46.535960
112	3	1	3	113	stable	1	200	113	sv	blue	red	red	blue	right	left	0.7	0.30000000000000004	10	2	7.0	0.6000000000000001	1	0	0.30000000000000004	0.7	2	10	0.6000000000000001	7.0	valid	0.4665674069983652	53248.0	0	1.0	1.0	53248	1	53248	1	53248	1	0.7	53248	red	blue	1	10	ml	2.7.3	bip	sub-03_ses-01_task-ml_proj-bip_2020-10-27-10-13-46.535960
113	3	1	3	114	stable	1	200	114	sv	blue	red	red	blue	right	left	0.7	0.30000000000000004	2	4	1.4	1.2000000000000002	1	0	0.30000000000000004	0.7	4	2	1.2000000000000002	1.4	valid	0.5332135450007627	53248.0	0	1.0	1.0	53248	1	53248	1	51200	0	0.7	53248	red	blue	0	2	ml	2.7.3	bip	sub-03_ses-01_task-ml_proj-bip_2020-10-27-10-13-46.535960
114	3	1	3	115	stable	1	200	115	sv	red	blue	red	blue	left	right	0.7	0.30000000000000004	6	2	4.199999999999998	0.6000000000000001	1	0	0.7	0.30000000000000004	6	2	4.199999999999998	0.6000000000000001	valid	0.6831592430007731	51200.0	0	0.0	1.0	51200	1	51200	1	51200	1	0.7	51200	red	blue	1	6	ml	2.7.3	bip	sub-03_ses-01_task-ml_proj-bip_2020-10-27-10-13-46.535960
115	3	1	3	116	stable	1	200	116	sv	blue	red	red	blue	right	left	0.7	0.30000000000000004	2	6	1.4	1.8000000000000005	1	0	0.30000000000000004	0.7	6	2	1.8000000000000005	1.4	valid	0.6831584350002231	53248.0	0	1.0	1.0	51200	0	53248	1	51200	0	0.7	53248	red	blue	0	2	ml	2.7.3	bip	sub-03_ses-01_task-ml_proj-bip_2020-10-27-10-13-46.535960
116	3	1	3	117	stable	1	200	117	sv	red	blue	red	blue	left	right	0.7	0.30000000000000004	6	4	4.199999999999998	1.2000000000000002	0	1	0.7	0.30000000000000004	6	4	4.199999999999998	1.2000000000000002	invalid	0.6165088840007229	51200.0	0	0.0	1.0	51200	1	51200	1	51200	1	0.7	51200	red	blue	1	0	ml	2.7.3	bip	sub-03_ses-01_task-ml_proj-bip_2020-10-27-10-13-46.535960
117	3	1	3	118	stable	1	200	118	sv	red	blue	red	blue	left	right	0.7	0.30000000000000004	10	2	7.0	0.6000000000000001	1	0	0.7	0.30000000000000004	10	2	7.0	0.6000000000000001	valid	0.7498057039993	51200.0	0	0.0	1.0	51200	1	51200	1	51200	1	0.7	51200	red	blue	1	10	ml	2.7.3	bip	sub-03_ses-01_task-ml_proj-bip_2020-10-27-10-13-46.535960
118	3	1	3	119	stable	1	200	119	sv	red	blue	red	blue	left	right	0.7	0.30000000000000004	2	2	1.4	0.6000000000000001	1	0	0.7	0.30000000000000004	2	2	1.4	0.6000000000000001	valid	1.0497181859991542	51200.0	0	0.0	1.0	51200	1	51200	1	53248	0	0.7	51200	red	blue	1	2	ml	2.7.3	bip	sub-03_ses-01_task-ml_proj-bip_2020-10-27-10-13-46.535960
119	3	1	3	120	stable	1	200	120	sv	blue	red	red	blue	right	left	0.7	0.30000000000000004	10	2	7.0	0.6000000000000001	1	0	0.30000000000000004	0.7	2	10	0.6000000000000001	7.0	valid	0.6998363190014061	53248.0	0	1.0	1.0	53248	1	53248	1	53248	1	0.7	53248	red	blue	1	10	ml	2.7.3	bip	sub-03_ses-01_task-ml_proj-bip_2020-10-27-10-13-46.535960
120	3	1	3	121	stable	1	200	121	sv	red	blue	red	blue	left	right	0.7	0.30000000000000004	2	2	1.4	0.6000000000000001	1	0	0.7	0.30000000000000004	2	2	1.4	0.6000000000000001	valid	0.749802845000886	51200.0	0	0.0	1.0	51200	1	51200	1	53248	0	0.7	51200	red	blue	1	2	ml	2.7.3	bip	sub-03_ses-01_task-ml_proj-bip_2020-10-27-10-13-46.535960
121	3	1	3	122	stable	1	200	122	sv	red	blue	red	blue	left	right	0.7	0.30000000000000004	4	6	2.8	1.8000000000000005	1	0	0.7	0.30000000000000004	4	6	2.8	1.8000000000000005	valid	1.0997024210009843	53248.0	0	1.0	2.0	51200	0	51200	0	53248	1	0.7	51200	red	blue	0	0	ml	2.7.3	bip	sub-03_ses-01_task-ml_proj-bip_2020-10-27-10-13-46.535960
122	3	1	3	123	stable	1	200	123	sv	blue	red	red	blue	right	left	0.7	0.30000000000000004	6	4	4.199999999999998	1.2000000000000002	0	1	0.30000000000000004	0.7	4	6	1.2000000000000002	4.199999999999998	invalid	0.3165993440015882	51200.0	0	0.0	2.0	53248	0	53248	0	53248	0	0.7	53248	red	blue	1	4	ml	2.7.3	bip	sub-03_ses-01_task-ml_proj-bip_2020-10-27-10-13-46.535960
123	3	1	3	124	stable	1	200	124	sv	red	blue	red	blue	left	right	0.7	0.30000000000000004	4	2	2.8	0.6000000000000001	0	1	0.7	0.30000000000000004	4	2	2.8	0.6000000000000001	invalid	0.9331021389989472	53248.0	0	1.0	2.0	51200	0	51200	0	51200	0	0.7	51200	red	blue	1	2	ml	2.7.3	bip	sub-03_ses-01_task-ml_proj-bip_2020-10-27-10-13-46.535960
124	3	1	3	125	stable	1	200	125	sv	red	blue	red	blue	left	right	0.7	0.30000000000000004	2	4	1.4	1.2000000000000002	0	1	0.7	0.30000000000000004	2	4	1.4	1.2000000000000002	invalid	0.7664740510008414	53248.0	0	1.0	2.0	51200	0	51200	0	53248	1	0.7	51200	red	blue	0	4	ml	2.7.3	bip	sub-03_ses-01_task-ml_proj-bip_2020-10-27-10-13-46.535960
125	3	1	3	126	stable	1	200	126	sv	blue	red	red	blue	right	left	0.7	0.30000000000000004	6	6	4.199999999999998	1.8000000000000005	0	1	0.30000000000000004	0.7	6	6	1.8000000000000005	4.199999999999998	invalid	0.516538871001103	51200.0	0	0.0	2.0	53248	0	53248	0	53248	0	0.7	53248	red	blue	0	6	ml	2.7.3	bip	sub-03_ses-01_task-ml_proj-bip_2020-10-27-10-13-46.535960
126	3	1	3	127	stable	1	200	127	sv	blue	red	red	blue	right	left	0.7	0.30000000000000004	2	4	1.4	1.2000000000000002	1	0	0.30000000000000004	0.7	4	2	1.2000000000000002	1.4	valid	0.4998671499997727	51200.0	0	0.0	2.0	53248	0	53248	0	51200	1	0.7	53248	red	blue	0	0	ml	2.7.3	bip	sub-03_ses-01_task-ml_proj-bip_2020-10-27-10-13-46.535960
127	3	1	3	128	stable	1	200	128	sv	blue	red	red	blue	right	left	0.7	0.30000000000000004	2	10	1.4	3.0000000000000004	0	1	0.30000000000000004	0.7	10	2	3.0000000000000004	1.4	invalid	0.4665483219996531	51200.0	0	0.0	2.0	51200	1	53248	0	51200	1	0.7	53248	red	blue	0	10	ml	2.7.3	bip	sub-03_ses-01_task-ml_proj-bip_2020-10-27-10-13-46.535960
128	3	1	3	129	stable	1	200	129	sv	red	blue	red	blue	left	right	0.7	0.30000000000000004	2	10	1.4	3.0000000000000004	0	1	0.7	0.30000000000000004	2	10	1.4	3.0000000000000004	invalid	0.4165785559998767	53248.0	0	1.0	2.0	53248	1	51200	0	53248	1	0.7	51200	red	blue	0	10	ml	2.7.3	bip	sub-03_ses-01_task-ml_proj-bip_2020-10-27-10-13-46.535960
129	3	1	3	130	stable	1	200	130	sv	red	blue	red	blue	left	right	0.7	0.30000000000000004	6	6	4.199999999999998	1.8000000000000005	1	0	0.7	0.30000000000000004	6	6	4.199999999999998	1.8000000000000005	valid	0.6998291399995651	53248.0	0	1.0	2.0	51200	0	51200	0	53248	1	0.7	51200	red	blue	1	0	ml	2.7.3	bip	sub-03_ses-01_task-ml_proj-bip_2020-10-27-10-13-46.535960
130	3	1	3	131	stable	1	200	131	sv	red	blue	red	blue	left	right	0.7	0.30000000000000004	6	4	4.199999999999998	1.2000000000000002	1	0	0.7	0.30000000000000004	6	4	4.199999999999998	1.2000000000000002	valid	0.3499200860005658	51200.0	0	0.0	1.0	51200	1	51200	1	51200	1	0.7	51200	red	blue	1	6	ml	2.7.3	bip	sub-03_ses-01_task-ml_proj-bip_2020-10-27-10-13-46.535960
131	3	1	3	132	stable	1	200	132	sv	blue	red	red	blue	right	left	0.7	0.30000000000000004	10	2	7.0	0.6000000000000001	0	1	0.30000000000000004	0.7	2	10	0.6000000000000001	7.0	invalid	0.4832259220002016	53248.0	0	1.0	1.0	53248	1	53248	1	53248	1	0.7	53248	red	blue	1	0	ml	2.7.3	bip	sub-03_ses-01_task-ml_proj-bip_2020-10-27-10-13-46.535960
132	3	1	3	133	stable	1	200	133	sv	blue	red	red	blue	right	left	0.7	0.30000000000000004	6	2	4.199999999999998	0.6000000000000001	1	0	0.30000000000000004	0.7	2	6	0.6000000000000001	4.199999999999998	valid	0.5831966099995043	53248.0	0	1.0	1.0	53248	1	53248	1	53248	1	0.7	53248	red	blue	1	6	ml	2.7.3	bip	sub-03_ses-01_task-ml_proj-bip_2020-10-27-10-13-46.535960
133	3	1	3	134	stable	1	200	134	sv	red	blue	red	blue	left	right	0.7	0.30000000000000004	6	2	4.199999999999998	0.6000000000000001	0	1	0.7	0.30000000000000004	6	2	4.199999999999998	0.6000000000000001	invalid	0.4498912819999532	51200.0	0	0.0	1.0	51200	1	51200	1	51200	1	0.7	51200	red	blue	1	0	ml	2.7.3	bip	sub-03_ses-01_task-ml_proj-bip_2020-10-27-10-13-46.535960
134	3	1	3	135	stable	1	200	135	sv	red	blue	red	blue	left	right	0.7	0.30000000000000004	4	2	2.8	0.6000000000000001	0	1	0.7	0.30000000000000004	4	2	2.8	0.6000000000000001	invalid	0.5165412909991574	51200.0	0	0.0	1.0	51200	1	51200	1	51200	1	0.7	51200	red	blue	1	0	ml	2.7.3	bip	sub-03_ses-01_task-ml_proj-bip_2020-10-27-10-13-46.535960
135	3	1	3	136	stable	1	200	136	sv	blue	red	red	blue	right	left	0.7	0.30000000000000004	6	6	4.199999999999998	1.8000000000000005	0	1	0.30000000000000004	0.7	6	6	1.8000000000000005	4.199999999999998	invalid	0.4665522759987653	51200.0	0	0.0	2.0	53248	0	53248	0	53248	0	0.7	53248	red	blue	0	6	ml	2.7.3	bip	sub-03_ses-01_task-ml_proj-bip_2020-10-27-10-13-46.535960
136	3	1	3	137	stable	1	200	137	sv	red	blue	red	blue	left	right	0.7	0.30000000000000004	2	2	1.4	0.6000000000000001	1	0	0.7	0.30000000000000004	2	2	1.4	0.6000000000000001	valid	0.7664743969999108	53248.0	0	1.0	2.0	51200	0	51200	0	53248	1	0.7	51200	red	blue	1	0	ml	2.7.3	bip	sub-03_ses-01_task-ml_proj-bip_2020-10-27-10-13-46.535960
137	3	1	3	138	stable	1	200	138	sv	blue	red	red	blue	right	left	0.7	0.30000000000000004	6	4	4.199999999999998	1.2000000000000002	1	0	0.30000000000000004	0.7	4	6	1.2000000000000002	4.199999999999998	valid	0.4332412049989216	53248.0	0	1.0	1.0	53248	1	53248	1	53248	1	0.7	53248	red	blue	1	6	ml	2.7.3	bip	sub-03_ses-01_task-ml_proj-bip_2020-10-27-10-13-46.535960
138	3	1	3	139	stable	1	200	139	sv	red	blue	red	blue	left	right	0.7	0.30000000000000004	6	6	4.199999999999998	1.8000000000000005	1	0	0.7	0.30000000000000004	6	6	4.199999999999998	1.8000000000000005	valid	0.6664995010014536	51200.0	0	0.0	1.0	51200	1	51200	1	53248	0	0.7	51200	red	blue	1	6	ml	2.7.3	bip	sub-03_ses-01_task-ml_proj-bip_2020-10-27-10-13-46.535960
139	3	1	3	140	stable	1	200	140	sv	blue	red	red	blue	right	left	0.7	0.30000000000000004	2	10	1.4	3.0000000000000004	1	0	0.30000000000000004	0.7	10	2	3.0000000000000004	1.4	valid	1.2163457999995444	53248.0	0	1.0	1.0	51200	0	53248	1	51200	0	0.7	53248	red	blue	0	2	ml	2.7.3	bip	sub-03_ses-01_task-ml_proj-bip_2020-10-27-10-13-46.535960
140	3	1	3	141	stable	1	200	141	sv	red	blue	red	blue	left	right	0.7	0.30000000000000004	2	2	1.4	0.6000000000000001	1	0	0.7	0.30000000000000004	2	2	1.4	0.6000000000000001	valid	0.5165374299995165	51200.0	0	0.0	1.0	51200	1	51200	1	53248	0	0.7	51200	red	blue	1	2	ml	2.7.3	bip	sub-03_ses-01_task-ml_proj-bip_2020-10-27-10-13-46.535960
141	3	1	3	142	stable	1	200	142	sv	blue	red	red	blue	right	left	0.7	0.30000000000000004	2	10	1.4	3.0000000000000004	0	1	0.30000000000000004	0.7	10	2	3.0000000000000004	1.4	invalid	1.0164005149999866	53248.0	0	1.0	1.0	51200	0	53248	1	51200	0	0.7	53248	red	blue	0	0	ml	2.7.3	bip	sub-03_ses-01_task-ml_proj-bip_2020-10-27-10-13-46.535960
142	3	1	3	143	stable	1	200	143	sv	blue	red	red	blue	right	left	0.7	0.30000000000000004	2	10	1.4	3.0000000000000004	1	0	0.30000000000000004	0.7	10	2	3.0000000000000004	1.4	valid	0.4665536229986174	51200.0	0	0.0	2.0	51200	1	53248	0	51200	1	0.7	53248	red	blue	0	0	ml	2.7.3	bip	sub-03_ses-01_task-ml_proj-bip_2020-10-27-10-13-46.535960
143	3	1	3	144	stable	1	200	144	sv	red	blue	red	blue	left	right	0.7	0.30000000000000004	6	4	4.199999999999998	1.2000000000000002	1	0	0.7	0.30000000000000004	6	4	4.199999999999998	1.2000000000000002	valid	0.34991822299889463	51200.0	0	0.0	1.0	51200	1	51200	1	51200	1	0.7	51200	red	blue	1	6	ml	2.7.3	bip	sub-03_ses-01_task-ml_proj-bip_2020-10-27-10-13-46.535960
144	3	1	3	145	stable	1	200	145	sv	blue	red	red	blue	right	left	0.7	0.30000000000000004	4	2	2.8	0.6000000000000001	1	0	0.30000000000000004	0.7	2	4	0.6000000000000001	2.8	valid	0.5332093969991547	53248.0	0	1.0	1.0	53248	1	53248	1	53248	1	0.7	53248	red	blue	1	4	ml	2.7.3	bip	sub-03_ses-01_task-ml_proj-bip_2020-10-27-10-13-46.535960
145	3	1	3	146	stable	1	200	146	sv	red	blue	red	blue	left	right	0.7	0.30000000000000004	2	2	1.4	0.6000000000000001	1	0	0.7	0.30000000000000004	2	2	1.4	0.6000000000000001	valid	0.6498347079996165	51200.0	0	0.0	1.0	51200	1	51200	1	53248	0	0.7	51200	red	blue	1	2	ml	2.7.3	bip	sub-03_ses-01_task-ml_proj-bip_2020-10-27-10-13-46.535960
146	3	1	3	147	stable	1	200	147	sv	red	blue	red	blue	left	right	0.7	0.30000000000000004	6	6	4.199999999999998	1.8000000000000005	1	0	0.7	0.30000000000000004	6	6	4.199999999999998	1.8000000000000005	valid	0.39990806999958295	51200.0	0	0.0	1.0	51200	1	51200	1	53248	0	0.7	51200	red	blue	1	6	ml	2.7.3	bip	sub-03_ses-01_task-ml_proj-bip_2020-10-27-10-13-46.535960
147	3	1	3	148	stable	1	200	148	sv	red	blue	red	blue	left	right	0.7	0.30000000000000004	2	6	1.4	1.8000000000000005	1	0	0.7	0.30000000000000004	2	6	1.4	1.8000000000000005	valid	0.9330796120011656	51200.0	0	0.0	1.0	53248	0	51200	1	53248	0	0.7	51200	red	blue	0	2	ml	2.7.3	bip	sub-03_ses-01_task-ml_proj-bip_2020-10-27-10-13-46.535960
148	3	1	3	149	stable	1	200	149	sv	red	blue	red	blue	left	right	0.7	0.30000000000000004	6	2	4.199999999999998	0.6000000000000001	0	1	0.7	0.30000000000000004	6	2	4.199999999999998	0.6000000000000001	invalid	0.7498045709999133	51200.0	0	0.0	1.0	51200	1	51200	1	51200	1	0.7	51200	red	blue	1	0	ml	2.7.3	bip	sub-03_ses-01_task-ml_proj-bip_2020-10-27-10-13-46.535960
149	3	1	3	150	stable	1	200	150	sv	blue	red	red	blue	right	left	0.7	0.30000000000000004	10	2	7.0	0.6000000000000001	1	0	0.30000000000000004	0.7	2	10	0.6000000000000001	7.0	valid	1.0497273519995358	53248.0	0	1.0	1.0	53248	1	53248	1	53248	1	0.7	53248	red	blue	1	10	ml	2.7.3	bip	sub-03_ses-01_task-ml_proj-bip_2020-10-27-10-13-46.535960
150	3	1	4	151	stable	1	200	151	sv	red	blue	red	blue	left	right	0.7	0.30000000000000004	4	2	2.8	0.6000000000000001	0	1	0.7	0.30000000000000004	4	2	2.8	0.6000000000000001	invalid	0.7498038160010765	51200.0	0	0.0	1.0	51200	1	51200	1	51200	1	0.7	51200	red	blue	1	0	ml	2.7.3	bip	sub-03_ses-01_task-ml_proj-bip_2020-10-27-10-13-46.535960
151	3	1	4	152	stable	1	200	152	sv	blue	red	red	blue	right	left	0.7	0.30000000000000004	6	4	4.199999999999998	1.2000000000000002	1	0	0.30000000000000004	0.7	4	6	1.2000000000000002	4.199999999999998	valid	0.3999017420010205	51200.0	0	0.0	2.0	53248	0	53248	0	53248	0	0.7	53248	red	blue	1	0	ml	2.7.3	bip	sub-03_ses-01_task-ml_proj-bip_2020-10-27-10-13-46.535960
152	3	1	4	153	stable	1	200	153	sv	red	blue	red	blue	left	right	0.7	0.30000000000000004	4	6	2.8	1.8000000000000005	1	0	0.7	0.30000000000000004	4	6	2.8	1.8000000000000005	valid	0.3499341429997003	53248.0	0	1.0	2.0	51200	0	51200	0	53248	1	0.7	51200	red	blue	0	0	ml	2.7.3	bip	sub-03_ses-01_task-ml_proj-bip_2020-10-27-10-13-46.535960
153	3	1	4	154	stable	1	200	154	sv	red	blue	red	blue	left	right	0.7	0.30000000000000004	6	4	4.199999999999998	1.2000000000000002	0	1	0.7	0.30000000000000004	6	4	4.199999999999998	1.2000000000000002	invalid	0.5665199899995059	51200.0	0	0.0	1.0	51200	1	51200	1	51200	1	0.7	51200	red	blue	1	0	ml	2.7.3	bip	sub-03_ses-01_task-ml_proj-bip_2020-10-27-10-13-46.535960
154	3	1	4	155	stable	1	200	155	sv	blue	red	red	blue	right	left	0.7	0.30000000000000004	2	6	1.4	1.8000000000000005	1	0	0.30000000000000004	0.7	6	2	1.8000000000000005	1.4	valid	0.4499033620013506	53248.0	0	1.0	1.0	51200	0	53248	1	51200	0	0.7	53248	red	blue	0	2	ml	2.7.3	bip	sub-03_ses-01_task-ml_proj-bip_2020-10-27-10-13-46.535960
155	3	1	4	156	stable	1	200	156	sv	blue	red	red	blue	right	left	0.7	0.30000000000000004	2	10	1.4	3.0000000000000004	1	0	0.30000000000000004	0.7	10	2	3.0000000000000004	1.4	valid	1.8994719069996788	53248.0	0	1.0	1.0	51200	0	53248	1	51200	0	0.7	53248	red	blue	0	2	ml	2.7.3	bip	sub-03_ses-01_task-ml_proj-bip_2020-10-27-10-13-46.535960
156	3	1	4	157	stable	1	200	157	sv	blue	red	red	blue	right	left	0.7	0.30000000000000004	4	2	2.8	0.6000000000000001	1	0	0.30000000000000004	0.7	2	4	0.6000000000000001	2.8	valid	0.5998610610004107	53248.0	0	1.0	1.0	53248	1	53248	1	53248	1	0.7	53248	red	blue	1	4	ml	2.7.3	bip	sub-03_ses-01_task-ml_proj-bip_2020-10-27-10-13-46.535960
157	3	1	4	158	stable	1	200	158	sv	blue	red	red	blue	right	left	0.7	0.30000000000000004	6	4	4.199999999999998	1.2000000000000002	1	0	0.30000000000000004	0.7	4	6	1.2000000000000002	4.199999999999998	valid	0.4998889550006425	53248.0	0	1.0	1.0	53248	1	53248	1	53248	1	0.7	53248	red	blue	1	6	ml	2.7.3	bip	sub-03_ses-01_task-ml_proj-bip_2020-10-27-10-13-46.535960
158	3	1	4	159	stable	1	200	159	sv	blue	red	red	blue	right	left	0.7	0.30000000000000004	2	10	1.4	3.0000000000000004	1	0	0.30000000000000004	0.7	10	2	3.0000000000000004	1.4	valid	1.1163611760002825	51200.0	0	0.0	2.0	51200	1	53248	0	51200	1	0.7	53248	red	blue	0	0	ml	2.7.3	bip	sub-03_ses-01_task-ml_proj-bip_2020-10-27-10-13-46.535960
159	3	1	4	160	stable	1	200	160	sv	blue	red	red	blue	right	left	0.7	0.30000000000000004	6	2	4.199999999999998	0.6000000000000001	1	0	0.30000000000000004	0.7	2	6	0.6000000000000001	4.199999999999998	valid	0.5165472050011886	53248.0	0	1.0	1.0	53248	1	53248	1	53248	1	0.7	53248	red	blue	1	6	ml	2.7.3	bip	sub-03_ses-01_task-ml_proj-bip_2020-10-27-10-13-46.535960
160	3	1	4	161	stable	1	200	161	sv	blue	red	red	blue	right	left	0.7	0.30000000000000004	4	6	2.8	1.8000000000000005	1	0	0.30000000000000004	0.7	6	4	1.8000000000000005	2.8	valid	1.0330605220005964	53248.0	0	1.0	1.0	53248	1	53248	1	51200	0	0.7	53248	red	blue	0	4	ml	2.7.3	bip	sub-03_ses-01_task-ml_proj-bip_2020-10-27-10-13-46.535960
161	3	1	4	162	stable	1	200	162	sv	blue	red	red	blue	right	left	0.7	0.30000000000000004	6	6	4.199999999999998	1.8000000000000005	1	0	0.30000000000000004	0.7	6	6	1.8000000000000005	4.199999999999998	valid	0.6331831600000442	53248.0	0	1.0	1.0	53248	1	53248	1	53248	1	0.7	53248	red	blue	0	6	ml	2.7.3	bip	sub-03_ses-01_task-ml_proj-bip_2020-10-27-10-13-46.535960
162	3	1	4	163	stable	1	200	163	sv	red	blue	red	blue	left	right	0.7	0.30000000000000004	10	2	7.0	0.6000000000000001	1	0	0.7	0.30000000000000004	10	2	7.0	0.6000000000000001	valid	0.5165400010009762	51200.0	0	0.0	1.0	51200	1	51200	1	51200	1	0.7	51200	red	blue	1	10	ml	2.7.3	bip	sub-03_ses-01_task-ml_proj-bip_2020-10-27-10-13-46.535960
163	3	1	4	164	stable	1	200	164	sv	red	blue	red	blue	left	right	0.7	0.30000000000000004	4	6	2.8	1.8000000000000005	1	0	0.7	0.30000000000000004	4	6	2.8	1.8000000000000005	valid	0.6165075969984173	51200.0	0	0.0	1.0	51200	1	51200	1	53248	0	0.7	51200	red	blue	0	4	ml	2.7.3	bip	sub-03_ses-01_task-ml_proj-bip_2020-10-27-10-13-46.535960
164	3	1	4	165	stable	1	200	165	sv	red	blue	red	blue	left	right	0.7	0.30000000000000004	6	4	4.199999999999998	1.2000000000000002	1	0	0.7	0.30000000000000004	6	4	4.199999999999998	1.2000000000000002	valid	0.7664323669996519	51200.0	0	0.0	1.0	51200	1	51200	1	51200	1	0.7	51200	red	blue	1	6	ml	2.7.3	bip	sub-03_ses-01_task-ml_proj-bip_2020-10-27-10-13-46.535960
165	3	1	4	166	stable	1	200	166	sv	blue	red	red	blue	right	left	0.7	0.30000000000000004	4	6	2.8	1.8000000000000005	1	0	0.30000000000000004	0.7	6	4	1.8000000000000005	2.8	valid	0.5998580190007488	53248.0	0	1.0	1.0	53248	1	53248	1	51200	0	0.7	53248	red	blue	0	4	ml	2.7.3	bip	sub-03_ses-01_task-ml_proj-bip_2020-10-27-10-13-46.535960
166	3	1	4	167	stable	1	200	167	sv	blue	red	red	blue	right	left	0.7	0.30000000000000004	6	2	4.199999999999998	0.6000000000000001	1	0	0.30000000000000004	0.7	2	6	0.6000000000000001	4.199999999999998	valid	0.4498983590001444	53248.0	0	1.0	1.0	53248	1	53248	1	53248	1	0.7	53248	red	blue	1	6	ml	2.7.3	bip	sub-03_ses-01_task-ml_proj-bip_2020-10-27-10-13-46.535960
167	3	1	4	168	stable	1	200	168	sv	blue	red	red	blue	right	left	0.7	0.30000000000000004	6	4	4.199999999999998	1.2000000000000002	1	0	0.30000000000000004	0.7	4	6	1.2000000000000002	4.199999999999998	valid	0.5998610280003049	53248.0	0	1.0	1.0	53248	1	53248	1	53248	1	0.7	53248	red	blue	1	6	ml	2.7.3	bip	sub-03_ses-01_task-ml_proj-bip_2020-10-27-10-13-46.535960
168	3	1	4	169	stable	1	200	169	sv	red	blue	red	blue	left	right	0.7	0.30000000000000004	4	6	2.8	1.8000000000000005	1	0	0.7	0.30000000000000004	4	6	2.8	1.8000000000000005	valid	1.11636080199969	51200.0	0	0.0	1.0	51200	1	51200	1	53248	0	0.7	51200	red	blue	0	4	ml	2.7.3	bip	sub-03_ses-01_task-ml_proj-bip_2020-10-27-10-13-46.535960
169	3	1	4	170	stable	1	200	170	sv	blue	red	red	blue	right	left	0.7	0.30000000000000004	2	4	1.4	1.2000000000000002	1	0	0.30000000000000004	0.7	4	2	1.2000000000000002	1.4	valid	0.5165516770011891	53248.0	0	1.0	1.0	53248	1	53248	1	51200	0	0.7	53248	red	blue	0	2	ml	2.7.3	bip	sub-03_ses-01_task-ml_proj-bip_2020-10-27-10-13-46.535960
170	3	1	4	171	stable	1	200	171	sv	blue	red	red	blue	right	left	0.7	0.30000000000000004	6	6	4.199999999999998	1.8000000000000005	1	0	0.30000000000000004	0.7	6	6	1.8000000000000005	4.199999999999998	valid	0.4832268610007304	53248.0	0	1.0	1.0	53248	1	53248	1	53248	1	0.7	53248	red	blue	0	6	ml	2.7.3	bip	sub-03_ses-01_task-ml_proj-bip_2020-10-27-10-13-46.535960
171	3	1	4	172	stable	1	200	172	sv	red	blue	red	blue	left	right	0.7	0.30000000000000004	2	4	1.4	1.2000000000000002	1	0	0.7	0.30000000000000004	2	4	1.4	1.2000000000000002	valid	0.5665250679994642	51200.0	0	0.0	1.0	51200	1	51200	1	53248	0	0.7	51200	red	blue	0	2	ml	2.7.3	bip	sub-03_ses-01_task-ml_proj-bip_2020-10-27-10-13-46.535960
172	3	1	4	173	stable	1	200	173	sv	blue	red	red	blue	right	left	0.7	0.30000000000000004	2	4	1.4	1.2000000000000002	1	0	0.30000000000000004	0.7	4	2	1.2000000000000002	1.4	valid	0.3832531999996718	53248.0	0	1.0	1.0	53248	1	53248	1	51200	0	0.7	53248	red	blue	0	2	ml	2.7.3	bip	sub-03_ses-01_task-ml_proj-bip_2020-10-27-10-13-46.535960
173	3	1	4	174	stable	1	200	174	sv	blue	red	red	blue	right	left	0.7	0.30000000000000004	10	2	7.0	0.6000000000000001	1	0	0.30000000000000004	0.7	2	10	0.6000000000000001	7.0	valid	0.4499107200008439	53248.0	0	1.0	1.0	53248	1	53248	1	53248	1	0.7	53248	red	blue	1	10	ml	2.7.3	bip	sub-03_ses-01_task-ml_proj-bip_2020-10-27-10-13-46.535960
174	3	1	4	175	stable	1	200	175	sv	red	blue	red	blue	left	right	0.7	0.30000000000000004	2	4	1.4	1.2000000000000002	1	0	0.7	0.30000000000000004	2	4	1.4	1.2000000000000002	valid	0.3499264349993609	51200.0	0	0.0	1.0	51200	1	51200	1	53248	0	0.7	51200	red	blue	0	2	ml	2.7.3	bip	sub-03_ses-01_task-ml_proj-bip_2020-10-27-10-13-46.535960
175	3	1	4	176	stable	1	200	176	sv	red	blue	red	blue	left	right	0.7	0.30000000000000004	2	10	1.4	3.0000000000000004	1	0	0.7	0.30000000000000004	2	10	1.4	3.0000000000000004	valid	0.5831850939994183	51200.0	0	0.0	1.0	53248	0	51200	1	53248	0	0.7	51200	red	blue	0	2	ml	2.7.3	bip	sub-03_ses-01_task-ml_proj-bip_2020-10-27-10-13-46.535960
176	3	1	4	177	stable	1	200	177	sv	red	blue	red	blue	left	right	0.7	0.30000000000000004	6	2	4.199999999999998	0.6000000000000001	1	0	0.7	0.30000000000000004	6	2	4.199999999999998	0.6000000000000001	valid	0.4998761099996045	51200.0	0	0.0	1.0	51200	1	51200	1	51200	1	0.7	51200	red	blue	1	6	ml	2.7.3	bip	sub-03_ses-01_task-ml_proj-bip_2020-10-27-10-13-46.535960
177	3	1	4	178	stable	1	200	178	sv	red	blue	red	blue	left	right	0.7	0.30000000000000004	2	6	1.4	1.8000000000000005	1	0	0.7	0.30000000000000004	2	6	1.4	1.8000000000000005	valid	0.41656774599869095	51200.0	0	0.0	1.0	53248	0	51200	1	53248	0	0.7	51200	red	blue	0	2	ml	2.7.3	bip	sub-03_ses-01_task-ml_proj-bip_2020-10-27-10-13-46.535960
178	3	1	4	179	stable	1	200	179	sv	blue	red	red	blue	right	left	0.7	0.30000000000000004	2	2	1.4	0.6000000000000001	1	0	0.30000000000000004	0.7	2	2	0.6000000000000001	1.4	valid	0.3832604970011744	53248.0	0	1.0	1.0	53248	1	53248	1	53248	1	0.7	53248	red	blue	0	2	ml	2.7.3	bip	sub-03_ses-01_task-ml_proj-bip_2020-10-27-10-13-46.535960
179	3	1	4	180	stable	1	200	180	sv	red	blue	red	blue	left	right	0.7	0.30000000000000004	6	2	4.199999999999998	0.6000000000000001	1	0	0.7	0.30000000000000004	6	2	4.199999999999998	0.6000000000000001	valid	0.3665902359989559	51200.0	0	0.0	1.0	51200	1	51200	1	51200	1	0.7	51200	red	blue	1	6	ml	2.7.3	bip	sub-03_ses-01_task-ml_proj-bip_2020-10-27-10-13-46.535960
180	3	1	4	181	stable	1	200	181	sv	blue	red	red	blue	right	left	0.7	0.30000000000000004	4	6	2.8	1.8000000000000005	1	0	0.30000000000000004	0.7	6	4	1.8000000000000005	2.8	valid	0.4499034069995105	53248.0	0	1.0	1.0	53248	1	53248	1	51200	0	0.7	53248	red	blue	0	4	ml	2.7.3	bip	sub-03_ses-01_task-ml_proj-bip_2020-10-27-10-13-46.535960
181	3	1	4	182	stable	1	200	182	sv	red	blue	red	blue	left	right	0.7	0.30000000000000004	4	2	2.8	0.6000000000000001	1	0	0.7	0.30000000000000004	4	2	2.8	0.6000000000000001	valid	0.3999085499999637	51200.0	0	0.0	1.0	51200	1	51200	1	51200	1	0.7	51200	red	blue	1	4	ml	2.7.3	bip	sub-03_ses-01_task-ml_proj-bip_2020-10-27-10-13-46.535960
182	3	1	4	183	stable	1	200	183	sv	blue	red	red	blue	right	left	0.7	0.30000000000000004	10	2	7.0	0.6000000000000001	0	1	0.30000000000000004	0.7	2	10	0.6000000000000001	7.0	invalid	0.3499329120004404	53248.0	0	1.0	1.0	53248	1	53248	1	53248	1	0.7	53248	red	blue	1	0	ml	2.7.3	bip	sub-03_ses-01_task-ml_proj-bip_2020-10-27-10-13-46.535960
183	3	1	4	184	stable	1	200	184	sv	blue	red	red	blue	right	left	0.7	0.30000000000000004	6	6	4.199999999999998	1.8000000000000005	0	1	0.30000000000000004	0.7	6	6	1.8000000000000005	4.199999999999998	invalid	0.3499329019996367	53248.0	0	1.0	1.0	53248	1	53248	1	53248	1	0.7	53248	red	blue	0	0	ml	2.7.3	bip	sub-03_ses-01_task-ml_proj-bip_2020-10-27-10-13-46.535960
184	3	1	4	185	stable	1	200	185	sv	blue	red	red	blue	right	left	0.7	0.30000000000000004	2	4	1.4	1.2000000000000002	1	0	0.30000000000000004	0.7	4	2	1.2000000000000002	1.4	valid	0.3499240990004182	51200.0	0	0.0	2.0	53248	0	53248	0	51200	1	0.7	53248	red	blue	0	0	ml	2.7.3	bip	sub-03_ses-01_task-ml_proj-bip_2020-10-27-10-13-46.535960
185	3	1	4	186	stable	1	200	186	sv	blue	red	red	blue	right	left	0.7	0.30000000000000004	2	2	1.4	0.6000000000000001	0	1	0.30000000000000004	0.7	2	2	0.6000000000000001	1.4	invalid	0.333260732000781	51200.0	0	0.0	2.0	53248	0	53248	0	53248	0	0.7	53248	red	blue	0	2	ml	2.7.3	bip	sub-03_ses-01_task-ml_proj-bip_2020-10-27-10-13-46.535960
186	3	1	4	187	stable	1	200	187	sv	blue	red	red	blue	right	left	0.7	0.30000000000000004	4	2	2.8	0.6000000000000001	1	0	0.30000000000000004	0.7	2	4	0.6000000000000001	2.8	valid	0.3499179600003117	51200.0	0	0.0	2.0	53248	0	53248	0	53248	0	0.7	53248	red	blue	1	0	ml	2.7.3	bip	sub-03_ses-01_task-ml_proj-bip_2020-10-27-10-13-46.535960
187	3	1	4	188	stable	1	200	188	sv	red	blue	red	blue	left	right	0.7	0.30000000000000004	10	2	7.0	0.6000000000000001	1	0	0.7	0.30000000000000004	10	2	7.0	0.6000000000000001	valid	0.4332454649993451	53248.0	0	1.0	2.0	51200	0	51200	0	51200	0	0.7	51200	red	blue	1	0	ml	2.7.3	bip	sub-03_ses-01_task-ml_proj-bip_2020-10-27-10-13-46.535960
188	3	1	4	189	stable	1	200	189	sv	blue	red	red	blue	right	left	0.7	0.30000000000000004	2	10	1.4	3.0000000000000004	1	0	0.30000000000000004	0.7	10	2	3.0000000000000004	1.4	valid	0.4499038689991721	53248.0	0	1.0	1.0	51200	0	53248	1	51200	0	0.7	53248	red	blue	0	2	ml	2.7.3	bip	sub-03_ses-01_task-ml_proj-bip_2020-10-27-10-13-46.535960
189	3	1	4	190	stable	1	200	190	sv	red	blue	red	blue	left	right	0.7	0.30000000000000004	2	4	1.4	1.2000000000000002	1	0	0.7	0.30000000000000004	2	4	1.4	1.2000000000000002	valid	0.4832139299996925	51200.0	0	0.0	1.0	51200	1	51200	1	53248	0	0.7	51200	red	blue	0	2	ml	2.7.3	bip	sub-03_ses-01_task-ml_proj-bip_2020-10-27-10-13-46.535960
190	3	1	4	191	stable	1	200	191	sv	blue	red	red	blue	right	left	0.7	0.30000000000000004	6	6	4.199999999999998	1.8000000000000005	1	0	0.30000000000000004	0.7	6	6	1.8000000000000005	4.199999999999998	valid	0.5332126600005722	53248.0	0	1.0	1.0	53248	1	53248	1	53248	1	0.7	53248	red	blue	0	6	ml	2.7.3	bip	sub-03_ses-01_task-ml_proj-bip_2020-10-27-10-13-46.535960
191	3	1	4	192	stable	1	200	192	sv	red	blue	red	blue	left	right	0.7	0.30000000000000004	6	2	4.199999999999998	0.6000000000000001	0	1	0.7	0.30000000000000004	6	2	4.199999999999998	0.6000000000000001	invalid	0.4998848140003247	51200.0	0	0.0	1.0	51200	1	51200	1	51200	1	0.7	51200	red	blue	1	0	ml	2.7.3	bip	sub-03_ses-01_task-ml_proj-bip_2020-10-27-10-13-46.535960
192	3	1	4	193	stable	1	200	193	sv	blue	red	red	blue	right	left	0.7	0.30000000000000004	4	6	2.8	1.8000000000000005	0	1	0.30000000000000004	0.7	6	4	1.8000000000000005	2.8	invalid	0.5332125190016086	53248.0	0	1.0	1.0	53248	1	53248	1	51200	0	0.7	53248	red	blue	0	0	ml	2.7.3	bip	sub-03_ses-01_task-ml_proj-bip_2020-10-27-10-13-46.535960
193	3	1	4	194	stable	1	200	194	sv	blue	red	red	blue	right	left	0.7	0.30000000000000004	4	6	2.8	1.8000000000000005	0	1	0.30000000000000004	0.7	6	4	1.8000000000000005	2.8	invalid	1.1163749989991631	53248.0	0	1.0	1.0	53248	1	53248	1	51200	0	0.7	53248	red	blue	0	0	ml	2.7.3	bip	sub-03_ses-01_task-ml_proj-bip_2020-10-27-10-13-46.535960
194	3	1	4	195	stable	1	200	195	sv	blue	red	red	blue	right	left	0.7	0.30000000000000004	4	2	2.8	0.6000000000000001	1	0	0.30000000000000004	0.7	2	4	0.6000000000000001	2.8	valid	0.4998762939994776	51200.0	0	0.0	2.0	53248	0	53248	0	53248	0	0.7	53248	red	blue	1	0	ml	2.7.3	bip	sub-03_ses-01_task-ml_proj-bip_2020-10-27-10-13-46.535960
195	3	1	4	196	stable	1	200	196	sv	red	blue	red	blue	left	right	0.7	0.30000000000000004	6	6	4.199999999999998	1.8000000000000005	1	0	0.7	0.30000000000000004	6	6	4.199999999999998	1.8000000000000005	valid	0.3832519610004965	53248.0	0	1.0	2.0	51200	0	51200	0	53248	1	0.7	51200	red	blue	1	0	ml	2.7.3	bip	sub-03_ses-01_task-ml_proj-bip_2020-10-27-10-13-46.535960
196	3	1	4	197	stable	1	200	197	sv	red	blue	red	blue	left	right	0.7	0.30000000000000004	4	6	2.8	1.8000000000000005	0	1	0.7	0.30000000000000004	4	6	2.8	1.8000000000000005	invalid	0.33326130400018883	51200.0	0	0.0	1.0	51200	1	51200	1	53248	0	0.7	51200	red	blue	0	0	ml	2.7.3	bip	sub-03_ses-01_task-ml_proj-bip_2020-10-27-10-13-46.535960
197	3	1	4	198	stable	1	200	198	sv	blue	red	red	blue	right	left	0.7	0.30000000000000004	6	2	4.199999999999998	0.6000000000000001	1	0	0.30000000000000004	0.7	2	6	0.6000000000000001	4.199999999999998	valid	0.4665659050006071	53248.0	0	1.0	1.0	53248	1	53248	1	53248	1	0.7	53248	red	blue	1	6	ml	2.7.3	bip	sub-03_ses-01_task-ml_proj-bip_2020-10-27-10-13-46.535960
198	3	1	4	199	stable	1	200	199	sv	blue	red	red	blue	right	left	0.7	0.30000000000000004	6	4	4.199999999999998	1.2000000000000002	1	0	0.30000000000000004	0.7	4	6	1.2000000000000002	4.199999999999998	valid	0.5665363580010307	53248.0	0	1.0	1.0	53248	1	53248	1	53248	1	0.7	53248	red	blue	1	6	ml	2.7.3	bip	sub-03_ses-01_task-ml_proj-bip_2020-10-27-10-13-46.535960
199	3	1	4	200	stable	1	200	200	sv	blue	red	red	blue	right	left	0.7	0.30000000000000004	2	4	1.4	1.2000000000000002	1	0	0.30000000000000004	0.7	4	2	1.2000000000000002	1.4	valid	0.6498397049999767	53248.0	0	1.0	1.0	53248	1	53248	1	51200	0	0.7	53248	red	blue	0	2	ml	2.7.3	bip	sub-03_ses-01_task-ml_proj-bip_2020-10-27-10-13-46.535960
200	3	1	5	201	volatile	2	20	1	sv	blue	red	red	blue	right	left	0.30000000000000004	0.7	4	2	1.2000000000000002	1.4	0	1	0.7	0.30000000000000004	2	4	1.4	1.2000000000000002	valid	0.6498404470003152	53248.0	0	1.0	1.0	51200	0	51200	0	53248	1	0.7	51200	blue	red	0	0	ml	2.7.3	bip	sub-03_ses-01_task-ml_proj-bip_2020-10-27-10-13-46.535960
201	3	1	5	202	volatile	2	20	2	sv	red	blue	red	blue	left	right	0.30000000000000004	0.7	6	2	1.8000000000000005	1.4	0	1	0.30000000000000004	0.7	6	2	1.8000000000000005	1.4	valid	0.4665668039997399	53248.0	0	1.0	2.0	51200	0	53248	1	51200	0	0.7	53248	blue	red	0	2	ml	2.7.3	bip	sub-03_ses-01_task-ml_proj-bip_2020-10-27-10-13-46.535960
202	3	1	5	203	volatile	2	20	3	sv	red	blue	red	blue	left	right	0.30000000000000004	0.7	2	10	0.6000000000000001	7.0	0	1	0.30000000000000004	0.7	2	10	0.6000000000000001	7.0	valid	0.5665352609994443	53248.0	0	1.0	2.0	53248	1	53248	1	53248	1	0.7	53248	blue	red	1	10	ml	2.7.3	bip	sub-03_ses-01_task-ml_proj-bip_2020-10-27-10-13-46.535960
203	3	1	5	204	volatile	2	20	4	sv	red	blue	red	blue	left	right	0.30000000000000004	0.7	4	6	1.2000000000000002	4.199999999999998	0	1	0.30000000000000004	0.7	4	6	1.2000000000000002	4.199999999999998	valid	0.3832557169989741	53248.0	0	1.0	2.0	53248	1	53248	1	53248	1	0.7	53248	blue	red	1	6	ml	2.7.3	bip	sub-03_ses-01_task-ml_proj-bip_2020-10-27-10-13-46.535960
204	3	1	5	205	volatile	2	20	5	sv	blue	red	red	blue	right	left	0.30000000000000004	0.7	2	4	0.6000000000000001	2.8	0	1	0.7	0.30000000000000004	4	2	2.8	0.6000000000000001	valid	0.4832154300002003	51200.0	0	0.0	2.0	51200	1	51200	1	51200	1	0.7	51200	blue	red	1	4	ml	2.7.3	bip	sub-03_ses-01_task-ml_proj-bip_2020-10-27-10-13-46.535960
205	3	1	5	206	volatile	2	20	6	sv	blue	red	red	blue	right	left	0.30000000000000004	0.7	2	10	0.6000000000000001	7.0	1	0	0.7	0.30000000000000004	10	2	7.0	0.6000000000000001	invalid	0.4165753930010396	51200.0	0	0.0	2.0	51200	1	51200	1	51200	1	0.7	51200	blue	red	1	0	ml	2.7.3	bip	sub-03_ses-01_task-ml_proj-bip_2020-10-27-10-13-46.535960
206	3	1	5	207	volatile	2	20	7	sv	red	blue	red	blue	left	right	0.30000000000000004	0.7	10	2	3.0000000000000004	1.4	0	1	0.30000000000000004	0.7	10	2	3.0000000000000004	1.4	valid	0.3665934729997389	53248.0	0	1.0	2.0	51200	0	53248	1	51200	0	0.7	53248	blue	red	0	2	ml	2.7.3	bip	sub-03_ses-01_task-ml_proj-bip_2020-10-27-10-13-46.535960
207	3	1	5	208	volatile	2	20	8	sv	red	blue	red	blue	left	right	0.30000000000000004	0.7	2	2	0.6000000000000001	1.4	1	0	0.30000000000000004	0.7	2	2	0.6000000000000001	1.4	invalid	0.4665744039994024	53248.0	0	1.0	2.0	53248	1	53248	1	53248	1	0.7	53248	blue	red	0	0	ml	2.7.3	bip	sub-03_ses-01_task-ml_proj-bip_2020-10-27-10-13-46.535960
208	3	1	5	209	volatile	2	20	9	sv	blue	red	red	blue	right	left	0.30000000000000004	0.7	6	6	1.8000000000000005	4.199999999999998	0	1	0.7	0.30000000000000004	6	6	4.199999999999998	1.8000000000000005	valid	0.4498920930000168	51200.0	0	0.0	2.0	51200	1	51200	1	53248	0	0.7	51200	blue	red	1	6	ml	2.7.3	bip	sub-03_ses-01_task-ml_proj-bip_2020-10-27-10-13-46.535960
209	3	1	5	210	volatile	2	20	10	sv	blue	red	red	blue	right	left	0.30000000000000004	0.7	4	2	1.2000000000000002	1.4	0	1	0.7	0.30000000000000004	2	4	1.4	1.2000000000000002	valid	0.39990692700121133	51200.0	0	0.0	2.0	51200	1	51200	1	53248	0	0.7	51200	blue	red	0	2	ml	2.7.3	bip	sub-03_ses-01_task-ml_proj-bip_2020-10-27-10-13-46.535960
210	3	1	5	211	volatile	2	20	11	sv	red	blue	red	blue	left	right	0.30000000000000004	0.7	2	10	0.6000000000000001	7.0	0	1	0.30000000000000004	0.7	2	10	0.6000000000000001	7.0	valid	0.5498718060007377	53248.0	0	1.0	2.0	53248	1	53248	1	53248	1	0.7	53248	blue	red	1	10	ml	2.7.3	bip	sub-03_ses-01_task-ml_proj-bip_2020-10-27-10-13-46.535960
211	3	1	5	212	volatile	2	20	12	sv	red	blue	red	blue	left	right	0.30000000000000004	0.7	2	6	0.6000000000000001	4.199999999999998	0	1	0.30000000000000004	0.7	2	6	0.6000000000000001	4.199999999999998	valid	0.4832315469993773	53248.0	0	1.0	2.0	53248	1	53248	1	53248	1	0.7	53248	blue	red	1	6	ml	2.7.3	bip	sub-03_ses-01_task-ml_proj-bip_2020-10-27-10-13-46.535960
212	3	1	5	213	volatile	2	20	13	sv	blue	red	red	blue	right	left	0.30000000000000004	0.7	4	6	1.2000000000000002	4.199999999999998	0	1	0.7	0.30000000000000004	6	4	4.199999999999998	1.2000000000000002	valid	0.34992038600103115	51200.0	0	0.0	2.0	51200	1	51200	1	51200	1	0.7	51200	blue	red	1	6	ml	2.7.3	bip	sub-03_ses-01_task-ml_proj-bip_2020-10-27-10-13-46.535960
213	3	1	5	214	volatile	2	20	14	sv	red	blue	red	blue	left	right	0.30000000000000004	0.7	6	2	1.8000000000000005	1.4	1	0	0.30000000000000004	0.7	6	2	1.8000000000000005	1.4	invalid	0.5831953380002233	53248.0	0	1.0	2.0	51200	0	53248	1	51200	0	0.7	53248	blue	red	0	0	ml	2.7.3	bip	sub-03_ses-01_task-ml_proj-bip_2020-10-27-10-13-46.535960
214	3	1	5	215	volatile	2	20	15	sv	blue	red	red	blue	right	left	0.30000000000000004	0.7	2	2	0.6000000000000001	1.4	1	0	0.7	0.30000000000000004	2	2	1.4	0.6000000000000001	invalid	0.5998599489994376	53248.0	0	1.0	1.0	51200	0	51200	0	53248	1	0.7	51200	blue	red	1	2	ml	2.7.3	bip	sub-03_ses-01_task-ml_proj-bip_2020-10-27-10-13-46.535960
215	3	1	5	216	volatile	2	20	16	sv	red	blue	red	blue	left	right	0.30000000000000004	0.7	6	6	1.8000000000000005	4.199999999999998	1	0	0.30000000000000004	0.7	6	6	1.8000000000000005	4.199999999999998	invalid	0.4665502389998437	51200.0	0	0.0	1.0	53248	0	53248	0	53248	0	0.7	53248	blue	red	0	6	ml	2.7.3	bip	sub-03_ses-01_task-ml_proj-bip_2020-10-27-10-13-46.535960
216	3	1	5	217	volatile	2	20	17	sv	blue	red	red	blue	right	left	0.30000000000000004	0.7	4	6	1.2000000000000002	4.199999999999998	1	0	0.7	0.30000000000000004	6	4	4.199999999999998	1.2000000000000002	invalid	0.39992430599886575	53248.0	0	1.0	1.0	51200	0	51200	0	51200	0	0.7	51200	blue	red	1	4	ml	2.7.3	bip	sub-03_ses-01_task-ml_proj-bip_2020-10-27-10-13-46.535960
217	3	1	5	218	volatile	2	20	18	sv	red	blue	red	blue	left	right	0.30000000000000004	0.7	4	6	1.2000000000000002	4.199999999999998	0	1	0.30000000000000004	0.7	4	6	1.2000000000000002	4.199999999999998	valid	0.5165376170007221	51200.0	0	0.0	1.0	53248	0	53248	0	53248	0	0.7	53248	blue	red	1	0	ml	2.7.3	bip	sub-03_ses-01_task-ml_proj-bip_2020-10-27-10-13-46.535960
218	3	1	5	219	volatile	2	20	19	sv	blue	red	red	blue	right	left	0.30000000000000004	0.7	6	2	1.8000000000000005	1.4	0	1	0.7	0.30000000000000004	2	6	1.4	1.8000000000000005	valid	0.5165502529998776	53248.0	0	1.0	1.0	53248	1	51200	0	53248	1	0.7	51200	blue	red	0	0	ml	2.7.3	bip	sub-03_ses-01_task-ml_proj-bip_2020-10-27-10-13-46.535960
219	3	1	5	220	volatile	2	20	20	sv	blue	red	red	blue	right	left	0.30000000000000004	0.7	2	4	0.6000000000000001	2.8	0	1	0.7	0.30000000000000004	4	2	2.8	0.6000000000000001	valid	0.483226525999271	53248.0	0	1.0	1.0	51200	0	51200	0	51200	0	0.7	51200	blue	red	1	0	ml	2.7.3	bip	sub-03_ses-01_task-ml_proj-bip_2020-10-27-10-13-46.535960
220	3	1	5	221	volatile	3	40	1	sv	red	blue	red	blue	left	right	0.7	0.30000000000000004	6	4	4.199999999999998	1.2000000000000002	1	0	0.7	0.30000000000000004	6	4	4.199999999999998	1.2000000000000002	valid	0.5165810880007484	53248.0	0	1.0	2.0	51200	0	51200	0	51200	0	0.7	51200	red	blue	1	0	ml	2.7.3	bip	sub-03_ses-01_task-ml_proj-bip_2020-10-27-10-13-46.535960
221	3	1	5	222	volatile	3	40	2	sv	blue	red	red	blue	right	left	0.7	0.30000000000000004	2	6	1.4	1.8000000000000005	1	0	0.30000000000000004	0.7	6	2	1.8000000000000005	1.4	valid	0.2999386139999842	51200.0	0	0.0	2.0	51200	1	53248	0	51200	1	0.7	53248	red	blue	0	0	ml	2.7.3	bip	sub-03_ses-01_task-ml_proj-bip_2020-10-27-10-13-46.535960
222	3	1	5	223	volatile	3	40	3	sv	blue	red	red	blue	right	left	0.7	0.30000000000000004	4	2	2.8	0.6000000000000001	1	0	0.30000000000000004	0.7	2	4	0.6000000000000001	2.8	valid	0.4332415320004657	53248.0	0	1.0	1.0	53248	1	53248	1	53248	1	0.7	53248	red	blue	1	4	ml	2.7.3	bip	sub-03_ses-01_task-ml_proj-bip_2020-10-27-10-13-46.535960
223	3	1	5	224	volatile	3	40	4	sv	blue	red	red	blue	right	left	0.7	0.30000000000000004	4	6	2.8	1.8000000000000005	1	0	0.30000000000000004	0.7	6	4	1.8000000000000005	2.8	valid	0.4832268630016188	53248.0	0	1.0	1.0	53248	1	53248	1	51200	0	0.7	53248	red	blue	0	4	ml	2.7.3	bip	sub-03_ses-01_task-ml_proj-bip_2020-10-27-10-13-46.535960
224	3	1	5	225	volatile	3	40	5	sv	blue	red	red	blue	right	left	0.7	0.30000000000000004	10	2	7.0	0.6000000000000001	1	0	0.30000000000000004	0.7	2	10	0.6000000000000001	7.0	valid	0.6331843340012709	53248.0	0	1.0	1.0	53248	1	53248	1	53248	1	0.7	53248	red	blue	1	10	ml	2.7.3	bip	sub-03_ses-01_task-ml_proj-bip_2020-10-27-10-13-46.535960
225	3	1	5	226	volatile	3	40	6	sv	red	blue	red	blue	left	right	0.7	0.30000000000000004	2	6	1.4	1.8000000000000005	0	1	0.7	0.30000000000000004	2	6	1.4	1.8000000000000005	invalid	0.6498296170011599	51200.0	0	0.0	1.0	53248	0	51200	1	53248	0	0.7	51200	red	blue	0	0	ml	2.7.3	bip	sub-03_ses-01_task-ml_proj-bip_2020-10-27-10-13-46.535960
226	3	1	5	227	volatile	3	40	7	sv	red	blue	red	blue	left	right	0.7	0.30000000000000004	2	2	1.4	0.6000000000000001	1	0	0.7	0.30000000000000004	2	2	1.4	0.6000000000000001	valid	0.5665242739996756	51200.0	0	0.0	1.0	51200	1	51200	1	53248	0	0.7	51200	red	blue	1	2	ml	2.7.3	bip	sub-03_ses-01_task-ml_proj-bip_2020-10-27-10-13-46.535960
227	3	1	5	228	volatile	3	40	8	sv	red	blue	red	blue	left	right	0.7	0.30000000000000004	2	2	1.4	0.6000000000000001	1	0	0.7	0.30000000000000004	2	2	1.4	0.6000000000000001	valid	1.199669883999377	51200.0	0	0.0	1.0	51200	1	51200	1	53248	0	0.7	51200	red	blue	1	2	ml	2.7.3	bip	sub-03_ses-01_task-ml_proj-bip_2020-10-27-10-13-46.535960
228	3	1	5	229	volatile	3	40	9	sv	red	blue	red	blue	left	right	0.7	0.30000000000000004	4	2	2.8	0.6000000000000001	0	1	0.7	0.30000000000000004	4	2	2.8	0.6000000000000001	invalid	0.5165412570004264	51200.0	0	0.0	1.0	51200	1	51200	1	51200	1	0.7	51200	red	blue	1	0	ml	2.7.3	bip	sub-03_ses-01_task-ml_proj-bip_2020-10-27-10-13-46.535960
229	3	1	5	230	volatile	3	40	10	sv	blue	red	red	blue	right	left	0.7	0.30000000000000004	6	6	4.199999999999998	1.8000000000000005	1	0	0.30000000000000004	0.7	6	6	1.8000000000000005	4.199999999999998	valid	0.5665353550011787	53248.0	0	1.0	1.0	53248	1	53248	1	53248	1	0.7	53248	red	blue	0	6	ml	2.7.3	bip	sub-03_ses-01_task-ml_proj-bip_2020-10-27-10-13-46.535960
230	3	1	5	231	volatile	3	40	11	sv	red	blue	red	blue	left	right	0.7	0.30000000000000004	2	4	1.4	1.2000000000000002	1	0	0.7	0.30000000000000004	2	4	1.4	1.2000000000000002	valid	0.8664358799996992	51200.0	0	0.0	1.0	51200	1	51200	1	53248	0	0.7	51200	red	blue	0	2	ml	2.7.3	bip	sub-03_ses-01_task-ml_proj-bip_2020-10-27-10-13-46.535960
231	3	1	5	232	volatile	3	40	12	sv	red	blue	red	blue	left	right	0.7	0.30000000000000004	2	10	1.4	3.0000000000000004	1	0	0.7	0.30000000000000004	2	10	1.4	3.0000000000000004	valid	1.083055768000122	53248.0	0	1.0	2.0	53248	1	51200	0	53248	1	0.7	51200	red	blue	0	0	ml	2.7.3	bip	sub-03_ses-01_task-ml_proj-bip_2020-10-27-10-13-46.535960
232	3	1	5	233	volatile	3	40	13	sv	blue	red	red	blue	right	left	0.7	0.30000000000000004	4	2	2.8	0.6000000000000001	1	0	0.30000000000000004	0.7	2	4	0.6000000000000001	2.8	valid	0.49988825899890793	53248.0	0	1.0	1.0	53248	1	53248	1	53248	1	0.7	53248	red	blue	1	4	ml	2.7.3	bip	sub-03_ses-01_task-ml_proj-bip_2020-10-27-10-13-46.535960
233	3	1	5	234	volatile	3	40	14	sv	red	blue	red	blue	left	right	0.7	0.30000000000000004	4	2	2.8	0.6000000000000001	0	1	0.7	0.30000000000000004	4	2	2.8	0.6000000000000001	invalid	0.4332289859994489	51200.0	0	0.0	1.0	51200	1	51200	1	51200	1	0.7	51200	red	blue	1	0	ml	2.7.3	bip	sub-03_ses-01_task-ml_proj-bip_2020-10-27-10-13-46.535960
234	3	1	5	235	volatile	3	40	15	sv	blue	red	red	blue	right	left	0.7	0.30000000000000004	2	6	1.4	1.8000000000000005	1	0	0.30000000000000004	0.7	6	2	1.8000000000000005	1.4	valid	0.4332413929987524	53248.0	0	1.0	1.0	51200	0	53248	1	51200	0	0.7	53248	red	blue	0	2	ml	2.7.3	bip	sub-03_ses-01_task-ml_proj-bip_2020-10-27-10-13-46.535960
235	3	1	5	236	volatile	3	40	16	sv	red	blue	red	blue	left	right	0.7	0.30000000000000004	4	6	2.8	1.8000000000000005	0	1	0.7	0.30000000000000004	4	6	2.8	1.8000000000000005	invalid	0.7331418079993455	51200.0	0	0.0	1.0	51200	1	51200	1	53248	0	0.7	51200	red	blue	0	0	ml	2.7.3	bip	sub-03_ses-01_task-ml_proj-bip_2020-10-27-10-13-46.535960
236	3	1	5	237	volatile	3	40	17	sv	red	blue	red	blue	left	right	0.7	0.30000000000000004	6	4	4.199999999999998	1.2000000000000002	0	1	0.7	0.30000000000000004	6	4	4.199999999999998	1.2000000000000002	invalid	0.3999003130011261	51200.0	0	0.0	1.0	51200	1	51200	1	51200	1	0.7	51200	red	blue	1	0	ml	2.7.3	bip	sub-03_ses-01_task-ml_proj-bip_2020-10-27-10-13-46.535960
237	3	1	5	238	volatile	3	40	18	sv	blue	red	red	blue	right	left	0.7	0.30000000000000004	10	2	7.0	0.6000000000000001	0	1	0.30000000000000004	0.7	2	10	0.6000000000000001	7.0	invalid	0.549862691999806	51200.0	0	0.0	2.0	53248	0	53248	0	53248	0	0.7	53248	red	blue	1	2	ml	2.7.3	bip	sub-03_ses-01_task-ml_proj-bip_2020-10-27-10-13-46.535960
238	3	1	5	239	volatile	3	40	19	sv	red	blue	red	blue	left	right	0.7	0.30000000000000004	2	2	1.4	0.6000000000000001	1	0	0.7	0.30000000000000004	2	2	1.4	0.6000000000000001	valid	0.6665339430001039	53248.0	0	1.0	2.0	51200	0	51200	0	53248	1	0.7	51200	red	blue	1	0	ml	2.7.3	bip	sub-03_ses-01_task-ml_proj-bip_2020-10-27-10-13-46.535960
239	3	1	5	240	volatile	3	40	20	sv	red	blue	red	blue	left	right	0.7	0.30000000000000004	4	6	2.8	1.8000000000000005	1	0	0.7	0.30000000000000004	4	6	2.8	1.8000000000000005	valid	0.5665370480001002	53248.0	0	1.0	2.0	51200	0	51200	0	53248	1	0.7	51200	red	blue	0	0	ml	2.7.3	bip	sub-03_ses-01_task-ml_proj-bip_2020-10-27-10-13-46.535960
240	3	1	5	241	volatile	3	40	21	sv	blue	red	red	blue	right	left	0.7	0.30000000000000004	6	4	4.199999999999998	1.2000000000000002	1	0	0.30000000000000004	0.7	4	6	1.2000000000000002	4.199999999999998	valid	0.516538814001251	51200.0	0	0.0	2.0	53248	0	53248	0	53248	0	0.7	53248	red	blue	1	0	ml	2.7.3	bip	sub-03_ses-01_task-ml_proj-bip_2020-10-27-10-13-46.535960
241	3	1	5	242	volatile	3	40	22	sv	red	blue	red	blue	left	right	0.7	0.30000000000000004	4	2	2.8	0.6000000000000001	1	0	0.7	0.30000000000000004	4	2	2.8	0.6000000000000001	valid	0.4165741220003838	53248.0	0	1.0	2.0	51200	0	51200	0	51200	0	0.7	51200	red	blue	1	0	ml	2.7.3	bip	sub-03_ses-01_task-ml_proj-bip_2020-10-27-10-13-46.535960
242	3	1	5	243	volatile	3	40	23	sv	red	blue	red	blue	left	right	0.7	0.30000000000000004	2	6	1.4	1.8000000000000005	1	0	0.7	0.30000000000000004	2	6	1.4	1.8000000000000005	valid	0.6331763420002972	53248.0	0	1.0	2.0	53248	1	51200	0	53248	1	0.7	51200	red	blue	0	0	ml	2.7.3	bip	sub-03_ses-01_task-ml_proj-bip_2020-10-27-10-13-46.535960
243	3	1	5	244	volatile	3	40	24	sv	blue	red	red	blue	right	left	0.7	0.30000000000000004	4	2	2.8	0.6000000000000001	0	1	0.30000000000000004	0.7	2	4	0.6000000000000001	2.8	invalid	1.0997197619999497	53248.0	0	1.0	1.0	53248	1	53248	1	53248	1	0.7	53248	red	blue	1	0	ml	2.7.3	bip	sub-03_ses-01_task-ml_proj-bip_2020-10-27-10-13-46.535960
244	3	1	5	245	volatile	3	40	25	sv	blue	red	red	blue	right	left	0.7	0.30000000000000004	2	10	1.4	3.0000000000000004	1	0	0.30000000000000004	0.7	10	2	3.0000000000000004	1.4	valid	0.4665659590009454	53248.0	0	1.0	1.0	51200	0	53248	1	51200	0	0.7	53248	red	blue	0	2	ml	2.7.3	bip	sub-03_ses-01_task-ml_proj-bip_2020-10-27-10-13-46.535960
245	3	1	5	246	volatile	3	40	26	sv	blue	red	red	blue	right	left	0.7	0.30000000000000004	6	6	4.199999999999998	1.8000000000000005	1	0	0.30000000000000004	0.7	6	6	1.8000000000000005	4.199999999999998	valid	0.4499130900003365	53248.0	0	1.0	1.0	53248	1	53248	1	53248	1	0.7	53248	red	blue	0	6	ml	2.7.3	bip	sub-03_ses-01_task-ml_proj-bip_2020-10-27-10-13-46.535960
246	3	1	5	247	volatile	3	40	27	sv	blue	red	red	blue	right	left	0.7	0.30000000000000004	2	10	1.4	3.0000000000000004	1	0	0.30000000000000004	0.7	10	2	3.0000000000000004	1.4	valid	0.6498548620002111	53248.0	0	1.0	1.0	51200	0	53248	1	51200	0	0.7	53248	red	blue	0	2	ml	2.7.3	bip	sub-03_ses-01_task-ml_proj-bip_2020-10-27-10-13-46.535960
247	3	1	5	248	volatile	3	40	28	sv	red	blue	red	blue	left	right	0.7	0.30000000000000004	6	2	4.199999999999998	0.6000000000000001	1	0	0.7	0.30000000000000004	6	2	4.199999999999998	0.6000000000000001	valid	0.4832162500006234	51200.0	0	0.0	1.0	51200	1	51200	1	51200	1	0.7	51200	red	blue	1	6	ml	2.7.3	bip	sub-03_ses-01_task-ml_proj-bip_2020-10-27-10-13-46.535960
248	3	1	5	249	volatile	3	40	29	sv	red	blue	red	blue	left	right	0.7	0.30000000000000004	4	2	2.8	0.6000000000000001	0	1	0.7	0.30000000000000004	4	2	2.8	0.6000000000000001	invalid	0.6165002260004258	51200.0	0	0.0	1.0	51200	1	51200	1	51200	1	0.7	51200	red	blue	1	0	ml	2.7.3	bip	sub-03_ses-01_task-ml_proj-bip_2020-10-27-10-13-46.535960
249	3	1	5	250	volatile	3	40	30	sv	red	blue	red	blue	left	right	0.7	0.30000000000000004	6	6	4.199999999999998	1.8000000000000005	1	0	0.7	0.30000000000000004	6	6	4.199999999999998	1.8000000000000005	valid	0.38324155600093945	51200.0	0	0.0	1.0	51200	1	51200	1	53248	0	0.7	51200	red	blue	1	6	ml	2.7.3	bip	sub-03_ses-01_task-ml_proj-bip_2020-10-27-10-13-46.535960
250	3	1	6	251	volatile	3	40	31	sv	red	blue	red	blue	left	right	0.7	0.30000000000000004	10	2	7.0	0.6000000000000001	1	0	0.7	0.30000000000000004	10	2	7.0	0.6000000000000001	valid	0.7997888299996703	51200.0	0	0.0	1.0	51200	1	51200	1	51200	1	0.7	51200	red	blue	1	10	ml	2.7.3	bip	sub-03_ses-01_task-ml_proj-bip_2020-10-27-10-13-46.535960
251	3	1	6	252	volatile	3	40	32	sv	blue	red	red	blue	right	left	0.7	0.30000000000000004	2	6	1.4	1.8000000000000005	1	0	0.30000000000000004	0.7	6	2	1.8000000000000005	1.4	valid	0.4499036689994682	53248.0	0	1.0	1.0	51200	0	53248	1	51200	0	0.7	53248	red	blue	0	2	ml	2.7.3	bip	sub-03_ses-01_task-ml_proj-bip_2020-10-27-10-13-46.535960
252	3	1	6	253	volatile	3	40	33	sv	blue	red	red	blue	right	left	0.7	0.30000000000000004	6	4	4.199999999999998	1.2000000000000002	1	0	0.30000000000000004	0.7	4	6	1.2000000000000002	4.199999999999998	valid	0.4165811679995386	53248.0	0	1.0	1.0	53248	1	53248	1	53248	1	0.7	53248	red	blue	1	6	ml	2.7.3	bip	sub-03_ses-01_task-ml_proj-bip_2020-10-27-10-13-46.535960
253	3	1	6	254	volatile	3	40	34	sv	red	blue	red	blue	left	right	0.7	0.30000000000000004	10	2	7.0	0.6000000000000001	1	0	0.7	0.30000000000000004	10	2	7.0	0.6000000000000001	valid	0.9330806790003408	51200.0	0	0.0	1.0	51200	1	51200	1	51200	1	0.7	51200	red	blue	1	10	ml	2.7.3	bip	sub-03_ses-01_task-ml_proj-bip_2020-10-27-10-13-46.535960
254	3	1	6	255	volatile	3	40	35	sv	blue	red	red	blue	right	left	0.7	0.30000000000000004	2	2	1.4	0.6000000000000001	1	0	0.30000000000000004	0.7	2	2	0.6000000000000001	1.4	valid	0.5165495759993064	53248.0	0	1.0	1.0	53248	1	53248	1	53248	1	0.7	53248	red	blue	0	2	ml	2.7.3	bip	sub-03_ses-01_task-ml_proj-bip_2020-10-27-10-13-46.535960
255	3	1	6	256	volatile	3	40	36	sv	blue	red	red	blue	right	left	0.7	0.30000000000000004	6	2	4.199999999999998	0.6000000000000001	0	1	0.30000000000000004	0.7	2	6	0.6000000000000001	4.199999999999998	invalid	0.3999209650010016	53248.0	0	1.0	1.0	53248	1	53248	1	53248	1	0.7	53248	red	blue	1	0	ml	2.7.3	bip	sub-03_ses-01_task-ml_proj-bip_2020-10-27-10-13-46.535960
256	3	1	6	257	volatile	3	40	37	sv	blue	red	red	blue	right	left	0.7	0.30000000000000004	6	2	4.199999999999998	0.6000000000000001	0	1	0.30000000000000004	0.7	2	6	0.6000000000000001	4.199999999999998	invalid	0.316616640000575	53248.0	0	1.0	1.0	53248	1	53248	1	53248	1	0.7	53248	red	blue	1	0	ml	2.7.3	bip	sub-03_ses-01_task-ml_proj-bip_2020-10-27-10-13-46.535960
257	3	1	6	258	volatile	3	40	38	sv	blue	red	red	blue	right	left	0.7	0.30000000000000004	10	2	7.0	0.6000000000000001	0	1	0.30000000000000004	0.7	2	10	0.6000000000000001	7.0	invalid	0.3832574020016182	53248.0	0	1.0	1.0	53248	1	53248	1	53248	1	0.7	53248	red	blue	1	0	ml	2.7.3	bip	sub-03_ses-01_task-ml_proj-bip_2020-10-27-10-13-46.535960
258	3	1	6	259	volatile	3	40	39	sv	red	blue	red	blue	left	right	0.7	0.30000000000000004	6	4	4.199999999999998	1.2000000000000002	1	0	0.7	0.30000000000000004	6	4	4.199999999999998	1.2000000000000002	valid	0.4332415560002119	53248.0	0	1.0	2.0	51200	0	51200	0	51200	0	0.7	51200	red	blue	1	0	ml	2.7.3	bip	sub-03_ses-01_task-ml_proj-bip_2020-10-27-10-13-46.535960
259	3	1	6	260	volatile	3	40	40	sv	blue	red	red	blue	right	left	0.7	0.30000000000000004	6	6	4.199999999999998	1.8000000000000005	0	1	0.30000000000000004	0.7	6	6	1.8000000000000005	4.199999999999998	invalid	0.2832823720000306	51200.0	0	0.0	2.0	53248	0	53248	0	53248	0	0.7	53248	red	blue	0	6	ml	2.7.3	bip	sub-03_ses-01_task-ml_proj-bip_2020-10-27-10-13-46.535960
260	3	1	6	261	volatile	4	20	1	sv	blue	red	red	blue	right	left	0.30000000000000004	0.7	6	2	1.8000000000000005	1.4	0	1	0.7	0.30000000000000004	2	6	1.4	1.8000000000000005	valid	0.3832465619998402	51200.0	0	0.0	2.0	53248	0	51200	1	53248	0	0.7	51200	blue	red	0	2	ml	2.7.3	bip	sub-03_ses-01_task-ml_proj-bip_2020-10-27-10-13-46.535960
261	3	1	6	262	volatile	4	20	2	sv	red	blue	red	blue	left	right	0.30000000000000004	0.7	4	2	1.2000000000000002	1.4	1	0	0.30000000000000004	0.7	4	2	1.2000000000000002	1.4	invalid	0.5665487440001016	53248.0	0	1.0	2.0	53248	1	53248	1	51200	0	0.7	53248	blue	red	0	0	ml	2.7.3	bip	sub-03_ses-01_task-ml_proj-bip_2020-10-27-10-13-46.535960
262	3	1	6	263	volatile	4	20	3	sv	red	blue	red	blue	left	right	0.30000000000000004	0.7	2	2	0.6000000000000001	1.4	0	1	0.30000000000000004	0.7	2	2	0.6000000000000001	1.4	valid	0.6498464579999563	53248.0	0	1.0	2.0	53248	1	53248	1	53248	1	0.7	53248	blue	red	0	2	ml	2.7.3	bip	sub-03_ses-01_task-ml_proj-bip_2020-10-27-10-13-46.535960
263	3	1	6	264	volatile	4	20	4	sv	blue	red	red	blue	right	left	0.30000000000000004	0.7	2	6	0.6000000000000001	4.199999999999998	1	0	0.7	0.30000000000000004	6	2	4.199999999999998	0.6000000000000001	invalid	0.549863506001202	51200.0	0	0.0	2.0	51200	1	51200	1	51200	1	0.7	51200	blue	red	1	0	ml	2.7.3	bip	sub-03_ses-01_task-ml_proj-bip_2020-10-27-10-13-46.535960
264	3	1	6	265	volatile	4	20	5	sv	red	blue	red	blue	left	right	0.30000000000000004	0.7	6	4	1.8000000000000005	2.8	0	1	0.30000000000000004	0.7	6	4	1.8000000000000005	2.8	valid	0.6331805219997477	53248.0	0	1.0	2.0	53248	1	53248	1	51200	0	0.7	53248	blue	red	0	4	ml	2.7.3	bip	sub-03_ses-01_task-ml_proj-bip_2020-10-27-10-13-46.535960
265	3	1	6	266	volatile	4	20	6	sv	blue	red	red	blue	right	left	0.30000000000000004	0.7	10	2	3.0000000000000004	1.4	0	1	0.7	0.30000000000000004	2	10	1.4	3.0000000000000004	valid	1.0663889589995958	53248.0	0	1.0	1.0	53248	1	51200	0	53248	1	0.7	51200	blue	red	0	0	ml	2.7.3	bip	sub-03_ses-01_task-ml_proj-bip_2020-10-27-10-13-46.535960
266	3	1	6	267	volatile	4	20	7	sv	blue	red	red	blue	right	left	0.30000000000000004	0.7	10	2	3.0000000000000004	1.4	0	1	0.7	0.30000000000000004	2	10	1.4	3.0000000000000004	valid	0.93309243800104	53248.0	0	1.0	1.0	53248	1	51200	0	53248	1	0.7	51200	blue	red	0	0	ml	2.7.3	bip	sub-03_ses-01_task-ml_proj-bip_2020-10-27-10-13-46.535960
267	3	1	6	268	volatile	4	20	8	sv	red	blue	red	blue	left	right	0.30000000000000004	0.7	4	6	1.2000000000000002	4.199999999999998	0	1	0.30000000000000004	0.7	4	6	1.2000000000000002	4.199999999999998	valid	1.0163935399996262	51200.0	0	0.0	1.0	53248	0	53248	0	53248	0	0.7	53248	blue	red	1	0	ml	2.7.3	bip	sub-03_ses-01_task-ml_proj-bip_2020-10-27-10-13-46.535960
268	3	1	6	269	volatile	4	20	9	sv	red	blue	red	blue	left	right	0.30000000000000004	0.7	6	6	1.8000000000000005	4.199999999999998	0	1	0.30000000000000004	0.7	6	6	1.8000000000000005	4.199999999999998	valid	0.43322979399999895	51200.0	0	0.0	1.0	53248	0	53248	0	53248	0	0.7	53248	blue	red	0	0	ml	2.7.3	bip	sub-03_ses-01_task-ml_proj-bip_2020-10-27-10-13-46.535960
269	3	1	6	270	volatile	4	20	10	sv	blue	red	red	blue	right	left	0.30000000000000004	0.7	6	6	1.8000000000000005	4.199999999999998	0	1	0.7	0.30000000000000004	6	6	4.199999999999998	1.8000000000000005	valid	0.7498120989985182	53248.0	0	1.0	1.0	51200	0	51200	0	53248	1	0.7	51200	blue	red	1	0	ml	2.7.3	bip	sub-03_ses-01_task-ml_proj-bip_2020-10-27-10-13-46.535960
270	3	1	6	271	volatile	4	20	11	sv	red	blue	red	blue	left	right	0.30000000000000004	0.7	6	2	1.8000000000000005	1.4	0	1	0.30000000000000004	0.7	6	2	1.8000000000000005	1.4	valid	0.5998591930001567	53248.0	0	1.0	2.0	51200	0	53248	1	51200	0	0.7	53248	blue	red	0	2	ml	2.7.3	bip	sub-03_ses-01_task-ml_proj-bip_2020-10-27-10-13-46.535960
271	3	1	6	272	volatile	4	20	12	sv	red	blue	red	blue	left	right	0.30000000000000004	0.7	2	2	0.6000000000000001	1.4	0	1	0.30000000000000004	0.7	2	2	0.6000000000000001	1.4	valid	0.466565090999211	53248.0	0	1.0	2.0	53248	1	53248	1	53248	1	0.7	53248	blue	red	0	2	ml	2.7.3	bip	sub-03_ses-01_task-ml_proj-bip_2020-10-27-10-13-46.535960
272	3	1	6	273	volatile	4	20	13	sv	blue	red	red	blue	right	left	0.30000000000000004	0.7	2	10	0.6000000000000001	7.0	0	1	0.7	0.30000000000000004	10	2	7.0	0.6000000000000001	valid	0.51654156999939	51200.0	0	0.0	2.0	51200	1	51200	1	51200	1	0.7	51200	blue	red	1	10	ml	2.7.3	bip	sub-03_ses-01_task-ml_proj-bip_2020-10-27-10-13-46.535960
273	3	1	6	274	volatile	4	20	14	sv	red	blue	red	blue	left	right	0.30000000000000004	0.7	2	4	0.6000000000000001	2.8	0	1	0.30000000000000004	0.7	2	4	0.6000000000000001	2.8	valid	0.5165551109985245	53248.0	0	1.0	2.0	53248	1	53248	1	53248	1	0.7	53248	blue	red	1	4	ml	2.7.3	bip	sub-03_ses-01_task-ml_proj-bip_2020-10-27-10-13-46.535960
274	3	1	6	275	volatile	4	20	15	sv	blue	red	red	blue	right	left	0.30000000000000004	0.7	6	2	1.8000000000000005	1.4	0	1	0.7	0.30000000000000004	2	6	1.4	1.8000000000000005	valid	0.6831543329990382	51200.0	0	0.0	2.0	53248	0	51200	1	53248	0	0.7	51200	blue	red	0	2	ml	2.7.3	bip	sub-03_ses-01_task-ml_proj-bip_2020-10-27-10-13-46.535960
275	3	1	6	276	volatile	4	20	16	sv	red	blue	red	blue	left	right	0.30000000000000004	0.7	4	2	1.2000000000000002	1.4	1	0	0.30000000000000004	0.7	4	2	1.2000000000000002	1.4	invalid	2.9824807799996047	nan	1	nan	nan	53248	0	53248	0	51200	0	0.7	53248	blue	red	0	0	ml	2.7.3	bip	sub-03_ses-01_task-ml_proj-bip_2020-10-27-10-13-46.535960
276	3	1	6	277	volatile	4	20	17	sv	blue	red	red	blue	right	left	0.30000000000000004	0.7	4	6	1.2000000000000002	4.199999999999998	1	0	0.7	0.30000000000000004	6	4	4.199999999999998	1.2000000000000002	invalid	0.5165461230008077	53248.0	0	1.0	1.0	51200	0	51200	0	51200	0	0.7	51200	blue	red	1	4	ml	2.7.3	bip	sub-03_ses-01_task-ml_proj-bip_2020-10-27-10-13-46.535960
277	3	1	6	278	volatile	4	20	18	sv	red	blue	red	blue	left	right	0.30000000000000004	0.7	4	6	1.2000000000000002	4.199999999999998	1	0	0.30000000000000004	0.7	4	6	1.2000000000000002	4.199999999999998	invalid	0.29993569100042805	51200.0	0	0.0	1.0	53248	0	53248	0	53248	0	0.7	53248	blue	red	1	4	ml	2.7.3	bip	sub-03_ses-01_task-ml_proj-bip_2020-10-27-10-13-46.535960
278	3	1	6	279	volatile	4	20	19	sv	blue	red	red	blue	right	left	0.30000000000000004	0.7	2	10	0.6000000000000001	7.0	0	1	0.7	0.30000000000000004	10	2	7.0	0.6000000000000001	valid	0.9164200710001752	51200.0	0	0.0	2.0	51200	1	51200	1	51200	1	0.7	51200	blue	red	1	10	ml	2.7.3	bip	sub-03_ses-01_task-ml_proj-bip_2020-10-27-10-13-46.535960
279	3	1	6	280	volatile	4	20	20	sv	blue	red	red	blue	right	left	0.30000000000000004	0.7	4	2	1.2000000000000002	1.4	1	0	0.7	0.30000000000000004	2	4	1.4	1.2000000000000002	invalid	0.7831267410001601	51200.0	0	0.0	2.0	51200	1	51200	1	53248	0	0.7	51200	blue	red	0	0	ml	2.7.3	bip	sub-03_ses-01_task-ml_proj-bip_2020-10-27-10-13-46.535960
280	3	1	6	281	volatile	5	20	1	sv	blue	red	red	blue	right	left	0.7	0.30000000000000004	6	2	4.199999999999998	0.6000000000000001	1	0	0.30000000000000004	0.7	2	6	0.6000000000000001	4.199999999999998	valid	0.4332416019988159	53248.0	0	1.0	1.0	53248	1	53248	1	53248	1	0.7	53248	red	blue	1	6	ml	2.7.3	bip	sub-03_ses-01_task-ml_proj-bip_2020-10-27-10-13-46.535960
281	3	1	6	282	volatile	5	20	2	sv	blue	red	red	blue	right	left	0.7	0.30000000000000004	6	6	4.199999999999998	1.8000000000000005	1	0	0.30000000000000004	0.7	6	6	1.8000000000000005	4.199999999999998	valid	0.4832273020001594	53248.0	0	1.0	1.0	53248	1	53248	1	53248	1	0.7	53248	red	blue	0	6	ml	2.7.3	bip	sub-03_ses-01_task-ml_proj-bip_2020-10-27-10-13-46.535960
282	3	1	6	283	volatile	5	20	3	sv	blue	red	red	blue	right	left	0.7	0.30000000000000004	6	4	4.199999999999998	1.2000000000000002	1	0	0.30000000000000004	0.7	4	6	1.2000000000000002	4.199999999999998	valid	0.6331801610012917	53248.0	0	1.0	1.0	53248	1	53248	1	53248	1	0.7	53248	red	blue	1	6	ml	2.7.3	bip	sub-03_ses-01_task-ml_proj-bip_2020-10-27-10-13-46.535960
283	3	1	6	284	volatile	5	20	4	sv	red	blue	red	blue	left	right	0.7	0.30000000000000004	4	2	2.8	0.6000000000000001	1	0	0.7	0.30000000000000004	4	2	2.8	0.6000000000000001	valid	0.3832495539991214	51200.0	0	0.0	1.0	51200	1	51200	1	51200	1	0.7	51200	red	blue	1	4	ml	2.7.3	bip	sub-03_ses-01_task-ml_proj-bip_2020-10-27-10-13-46.535960
284	3	1	6	285	volatile	5	20	5	sv	blue	red	red	blue	right	left	0.7	0.30000000000000004	2	6	1.4	1.8000000000000005	1	0	0.30000000000000004	0.7	6	2	1.8000000000000005	1.4	valid	0.3999260009986756	53248.0	0	1.0	1.0	51200	0	53248	1	51200	0	0.7	53248	red	blue	0	2	ml	2.7.3	bip	sub-03_ses-01_task-ml_proj-bip_2020-10-27-10-13-46.535960
285	3	1	6	286	volatile	5	20	6	sv	blue	red	red	blue	right	left	0.7	0.30000000000000004	6	6	4.199999999999998	1.8000000000000005	1	0	0.30000000000000004	0.7	6	6	1.8000000000000005	4.199999999999998	valid	0.5498662449990661	53248.0	0	1.0	1.0	53248	1	53248	1	53248	1	0.7	53248	red	blue	0	6	ml	2.7.3	bip	sub-03_ses-01_task-ml_proj-bip_2020-10-27-10-13-46.535960
286	3	1	6	287	volatile	5	20	7	sv	blue	red	red	blue	right	left	0.7	0.30000000000000004	2	2	1.4	0.6000000000000001	1	0	0.30000000000000004	0.7	2	2	0.6000000000000001	1.4	valid	0.7498146399993857	53248.0	0	1.0	1.0	53248	1	53248	1	53248	1	0.7	53248	red	blue	0	2	ml	2.7.3	bip	sub-03_ses-01_task-ml_proj-bip_2020-10-27-10-13-46.535960
287	3	1	6	288	volatile	5	20	8	sv	red	blue	red	blue	left	right	0.7	0.30000000000000004	2	10	1.4	3.0000000000000004	1	0	0.7	0.30000000000000004	2	10	1.4	3.0000000000000004	valid	0.7664756979993399	53248.0	0	1.0	2.0	53248	1	51200	0	53248	1	0.7	51200	red	blue	0	0	ml	2.7.3	bip	sub-03_ses-01_task-ml_proj-bip_2020-10-27-10-13-46.535960
288	3	1	6	289	volatile	5	20	9	sv	red	blue	red	blue	left	right	0.7	0.30000000000000004	10	2	7.0	0.6000000000000001	0	1	0.7	0.30000000000000004	10	2	7.0	0.6000000000000001	invalid	0.5498654350012657	51200.0	0	0.0	1.0	51200	1	51200	1	51200	1	0.7	51200	red	blue	1	0	ml	2.7.3	bip	sub-03_ses-01_task-ml_proj-bip_2020-10-27-10-13-46.535960
289	3	1	6	290	volatile	5	20	10	sv	red	blue	red	blue	left	right	0.7	0.30000000000000004	4	2	2.8	0.6000000000000001	1	0	0.7	0.30000000000000004	4	2	2.8	0.6000000000000001	valid	0.5165426709991152	51200.0	0	0.0	1.0	51200	1	51200	1	51200	1	0.7	51200	red	blue	1	4	ml	2.7.3	bip	sub-03_ses-01_task-ml_proj-bip_2020-10-27-10-13-46.535960
290	3	1	6	291	volatile	5	20	11	sv	blue	red	red	blue	right	left	0.7	0.30000000000000004	6	2	4.199999999999998	0.6000000000000001	1	0	0.30000000000000004	0.7	2	6	0.6000000000000001	4.199999999999998	valid	0.3832581469996512	53248.0	0	1.0	1.0	53248	1	53248	1	53248	1	0.7	53248	red	blue	1	6	ml	2.7.3	bip	sub-03_ses-01_task-ml_proj-bip_2020-10-27-10-13-46.535960
291	3	1	6	292	volatile	5	20	12	sv	red	blue	red	blue	left	right	0.7	0.30000000000000004	6	4	4.199999999999998	1.2000000000000002	1	0	0.7	0.30000000000000004	6	4	4.199999999999998	1.2000000000000002	valid	0.3665827669992723	51200.0	0	0.0	1.0	51200	1	51200	1	51200	1	0.7	51200	red	blue	1	6	ml	2.7.3	bip	sub-03_ses-01_task-ml_proj-bip_2020-10-27-10-13-46.535960
292	3	1	6	293	volatile	5	20	13	sv	red	blue	red	blue	left	right	0.7	0.30000000000000004	6	4	4.199999999999998	1.2000000000000002	0	1	0.7	0.30000000000000004	6	4	4.199999999999998	1.2000000000000002	invalid	0.39990807300091546	51200.0	0	0.0	1.0	51200	1	51200	1	51200	1	0.7	51200	red	blue	1	0	ml	2.7.3	bip	sub-03_ses-01_task-ml_proj-bip_2020-10-27-10-13-46.535960
