Unnamed: 0	sub_id	ses_id	block_no	trial_no	phase_type	phase_no	phase_length	trialInPhase_no	phase_type_order	color_left	color_right	color1	color2	position1	position2	prob1	prob2	mag1	mag2	ev1	ev2	outcome1	outcome2	prob_left	prob_right	mag_left	mag_right	ev_left	ev_right	reward_validity	resp_time	resp_key	timeout	choice_side	choice	ev_corr_resp	ev_correct	prob_corr_resp	prob_correct	mag_corr_resp	mag_correct	high_prob	high_prob_side	high_prob_color	low_prob_color	no_brain	reward	name	version	proj_id	logFileID
0	8	1	1	1	volatile	1	20	1	vs	purple	turquoise	turquoise	purple	right	left	0.7	0.30000000000000004	6	4	4.199999999999998	1.2000000000000002	1	0	0.30000000000000004	0.7	4	6	1.2000000000000002	4.199999999999998	valid	0.999740899000244	53248.0	0	1.0	1.0	53248	1	53248	1	53248	1	0.7	53248	turquoise	purple	1	6	ml	2.7.3	bip	sub-08_ses-01_task-ml_proj-bip_2020-11-24-10-29-25.462673
1	8	1	1	2	volatile	1	20	2	vs	purple	turquoise	turquoise	purple	right	left	0.7	0.30000000000000004	6	4	4.199999999999998	1.2000000000000002	1	0	0.30000000000000004	0.7	4	6	1.2000000000000002	4.199999999999998	valid	0.7831351069999073	53248.0	0	1.0	1.0	53248	1	53248	1	53248	1	0.7	53248	turquoise	purple	1	6	ml	2.7.3	bip	sub-08_ses-01_task-ml_proj-bip_2020-11-24-10-29-25.462673
2	8	1	1	3	volatile	1	20	3	vs	turquoise	purple	turquoise	purple	left	right	0.7	0.30000000000000004	2	4	1.4	1.2000000000000002	1	0	0.7	0.30000000000000004	2	4	1.4	1.2000000000000002	valid	0.6998299970000517	51200.0	0	0.0	1.0	51200	1	51200	1	53248	0	0.7	51200	turquoise	purple	0	2	ml	2.7.3	bip	sub-08_ses-01_task-ml_proj-bip_2020-11-24-10-29-25.462673
3	8	1	1	4	volatile	1	20	4	vs	purple	turquoise	turquoise	purple	right	left	0.7	0.30000000000000004	10	2	7.0	0.6000000000000001	1	0	0.30000000000000004	0.7	2	10	0.6000000000000001	7.0	valid	0.8831127779994858	53248.0	0	1.0	1.0	53248	1	53248	1	53248	1	0.7	53248	turquoise	purple	1	10	ml	2.7.3	bip	sub-08_ses-01_task-ml_proj-bip_2020-11-24-10-29-25.462673
4	8	1	1	5	volatile	1	20	5	vs	turquoise	purple	turquoise	purple	left	right	0.7	0.30000000000000004	2	6	1.4	1.8000000000000005	0	1	0.7	0.30000000000000004	2	6	1.4	1.8000000000000005	invalid	0.7997960289994808	51200.0	0	0.0	1.0	53248	0	51200	1	53248	0	0.7	51200	turquoise	purple	0	0	ml	2.7.3	bip	sub-08_ses-01_task-ml_proj-bip_2020-11-24-10-29-25.462673
5	8	1	1	6	volatile	1	20	6	vs	purple	turquoise	turquoise	purple	right	left	0.7	0.30000000000000004	2	4	1.4	1.2000000000000002	1	0	0.30000000000000004	0.7	4	2	1.2000000000000002	1.4	valid	0.6665018189996772	51200.0	0	0.0	2.0	53248	0	53248	0	51200	1	0.7	53248	turquoise	purple	0	0	ml	2.7.3	bip	sub-08_ses-01_task-ml_proj-bip_2020-11-24-10-29-25.462673
6	8	1	1	7	volatile	1	20	7	vs	turquoise	purple	turquoise	purple	left	right	0.7	0.30000000000000004	6	2	4.199999999999998	0.6000000000000001	0	1	0.7	0.30000000000000004	6	2	4.199999999999998	0.6000000000000001	invalid	0.5831934729994828	51200.0	0	0.0	1.0	51200	1	51200	1	51200	1	0.7	51200	turquoise	purple	1	0	ml	2.7.3	bip	sub-08_ses-01_task-ml_proj-bip_2020-11-24-10-29-25.462673
7	8	1	1	8	volatile	1	20	8	vs	turquoise	purple	turquoise	purple	left	right	0.7	0.30000000000000004	10	2	7.0	0.6000000000000001	1	0	0.7	0.30000000000000004	10	2	7.0	0.6000000000000001	valid	1.699533707000228	51200.0	0	0.0	1.0	51200	1	51200	1	51200	1	0.7	51200	turquoise	purple	1	10	ml	2.7.3	bip	sub-08_ses-01_task-ml_proj-bip_2020-11-24-10-29-25.462673
8	8	1	1	9	volatile	1	20	9	vs	turquoise	purple	turquoise	purple	left	right	0.7	0.30000000000000004	2	4	1.4	1.2000000000000002	1	0	0.7	0.30000000000000004	2	4	1.4	1.2000000000000002	valid	0.9997365640010684	51200.0	0	0.0	1.0	51200	1	51200	1	53248	0	0.7	51200	turquoise	purple	0	2	ml	2.7.3	bip	sub-08_ses-01_task-ml_proj-bip_2020-11-24-10-29-25.462673
9	8	1	1	10	volatile	1	20	10	vs	purple	turquoise	turquoise	purple	right	left	0.7	0.30000000000000004	6	6	4.199999999999998	1.8000000000000005	0	1	0.30000000000000004	0.7	6	6	1.8000000000000005	4.199999999999998	invalid	0.4332455860003392	53248.0	0	1.0	1.0	53248	1	53248	1	53248	1	0.7	53248	turquoise	purple	0	0	ml	2.7.3	bip	sub-08_ses-01_task-ml_proj-bip_2020-11-24-10-29-25.462673
10	8	1	1	11	volatile	1	20	11	vs	purple	turquoise	turquoise	purple	right	left	0.7	0.30000000000000004	2	4	1.4	1.2000000000000002	1	0	0.30000000000000004	0.7	4	2	1.2000000000000002	1.4	valid	0.9664133179994678	51200.0	0	0.0	2.0	53248	0	53248	0	51200	1	0.7	53248	turquoise	purple	0	0	ml	2.7.3	bip	sub-08_ses-01_task-ml_proj-bip_2020-11-24-10-29-25.462673
11	8	1	1	12	volatile	1	20	12	vs	purple	turquoise	turquoise	purple	right	left	0.7	0.30000000000000004	6	2	4.199999999999998	0.6000000000000001	1	0	0.30000000000000004	0.7	2	6	0.6000000000000001	4.199999999999998	valid	0.5832034159993782	53248.0	0	1.0	1.0	53248	1	53248	1	53248	1	0.7	53248	turquoise	purple	1	6	ml	2.7.3	bip	sub-08_ses-01_task-ml_proj-bip_2020-11-24-10-29-25.462673
12	8	1	1	13	volatile	1	20	13	vs	purple	turquoise	turquoise	purple	right	left	0.7	0.30000000000000004	4	6	2.8	1.8000000000000005	1	0	0.30000000000000004	0.7	6	4	1.8000000000000005	2.8	valid	0.5665446559996781	53248.0	0	1.0	1.0	53248	1	53248	1	51200	0	0.7	53248	turquoise	purple	0	4	ml	2.7.3	bip	sub-08_ses-01_task-ml_proj-bip_2020-11-24-10-29-25.462673
13	8	1	1	14	volatile	1	20	14	vs	turquoise	purple	turquoise	purple	left	right	0.7	0.30000000000000004	2	2	1.4	0.6000000000000001	1	0	0.7	0.30000000000000004	2	2	1.4	0.6000000000000001	valid	1.4662736849986686	51200.0	0	0.0	1.0	51200	1	51200	1	53248	0	0.7	51200	turquoise	purple	1	2	ml	2.7.3	bip	sub-08_ses-01_task-ml_proj-bip_2020-11-24-10-29-25.462673
14	8	1	1	15	volatile	1	20	15	vs	turquoise	purple	turquoise	purple	left	right	0.7	0.30000000000000004	6	4	4.199999999999998	1.2000000000000002	0	1	0.7	0.30000000000000004	6	4	4.199999999999998	1.2000000000000002	invalid	0.7498103719990468	51200.0	0	0.0	1.0	51200	1	51200	1	51200	1	0.7	51200	turquoise	purple	1	0	ml	2.7.3	bip	sub-08_ses-01_task-ml_proj-bip_2020-11-24-10-29-25.462673
15	8	1	1	16	volatile	1	20	16	vs	purple	turquoise	turquoise	purple	right	left	0.7	0.30000000000000004	6	6	4.199999999999998	1.8000000000000005	0	1	0.30000000000000004	0.7	6	6	1.8000000000000005	4.199999999999998	invalid	0.4332347979998303	51200.0	0	0.0	2.0	53248	0	53248	0	53248	0	0.7	53248	turquoise	purple	0	6	ml	2.7.3	bip	sub-08_ses-01_task-ml_proj-bip_2020-11-24-10-29-25.462673
16	8	1	1	17	volatile	1	20	17	vs	purple	turquoise	turquoise	purple	right	left	0.7	0.30000000000000004	2	2	1.4	0.6000000000000001	0	1	0.30000000000000004	0.7	2	2	0.6000000000000001	1.4	invalid	0.7164871229997516	51200.0	0	0.0	2.0	53248	0	53248	0	53248	0	0.7	53248	turquoise	purple	0	2	ml	2.7.3	bip	sub-08_ses-01_task-ml_proj-bip_2020-11-24-10-29-25.462673
17	8	1	1	18	volatile	1	20	18	vs	turquoise	purple	turquoise	purple	left	right	0.7	0.30000000000000004	2	10	1.4	3.0000000000000004	1	0	0.7	0.30000000000000004	2	10	1.4	3.0000000000000004	valid	0.5832027129999915	53248.0	0	1.0	2.0	53248	1	51200	0	53248	1	0.7	51200	turquoise	purple	0	0	ml	2.7.3	bip	sub-08_ses-01_task-ml_proj-bip_2020-11-24-10-29-25.462673
18	8	1	1	19	volatile	1	20	19	vs	turquoise	purple	turquoise	purple	left	right	0.7	0.30000000000000004	10	2	7.0	0.6000000000000001	1	0	0.7	0.30000000000000004	10	2	7.0	0.6000000000000001	valid	1.083039983001072	51200.0	0	0.0	1.0	51200	1	51200	1	51200	1	0.7	51200	turquoise	purple	1	10	ml	2.7.3	bip	sub-08_ses-01_task-ml_proj-bip_2020-11-24-10-29-25.462673
19	8	1	1	20	volatile	1	20	20	vs	turquoise	purple	turquoise	purple	left	right	0.7	0.30000000000000004	6	2	4.199999999999998	0.6000000000000001	1	0	0.7	0.30000000000000004	6	2	4.199999999999998	0.6000000000000001	valid	0.4498939730001439	51200.0	0	0.0	1.0	51200	1	51200	1	51200	1	0.7	51200	turquoise	purple	1	6	ml	2.7.3	bip	sub-08_ses-01_task-ml_proj-bip_2020-11-24-10-29-25.462673
20	8	1	1	21	volatile	2	40	1	vs	turquoise	purple	turquoise	purple	left	right	0.30000000000000004	0.7	6	4	1.8000000000000005	2.8	1	0	0.30000000000000004	0.7	6	4	1.8000000000000005	2.8	invalid	0.5665293570000358	51200.0	0	0.0	1.0	53248	0	53248	0	51200	1	0.7	53248	purple	turquoise	0	6	ml	2.7.3	bip	sub-08_ses-01_task-ml_proj-bip_2020-11-24-10-29-25.462673
21	8	1	1	22	volatile	2	40	2	vs	turquoise	purple	turquoise	purple	left	right	0.30000000000000004	0.7	6	6	1.8000000000000005	4.199999999999998	1	0	0.30000000000000004	0.7	6	6	1.8000000000000005	4.199999999999998	invalid	0.6165151539989893	51200.0	0	0.0	1.0	53248	0	53248	0	53248	0	0.7	53248	purple	turquoise	0	6	ml	2.7.3	bip	sub-08_ses-01_task-ml_proj-bip_2020-11-24-10-29-25.462673
22	8	1	1	23	volatile	2	40	3	vs	purple	turquoise	turquoise	purple	right	left	0.30000000000000004	0.7	4	6	1.2000000000000002	4.199999999999998	0	1	0.7	0.30000000000000004	6	4	4.199999999999998	1.2000000000000002	valid	0.6165251660004287	53248.0	0	1.0	1.0	51200	0	51200	0	51200	0	0.7	51200	purple	turquoise	1	0	ml	2.7.3	bip	sub-08_ses-01_task-ml_proj-bip_2020-11-24-10-29-25.462673
23	8	1	1	24	volatile	2	40	4	vs	turquoise	purple	turquoise	purple	left	right	0.30000000000000004	0.7	10	2	3.0000000000000004	1.4	0	1	0.30000000000000004	0.7	10	2	3.0000000000000004	1.4	valid	1.6995360019991494	51200.0	0	0.0	1.0	51200	1	53248	0	51200	1	0.7	53248	purple	turquoise	0	0	ml	2.7.3	bip	sub-08_ses-01_task-ml_proj-bip_2020-11-24-10-29-25.462673
24	8	1	1	25	volatile	2	40	5	vs	turquoise	purple	turquoise	purple	left	right	0.30000000000000004	0.7	4	6	1.2000000000000002	4.199999999999998	0	1	0.30000000000000004	0.7	4	6	1.2000000000000002	4.199999999999998	valid	0.383259578000434	53248.0	0	1.0	2.0	53248	1	53248	1	53248	1	0.7	53248	purple	turquoise	1	6	ml	2.7.3	bip	sub-08_ses-01_task-ml_proj-bip_2020-11-24-10-29-25.462673
25	8	1	1	26	volatile	2	40	6	vs	purple	turquoise	turquoise	purple	right	left	0.30000000000000004	0.7	6	6	1.8000000000000005	4.199999999999998	0	1	0.7	0.30000000000000004	6	6	4.199999999999998	1.8000000000000005	valid	0.4665571149998868	51200.0	0	0.0	2.0	51200	1	51200	1	53248	0	0.7	51200	purple	turquoise	1	6	ml	2.7.3	bip	sub-08_ses-01_task-ml_proj-bip_2020-11-24-10-29-25.462673
26	8	1	1	27	volatile	2	40	7	vs	turquoise	purple	turquoise	purple	left	right	0.30000000000000004	0.7	4	6	1.2000000000000002	4.199999999999998	0	1	0.30000000000000004	0.7	4	6	1.2000000000000002	4.199999999999998	valid	0.8664493739997852	53248.0	0	1.0	2.0	53248	1	53248	1	53248	1	0.7	53248	purple	turquoise	1	6	ml	2.7.3	bip	sub-08_ses-01_task-ml_proj-bip_2020-11-24-10-29-25.462673
27	8	1	1	28	volatile	2	40	8	vs	turquoise	purple	turquoise	purple	left	right	0.30000000000000004	0.7	2	4	0.6000000000000001	2.8	1	0	0.30000000000000004	0.7	2	4	0.6000000000000001	2.8	invalid	1.049728440000763	53248.0	0	1.0	2.0	53248	1	53248	1	53248	1	0.7	53248	purple	turquoise	1	0	ml	2.7.3	bip	sub-08_ses-01_task-ml_proj-bip_2020-11-24-10-29-25.462673
28	8	1	1	29	volatile	2	40	9	vs	turquoise	purple	turquoise	purple	left	right	0.30000000000000004	0.7	10	2	3.0000000000000004	1.4	0	1	0.30000000000000004	0.7	10	2	3.0000000000000004	1.4	valid	0.3999167520014453	51200.0	0	0.0	1.0	51200	1	53248	0	51200	1	0.7	53248	purple	turquoise	0	0	ml	2.7.3	bip	sub-08_ses-01_task-ml_proj-bip_2020-11-24-10-29-25.462673
29	8	1	1	30	volatile	2	40	10	vs	purple	turquoise	turquoise	purple	right	left	0.30000000000000004	0.7	4	6	1.2000000000000002	4.199999999999998	0	1	0.7	0.30000000000000004	6	4	4.199999999999998	1.2000000000000002	valid	0.43323603099997854	51200.0	0	0.0	2.0	51200	1	51200	1	51200	1	0.7	51200	purple	turquoise	1	6	ml	2.7.3	bip	sub-08_ses-01_task-ml_proj-bip_2020-11-24-10-29-25.462673
30	8	1	1	31	volatile	2	40	11	vs	purple	turquoise	turquoise	purple	right	left	0.30000000000000004	0.7	2	10	0.6000000000000001	7.0	0	1	0.7	0.30000000000000004	10	2	7.0	0.6000000000000001	valid	0.5998542990000715	51200.0	0	0.0	2.0	51200	1	51200	1	51200	1	0.7	51200	purple	turquoise	1	10	ml	2.7.3	bip	sub-08_ses-01_task-ml_proj-bip_2020-11-24-10-29-25.462673
31	8	1	1	32	volatile	2	40	12	vs	purple	turquoise	turquoise	purple	right	left	0.30000000000000004	0.7	2	6	0.6000000000000001	4.199999999999998	0	1	0.7	0.30000000000000004	6	2	4.199999999999998	0.6000000000000001	valid	0.3665851940004359	51200.0	0	0.0	2.0	51200	1	51200	1	51200	1	0.7	51200	purple	turquoise	1	6	ml	2.7.3	bip	sub-08_ses-01_task-ml_proj-bip_2020-11-24-10-29-25.462673
32	8	1	1	33	volatile	2	40	13	vs	purple	turquoise	turquoise	purple	right	left	0.30000000000000004	0.7	6	6	1.8000000000000005	4.199999999999998	1	0	0.7	0.30000000000000004	6	6	4.199999999999998	1.8000000000000005	invalid	0.8997598010009824	51200.0	0	0.0	2.0	51200	1	51200	1	53248	0	0.7	51200	purple	turquoise	1	0	ml	2.7.3	bip	sub-08_ses-01_task-ml_proj-bip_2020-11-24-10-29-25.462673
33	8	1	1	34	volatile	2	40	14	vs	purple	turquoise	turquoise	purple	right	left	0.30000000000000004	0.7	6	2	1.8000000000000005	1.4	0	1	0.7	0.30000000000000004	2	6	1.4	1.8000000000000005	valid	0.4998983250006859	53248.0	0	1.0	1.0	53248	1	51200	0	53248	1	0.7	51200	purple	turquoise	0	0	ml	2.7.3	bip	sub-08_ses-01_task-ml_proj-bip_2020-11-24-10-29-25.462673
34	8	1	1	35	volatile	2	40	15	vs	purple	turquoise	turquoise	purple	right	left	0.30000000000000004	0.7	2	4	0.6000000000000001	2.8	1	0	0.7	0.30000000000000004	4	2	2.8	0.6000000000000001	invalid	0.4332345940001687	51200.0	0	0.0	2.0	51200	1	51200	1	51200	1	0.7	51200	purple	turquoise	1	0	ml	2.7.3	bip	sub-08_ses-01_task-ml_proj-bip_2020-11-24-10-29-25.462673
35	8	1	1	36	volatile	2	40	16	vs	purple	turquoise	turquoise	purple	right	left	0.30000000000000004	0.7	2	6	0.6000000000000001	4.199999999999998	0	1	0.7	0.30000000000000004	6	2	4.199999999999998	0.6000000000000001	valid	0.4832386200014298	53248.0	0	1.0	1.0	51200	0	51200	0	51200	0	0.7	51200	purple	turquoise	1	0	ml	2.7.3	bip	sub-08_ses-01_task-ml_proj-bip_2020-11-24-10-29-25.462673
36	8	1	1	37	volatile	2	40	17	vs	turquoise	purple	turquoise	purple	left	right	0.30000000000000004	0.7	2	10	0.6000000000000001	7.0	0	1	0.30000000000000004	0.7	2	10	0.6000000000000001	7.0	valid	0.4832297299999482	53248.0	0	1.0	2.0	53248	1	53248	1	53248	1	0.7	53248	purple	turquoise	1	10	ml	2.7.3	bip	sub-08_ses-01_task-ml_proj-bip_2020-11-24-10-29-25.462673
37	8	1	1	38	volatile	2	40	18	vs	turquoise	purple	turquoise	purple	left	right	0.30000000000000004	0.7	6	4	1.8000000000000005	2.8	0	1	0.30000000000000004	0.7	6	4	1.8000000000000005	2.8	valid	0.3832594220002648	53248.0	0	1.0	2.0	53248	1	53248	1	51200	0	0.7	53248	purple	turquoise	0	4	ml	2.7.3	bip	sub-08_ses-01_task-ml_proj-bip_2020-11-24-10-29-25.462673
38	8	1	1	39	volatile	2	40	19	vs	turquoise	purple	turquoise	purple	left	right	0.30000000000000004	0.7	4	2	1.2000000000000002	1.4	0	1	0.30000000000000004	0.7	4	2	1.2000000000000002	1.4	valid	0.4332456049996836	53248.0	0	1.0	2.0	53248	1	53248	1	51200	0	0.7	53248	purple	turquoise	0	2	ml	2.7.3	bip	sub-08_ses-01_task-ml_proj-bip_2020-11-24-10-29-25.462673
39	8	1	1	40	volatile	2	40	20	vs	turquoise	purple	turquoise	purple	left	right	0.30000000000000004	0.7	6	6	1.8000000000000005	4.199999999999998	0	1	0.30000000000000004	0.7	6	6	1.8000000000000005	4.199999999999998	valid	0.5332163940001919	53248.0	0	1.0	2.0	53248	1	53248	1	53248	1	0.7	53248	purple	turquoise	0	6	ml	2.7.3	bip	sub-08_ses-01_task-ml_proj-bip_2020-11-24-10-29-25.462673
40	8	1	1	41	volatile	2	40	21	vs	purple	turquoise	turquoise	purple	right	left	0.30000000000000004	0.7	10	2	3.0000000000000004	1.4	0	1	0.7	0.30000000000000004	2	10	1.4	3.0000000000000004	valid	0.5332149030000437	51200.0	0	0.0	2.0	53248	0	51200	1	53248	0	0.7	51200	purple	turquoise	0	2	ml	2.7.3	bip	sub-08_ses-01_task-ml_proj-bip_2020-11-24-10-29-25.462673
41	8	1	1	42	volatile	2	40	22	vs	turquoise	purple	turquoise	purple	left	right	0.30000000000000004	0.7	4	2	1.2000000000000002	1.4	0	1	0.30000000000000004	0.7	4	2	1.2000000000000002	1.4	valid	0.3832529640003486	53248.0	0	1.0	2.0	53248	1	53248	1	51200	0	0.7	53248	purple	turquoise	0	2	ml	2.7.3	bip	sub-08_ses-01_task-ml_proj-bip_2020-11-24-10-29-25.462673
42	8	1	1	43	volatile	2	40	23	vs	turquoise	purple	turquoise	purple	left	right	0.30000000000000004	0.7	2	6	0.6000000000000001	4.199999999999998	0	1	0.30000000000000004	0.7	2	6	0.6000000000000001	4.199999999999998	valid	0.5165565850002167	53248.0	0	1.0	2.0	53248	1	53248	1	53248	1	0.7	53248	purple	turquoise	1	6	ml	2.7.3	bip	sub-08_ses-01_task-ml_proj-bip_2020-11-24-10-29-25.462673
43	8	1	1	44	volatile	2	40	24	vs	turquoise	purple	turquoise	purple	left	right	0.30000000000000004	0.7	2	10	0.6000000000000001	7.0	1	0	0.30000000000000004	0.7	2	10	0.6000000000000001	7.0	invalid	1.249678223999581	53248.0	0	1.0	2.0	53248	1	53248	1	53248	1	0.7	53248	purple	turquoise	1	0	ml	2.7.3	bip	sub-08_ses-01_task-ml_proj-bip_2020-11-24-10-29-25.462673
44	8	1	1	45	volatile	2	40	25	vs	turquoise	purple	turquoise	purple	left	right	0.30000000000000004	0.7	6	2	1.8000000000000005	1.4	1	0	0.30000000000000004	0.7	6	2	1.8000000000000005	1.4	invalid	0.3832500779990369	51200.0	0	0.0	1.0	51200	1	53248	0	51200	1	0.7	53248	purple	turquoise	0	6	ml	2.7.3	bip	sub-08_ses-01_task-ml_proj-bip_2020-11-24-10-29-25.462673
45	8	1	1	46	volatile	2	40	26	vs	purple	turquoise	turquoise	purple	right	left	0.30000000000000004	0.7	2	2	0.6000000000000001	1.4	0	1	0.7	0.30000000000000004	2	2	1.4	0.6000000000000001	valid	0.4165822429986292	53248.0	0	1.0	1.0	51200	0	51200	0	53248	1	0.7	51200	purple	turquoise	1	0	ml	2.7.3	bip	sub-08_ses-01_task-ml_proj-bip_2020-11-24-10-29-25.462673
46	8	1	1	47	volatile	2	40	27	vs	purple	turquoise	turquoise	purple	right	left	0.30000000000000004	0.7	6	4	1.8000000000000005	2.8	1	0	0.7	0.30000000000000004	4	6	2.8	1.8000000000000005	invalid	0.7164837580003223	51200.0	0	0.0	2.0	51200	1	51200	1	53248	0	0.7	51200	purple	turquoise	0	0	ml	2.7.3	bip	sub-08_ses-01_task-ml_proj-bip_2020-11-24-10-29-25.462673
47	8	1	1	48	volatile	2	40	28	vs	turquoise	purple	turquoise	purple	left	right	0.30000000000000004	0.7	6	2	1.8000000000000005	1.4	0	1	0.30000000000000004	0.7	6	2	1.8000000000000005	1.4	valid	0.483217702998445	51200.0	0	0.0	1.0	51200	1	53248	0	51200	1	0.7	53248	purple	turquoise	0	0	ml	2.7.3	bip	sub-08_ses-01_task-ml_proj-bip_2020-11-24-10-29-25.462673
48	8	1	1	49	volatile	2	40	29	vs	turquoise	purple	turquoise	purple	left	right	0.30000000000000004	0.7	2	2	0.6000000000000001	1.4	0	1	0.30000000000000004	0.7	2	2	0.6000000000000001	1.4	valid	0.5831970130002446	53248.0	0	1.0	2.0	53248	1	53248	1	53248	1	0.7	53248	purple	turquoise	0	2	ml	2.7.3	bip	sub-08_ses-01_task-ml_proj-bip_2020-11-24-10-29-25.462673
49	8	1	1	50	volatile	2	40	30	vs	turquoise	purple	turquoise	purple	left	right	0.30000000000000004	0.7	2	6	0.6000000000000001	4.199999999999998	1	0	0.30000000000000004	0.7	2	6	0.6000000000000001	4.199999999999998	invalid	0.3999279279996699	53248.0	0	1.0	2.0	53248	1	53248	1	53248	1	0.7	53248	purple	turquoise	1	0	ml	2.7.3	bip	sub-08_ses-01_task-ml_proj-bip_2020-11-24-10-29-25.462673
50	8	1	2	51	volatile	2	40	31	vs	purple	turquoise	turquoise	purple	right	left	0.30000000000000004	0.7	6	4	1.8000000000000005	2.8	0	1	0.7	0.30000000000000004	4	6	2.8	1.8000000000000005	valid	1.0164099799985706	53248.0	0	1.0	1.0	51200	0	51200	0	53248	1	0.7	51200	purple	turquoise	0	0	ml	2.7.3	bip	sub-08_ses-01_task-ml_proj-bip_2020-11-24-10-29-25.462673
51	8	1	2	52	volatile	2	40	32	vs	purple	turquoise	turquoise	purple	right	left	0.30000000000000004	0.7	2	10	0.6000000000000001	7.0	0	1	0.7	0.30000000000000004	10	2	7.0	0.6000000000000001	valid	0.5665293090005434	51200.0	0	0.0	2.0	51200	1	51200	1	51200	1	0.7	51200	purple	turquoise	1	10	ml	2.7.3	bip	sub-08_ses-01_task-ml_proj-bip_2020-11-24-10-29-25.462673
52	8	1	2	53	volatile	2	40	33	vs	purple	turquoise	turquoise	purple	right	left	0.30000000000000004	0.7	4	2	1.2000000000000002	1.4	0	1	0.7	0.30000000000000004	2	4	1.4	1.2000000000000002	valid	0.3832464799997979	51200.0	0	0.0	2.0	51200	1	51200	1	53248	0	0.7	51200	purple	turquoise	0	2	ml	2.7.3	bip	sub-08_ses-01_task-ml_proj-bip_2020-11-24-10-29-25.462673
53	8	1	2	54	volatile	2	40	34	vs	purple	turquoise	turquoise	purple	right	left	0.30000000000000004	0.7	2	2	0.6000000000000001	1.4	0	1	0.7	0.30000000000000004	2	2	1.4	0.6000000000000001	valid	0.3832443179999245	51200.0	0	0.0	2.0	51200	1	51200	1	53248	0	0.7	51200	purple	turquoise	1	2	ml	2.7.3	bip	sub-08_ses-01_task-ml_proj-bip_2020-11-24-10-29-25.462673
54	8	1	2	55	volatile	2	40	35	vs	purple	turquoise	turquoise	purple	right	left	0.30000000000000004	0.7	6	2	1.8000000000000005	1.4	0	1	0.7	0.30000000000000004	2	6	1.4	1.8000000000000005	valid	0.3665874559992517	51200.0	0	0.0	2.0	53248	0	51200	1	53248	0	0.7	51200	purple	turquoise	0	2	ml	2.7.3	bip	sub-08_ses-01_task-ml_proj-bip_2020-11-24-10-29-25.462673
55	8	1	2	56	volatile	2	40	36	vs	turquoise	purple	turquoise	purple	left	right	0.30000000000000004	0.7	2	4	0.6000000000000001	2.8	0	1	0.30000000000000004	0.7	2	4	0.6000000000000001	2.8	valid	0.3999215139992885	53248.0	0	1.0	2.0	53248	1	53248	1	53248	1	0.7	53248	purple	turquoise	1	4	ml	2.7.3	bip	sub-08_ses-01_task-ml_proj-bip_2020-11-24-10-29-25.462673
56	8	1	2	57	volatile	2	40	37	vs	turquoise	purple	turquoise	purple	left	right	0.30000000000000004	0.7	2	2	0.6000000000000001	1.4	0	1	0.30000000000000004	0.7	2	2	0.6000000000000001	1.4	valid	0.3666042820004805	53248.0	0	1.0	2.0	53248	1	53248	1	53248	1	0.7	53248	purple	turquoise	0	2	ml	2.7.3	bip	sub-08_ses-01_task-ml_proj-bip_2020-11-24-10-29-25.462673
57	8	1	2	58	volatile	2	40	38	vs	purple	turquoise	turquoise	purple	right	left	0.30000000000000004	0.7	4	2	1.2000000000000002	1.4	1	0	0.7	0.30000000000000004	2	4	1.4	1.2000000000000002	invalid	0.5498689099986223	51200.0	0	0.0	2.0	51200	1	51200	1	53248	0	0.7	51200	purple	turquoise	0	0	ml	2.7.3	bip	sub-08_ses-01_task-ml_proj-bip_2020-11-24-10-29-25.462673
58	8	1	2	59	volatile	2	40	39	vs	purple	turquoise	turquoise	purple	right	left	0.30000000000000004	0.7	10	2	3.0000000000000004	1.4	1	0	0.7	0.30000000000000004	2	10	1.4	3.0000000000000004	invalid	0.3665950350005005	53248.0	0	1.0	1.0	53248	1	51200	0	53248	1	0.7	51200	purple	turquoise	0	10	ml	2.7.3	bip	sub-08_ses-01_task-ml_proj-bip_2020-11-24-10-29-25.462673
59	8	1	2	60	volatile	2	40	40	vs	purple	turquoise	turquoise	purple	right	left	0.30000000000000004	0.7	2	4	0.6000000000000001	2.8	1	0	0.7	0.30000000000000004	4	2	2.8	0.6000000000000001	invalid	0.3332765859995561	53248.0	0	1.0	1.0	51200	0	51200	0	51200	0	0.7	51200	purple	turquoise	1	2	ml	2.7.3	bip	sub-08_ses-01_task-ml_proj-bip_2020-11-24-10-29-25.462673
60	8	1	2	61	volatile	3	20	1	vs	purple	turquoise	turquoise	purple	right	left	0.7	0.30000000000000004	6	4	4.199999999999998	1.2000000000000002	0	1	0.30000000000000004	0.7	4	6	1.2000000000000002	4.199999999999998	invalid	0.3499358870012657	53248.0	0	1.0	1.0	53248	1	53248	1	53248	1	0.7	53248	turquoise	purple	1	0	ml	2.7.3	bip	sub-08_ses-01_task-ml_proj-bip_2020-11-24-10-29-25.462673
61	8	1	2	62	volatile	3	20	2	vs	purple	turquoise	turquoise	purple	right	left	0.7	0.30000000000000004	2	2	1.4	0.6000000000000001	1	0	0.30000000000000004	0.7	2	2	0.6000000000000001	1.4	valid	0.349926928000059	51200.0	0	0.0	2.0	53248	0	53248	0	53248	0	0.7	53248	turquoise	purple	0	0	ml	2.7.3	bip	sub-08_ses-01_task-ml_proj-bip_2020-11-24-10-29-25.462673
62	8	1	2	63	volatile	3	20	3	vs	turquoise	purple	turquoise	purple	left	right	0.7	0.30000000000000004	4	2	2.8	0.6000000000000001	0	1	0.7	0.30000000000000004	4	2	2.8	0.6000000000000001	invalid	0.4832141150000098	51200.0	0	0.0	1.0	51200	1	51200	1	51200	1	0.7	51200	turquoise	purple	1	0	ml	2.7.3	bip	sub-08_ses-01_task-ml_proj-bip_2020-11-24-10-29-25.462673
63	8	1	2	64	volatile	3	20	4	vs	turquoise	purple	turquoise	purple	left	right	0.7	0.30000000000000004	6	6	4.199999999999998	1.8000000000000005	1	0	0.7	0.30000000000000004	6	6	4.199999999999998	1.8000000000000005	valid	0.3999214750001556	53248.0	0	1.0	2.0	51200	0	51200	0	53248	1	0.7	51200	turquoise	purple	1	0	ml	2.7.3	bip	sub-08_ses-01_task-ml_proj-bip_2020-11-24-10-29-25.462673
64	8	1	2	65	volatile	3	20	5	vs	turquoise	purple	turquoise	purple	left	right	0.7	0.30000000000000004	2	10	1.4	3.0000000000000004	0	1	0.7	0.30000000000000004	2	10	1.4	3.0000000000000004	invalid	0.7331566079992626	53248.0	0	1.0	2.0	53248	1	51200	0	53248	1	0.7	51200	turquoise	purple	0	10	ml	2.7.3	bip	sub-08_ses-01_task-ml_proj-bip_2020-11-24-10-29-25.462673
65	8	1	2	66	volatile	3	20	6	vs	turquoise	purple	turquoise	purple	left	right	0.7	0.30000000000000004	2	4	1.4	1.2000000000000002	1	0	0.7	0.30000000000000004	2	4	1.4	1.2000000000000002	valid	0.36659659299948544	53248.0	0	1.0	2.0	51200	0	51200	0	53248	1	0.7	51200	turquoise	purple	0	0	ml	2.7.3	bip	sub-08_ses-01_task-ml_proj-bip_2020-11-24-10-29-25.462673
66	8	1	2	67	volatile	3	20	7	vs	purple	turquoise	turquoise	purple	right	left	0.7	0.30000000000000004	2	4	1.4	1.2000000000000002	0	1	0.30000000000000004	0.7	4	2	1.2000000000000002	1.4	invalid	0.5498760740010766	53248.0	0	1.0	1.0	53248	1	53248	1	51200	0	0.7	53248	turquoise	purple	0	0	ml	2.7.3	bip	sub-08_ses-01_task-ml_proj-bip_2020-11-24-10-29-25.462673
67	8	1	2	68	volatile	3	20	8	vs	purple	turquoise	turquoise	purple	right	left	0.7	0.30000000000000004	2	2	1.4	0.6000000000000001	1	0	0.30000000000000004	0.7	2	2	0.6000000000000001	1.4	valid	0.8664574100002937	53248.0	0	1.0	1.0	53248	1	53248	1	53248	1	0.7	53248	turquoise	purple	0	2	ml	2.7.3	bip	sub-08_ses-01_task-ml_proj-bip_2020-11-24-10-29-25.462673
68	8	1	2	69	volatile	3	20	9	vs	purple	turquoise	turquoise	purple	right	left	0.7	0.30000000000000004	4	6	2.8	1.8000000000000005	0	1	0.30000000000000004	0.7	6	4	1.8000000000000005	2.8	invalid	0.39991987999928813	53248.0	0	1.0	1.0	53248	1	53248	1	51200	0	0.7	53248	turquoise	purple	0	0	ml	2.7.3	bip	sub-08_ses-01_task-ml_proj-bip_2020-11-24-10-29-25.462673
69	8	1	2	70	volatile	3	20	10	vs	purple	turquoise	turquoise	purple	right	left	0.7	0.30000000000000004	6	2	4.199999999999998	0.6000000000000001	1	0	0.30000000000000004	0.7	2	6	0.6000000000000001	4.199999999999998	valid	1.3829506090005452	51200.0	0	0.0	2.0	53248	0	53248	0	53248	0	0.7	53248	turquoise	purple	1	0	ml	2.7.3	bip	sub-08_ses-01_task-ml_proj-bip_2020-11-24-10-29-25.462673
70	8	1	2	71	volatile	3	20	11	vs	purple	turquoise	turquoise	purple	right	left	0.7	0.30000000000000004	2	10	1.4	3.0000000000000004	1	0	0.30000000000000004	0.7	10	2	3.0000000000000004	1.4	valid	0.8331169489993044	51200.0	0	0.0	2.0	51200	1	53248	0	51200	1	0.7	53248	turquoise	purple	0	0	ml	2.7.3	bip	sub-08_ses-01_task-ml_proj-bip_2020-11-24-10-29-25.462673
71	8	1	2	72	volatile	3	20	12	vs	purple	turquoise	turquoise	purple	right	left	0.7	0.30000000000000004	6	4	4.199999999999998	1.2000000000000002	1	0	0.30000000000000004	0.7	4	6	1.2000000000000002	4.199999999999998	valid	0.3666023340010725	53248.0	0	1.0	1.0	53248	1	53248	1	53248	1	0.7	53248	turquoise	purple	1	6	ml	2.7.3	bip	sub-08_ses-01_task-ml_proj-bip_2020-11-24-10-29-25.462673
72	8	1	2	73	volatile	3	20	13	vs	turquoise	purple	turquoise	purple	left	right	0.7	0.30000000000000004	6	2	4.199999999999998	0.6000000000000001	1	0	0.7	0.30000000000000004	6	2	4.199999999999998	0.6000000000000001	valid	0.4165726459996222	51200.0	0	0.0	1.0	51200	1	51200	1	51200	1	0.7	51200	turquoise	purple	1	6	ml	2.7.3	bip	sub-08_ses-01_task-ml_proj-bip_2020-11-24-10-29-25.462673
73	8	1	2	74	volatile	3	20	14	vs	turquoise	purple	turquoise	purple	left	right	0.7	0.30000000000000004	2	10	1.4	3.0000000000000004	1	0	0.7	0.30000000000000004	2	10	1.4	3.0000000000000004	valid	0.8664426619998267	51200.0	0	0.0	1.0	53248	0	51200	1	53248	0	0.7	51200	turquoise	purple	0	2	ml	2.7.3	bip	sub-08_ses-01_task-ml_proj-bip_2020-11-24-10-29-25.462673
74	8	1	2	75	volatile	3	20	15	vs	turquoise	purple	turquoise	purple	left	right	0.7	0.30000000000000004	10	2	7.0	0.6000000000000001	1	0	0.7	0.30000000000000004	10	2	7.0	0.6000000000000001	valid	0.6831605630013655	51200.0	0	0.0	1.0	51200	1	51200	1	51200	1	0.7	51200	turquoise	purple	1	10	ml	2.7.3	bip	sub-08_ses-01_task-ml_proj-bip_2020-11-24-10-29-25.462673
75	8	1	2	76	volatile	3	20	16	vs	turquoise	purple	turquoise	purple	left	right	0.7	0.30000000000000004	6	6	4.199999999999998	1.8000000000000005	1	0	0.7	0.30000000000000004	6	6	4.199999999999998	1.8000000000000005	valid	0.3999092820013175	51200.0	0	0.0	1.0	51200	1	51200	1	53248	0	0.7	51200	turquoise	purple	1	6	ml	2.7.3	bip	sub-08_ses-01_task-ml_proj-bip_2020-11-24-10-29-25.462673
76	8	1	2	77	volatile	3	20	17	vs	turquoise	purple	turquoise	purple	left	right	0.7	0.30000000000000004	2	6	1.4	1.8000000000000005	1	0	0.7	0.30000000000000004	2	6	1.4	1.8000000000000005	valid	1.1497109319989252	53248.0	0	1.0	2.0	53248	1	51200	0	53248	1	0.7	51200	turquoise	purple	0	0	ml	2.7.3	bip	sub-08_ses-01_task-ml_proj-bip_2020-11-24-10-29-25.462673
77	8	1	2	78	volatile	3	20	18	vs	purple	turquoise	turquoise	purple	right	left	0.7	0.30000000000000004	2	6	1.4	1.8000000000000005	1	0	0.30000000000000004	0.7	6	2	1.8000000000000005	1.4	valid	0.3999208189998171	53248.0	0	1.0	1.0	51200	0	53248	1	51200	0	0.7	53248	turquoise	purple	0	2	ml	2.7.3	bip	sub-08_ses-01_task-ml_proj-bip_2020-11-24-10-29-25.462673
78	8	1	2	79	volatile	3	20	19	vs	turquoise	purple	turquoise	purple	left	right	0.7	0.30000000000000004	2	4	1.4	1.2000000000000002	0	1	0.7	0.30000000000000004	2	4	1.4	1.2000000000000002	invalid	0.3332657859991741	51200.0	0	0.0	1.0	51200	1	51200	1	53248	0	0.7	51200	turquoise	purple	0	0	ml	2.7.3	bip	sub-08_ses-01_task-ml_proj-bip_2020-11-24-10-29-25.462673
79	8	1	2	80	volatile	3	20	20	vs	purple	turquoise	turquoise	purple	right	left	0.7	0.30000000000000004	4	6	2.8	1.8000000000000005	1	0	0.30000000000000004	0.7	6	4	1.8000000000000005	2.8	valid	0.3499239779994241	51200.0	0	0.0	2.0	53248	0	53248	0	51200	1	0.7	53248	turquoise	purple	0	0	ml	2.7.3	bip	sub-08_ses-01_task-ml_proj-bip_2020-11-24-10-29-25.462673
80	8	1	2	81	volatile	4	20	1	vs	turquoise	purple	turquoise	purple	left	right	0.30000000000000004	0.7	6	6	1.8000000000000005	4.199999999999998	1	0	0.30000000000000004	0.7	6	6	1.8000000000000005	4.199999999999998	invalid	0.4165825470008713	53248.0	0	1.0	2.0	53248	1	53248	1	53248	1	0.7	53248	purple	turquoise	0	0	ml	2.7.3	bip	sub-08_ses-01_task-ml_proj-bip_2020-11-24-10-29-25.462673
81	8	1	2	82	volatile	4	20	2	vs	turquoise	purple	turquoise	purple	left	right	0.30000000000000004	0.7	6	2	1.8000000000000005	1.4	0	1	0.30000000000000004	0.7	6	2	1.8000000000000005	1.4	valid	0.3832471120003902	51200.0	0	0.0	1.0	51200	1	53248	0	51200	1	0.7	53248	purple	turquoise	0	0	ml	2.7.3	bip	sub-08_ses-01_task-ml_proj-bip_2020-11-24-10-29-25.462673
82	8	1	2	83	volatile	4	20	3	vs	purple	turquoise	turquoise	purple	right	left	0.30000000000000004	0.7	6	4	1.8000000000000005	2.8	0	1	0.7	0.30000000000000004	4	6	2.8	1.8000000000000005	valid	0.9331025820010836	53248.0	0	1.0	1.0	51200	0	51200	0	53248	1	0.7	51200	purple	turquoise	0	0	ml	2.7.3	bip	sub-08_ses-01_task-ml_proj-bip_2020-11-24-10-29-25.462673
83	8	1	2	84	volatile	4	20	4	vs	turquoise	purple	turquoise	purple	left	right	0.30000000000000004	0.7	2	4	0.6000000000000001	2.8	0	1	0.30000000000000004	0.7	2	4	0.6000000000000001	2.8	valid	0.4165831220016116	53248.0	0	1.0	2.0	53248	1	53248	1	53248	1	0.7	53248	purple	turquoise	1	4	ml	2.7.3	bip	sub-08_ses-01_task-ml_proj-bip_2020-11-24-10-29-25.462673
84	8	1	2	85	volatile	4	20	5	vs	turquoise	purple	turquoise	purple	left	right	0.30000000000000004	0.7	2	10	0.6000000000000001	7.0	1	0	0.30000000000000004	0.7	2	10	0.6000000000000001	7.0	invalid	0.4499072060007165	53248.0	0	1.0	2.0	53248	1	53248	1	53248	1	0.7	53248	purple	turquoise	1	0	ml	2.7.3	bip	sub-08_ses-01_task-ml_proj-bip_2020-11-24-10-29-25.462673
85	8	1	2	86	volatile	4	20	6	vs	purple	turquoise	turquoise	purple	right	left	0.30000000000000004	0.7	6	6	1.8000000000000005	4.199999999999998	0	1	0.7	0.30000000000000004	6	6	4.199999999999998	1.8000000000000005	valid	0.3665997780008183	53248.0	0	1.0	1.0	51200	0	51200	0	53248	1	0.7	51200	purple	turquoise	1	0	ml	2.7.3	bip	sub-08_ses-01_task-ml_proj-bip_2020-11-24-10-29-25.462673
86	8	1	2	87	volatile	4	20	7	vs	turquoise	purple	turquoise	purple	left	right	0.30000000000000004	0.7	2	2	0.6000000000000001	1.4	0	1	0.30000000000000004	0.7	2	2	0.6000000000000001	1.4	valid	0.5498757499990461	53248.0	0	1.0	2.0	53248	1	53248	1	53248	1	0.7	53248	purple	turquoise	0	2	ml	2.7.3	bip	sub-08_ses-01_task-ml_proj-bip_2020-11-24-10-29-25.462673
87	8	1	2	88	volatile	4	20	8	vs	purple	turquoise	turquoise	purple	right	left	0.30000000000000004	0.7	6	4	1.8000000000000005	2.8	0	1	0.7	0.30000000000000004	4	6	2.8	1.8000000000000005	valid	0.4332322059999569	51200.0	0	0.0	2.0	51200	1	51200	1	53248	0	0.7	51200	purple	turquoise	0	4	ml	2.7.3	bip	sub-08_ses-01_task-ml_proj-bip_2020-11-24-10-29-25.462673
88	8	1	2	89	volatile	4	20	9	vs	purple	turquoise	turquoise	purple	right	left	0.30000000000000004	0.7	4	6	1.2000000000000002	4.199999999999998	1	0	0.7	0.30000000000000004	6	4	4.199999999999998	1.2000000000000002	invalid	0.4832200969995029	51200.0	0	0.0	2.0	51200	1	51200	1	51200	1	0.7	51200	purple	turquoise	1	0	ml	2.7.3	bip	sub-08_ses-01_task-ml_proj-bip_2020-11-24-10-29-25.462673
89	8	1	2	90	volatile	4	20	10	vs	turquoise	purple	turquoise	purple	left	right	0.30000000000000004	0.7	2	2	0.6000000000000001	1.4	0	1	0.30000000000000004	0.7	2	2	0.6000000000000001	1.4	valid	0.466558697000437	51200.0	0	0.0	1.0	53248	0	53248	0	53248	0	0.7	53248	purple	turquoise	0	0	ml	2.7.3	bip	sub-08_ses-01_task-ml_proj-bip_2020-11-24-10-29-25.462673
90	8	1	2	91	volatile	4	20	11	vs	turquoise	purple	turquoise	purple	left	right	0.30000000000000004	0.7	4	2	1.2000000000000002	1.4	0	1	0.30000000000000004	0.7	4	2	1.2000000000000002	1.4	valid	0.36660148899864003	53248.0	0	1.0	2.0	53248	1	53248	1	51200	0	0.7	53248	purple	turquoise	0	2	ml	2.7.3	bip	sub-08_ses-01_task-ml_proj-bip_2020-11-24-10-29-25.462673
91	8	1	2	92	volatile	4	20	12	vs	purple	turquoise	turquoise	purple	right	left	0.30000000000000004	0.7	2	6	0.6000000000000001	4.199999999999998	1	0	0.7	0.30000000000000004	6	2	4.199999999999998	0.6000000000000001	invalid	0.3999118049996469	51200.0	0	0.0	2.0	51200	1	51200	1	51200	1	0.7	51200	purple	turquoise	1	0	ml	2.7.3	bip	sub-08_ses-01_task-ml_proj-bip_2020-11-24-10-29-25.462673
92	8	1	2	93	volatile	4	20	13	vs	turquoise	purple	turquoise	purple	left	right	0.30000000000000004	0.7	6	4	1.8000000000000005	2.8	0	1	0.30000000000000004	0.7	6	4	1.8000000000000005	2.8	valid	0.38324283200017817	51200.0	0	0.0	1.0	53248	0	53248	0	51200	1	0.7	53248	purple	turquoise	0	0	ml	2.7.3	bip	sub-08_ses-01_task-ml_proj-bip_2020-11-24-10-29-25.462673
93	8	1	2	94	volatile	4	20	14	vs	purple	turquoise	turquoise	purple	right	left	0.30000000000000004	0.7	2	4	0.6000000000000001	2.8	1	0	0.7	0.30000000000000004	4	2	2.8	0.6000000000000001	invalid	0.3999093849997735	51200.0	0	0.0	2.0	51200	1	51200	1	51200	1	0.7	51200	purple	turquoise	1	0	ml	2.7.3	bip	sub-08_ses-01_task-ml_proj-bip_2020-11-24-10-29-25.462673
94	8	1	2	95	volatile	4	20	15	vs	turquoise	purple	turquoise	purple	left	right	0.30000000000000004	0.7	2	6	0.6000000000000001	4.199999999999998	0	1	0.30000000000000004	0.7	2	6	0.6000000000000001	4.199999999999998	valid	0.7664926409997861	53248.0	0	1.0	2.0	53248	1	53248	1	53248	1	0.7	53248	purple	turquoise	1	6	ml	2.7.3	bip	sub-08_ses-01_task-ml_proj-bip_2020-11-24-10-29-25.462673
95	8	1	2	96	volatile	4	20	16	vs	purple	turquoise	turquoise	purple	right	left	0.30000000000000004	0.7	10	2	3.0000000000000004	1.4	0	1	0.7	0.30000000000000004	2	10	1.4	3.0000000000000004	valid	1.1996725680000964	51200.0	0	0.0	2.0	53248	0	51200	1	53248	0	0.7	51200	purple	turquoise	0	2	ml	2.7.3	bip	sub-08_ses-01_task-ml_proj-bip_2020-11-24-10-29-25.462673
96	8	1	2	97	volatile	4	20	17	vs	purple	turquoise	turquoise	purple	right	left	0.30000000000000004	0.7	2	10	0.6000000000000001	7.0	0	1	0.7	0.30000000000000004	10	2	7.0	0.6000000000000001	valid	0.6165193530014221	51200.0	0	0.0	2.0	51200	1	51200	1	51200	1	0.7	51200	purple	turquoise	1	10	ml	2.7.3	bip	sub-08_ses-01_task-ml_proj-bip_2020-11-24-10-29-25.462673
97	8	1	2	98	volatile	4	20	18	vs	purple	turquoise	turquoise	purple	right	left	0.30000000000000004	0.7	6	2	1.8000000000000005	1.4	0	1	0.7	0.30000000000000004	2	6	1.4	1.8000000000000005	valid	0.6498384569986229	51200.0	0	0.0	2.0	53248	0	51200	1	53248	0	0.7	51200	purple	turquoise	0	2	ml	2.7.3	bip	sub-08_ses-01_task-ml_proj-bip_2020-11-24-10-29-25.462673
98	8	1	2	99	volatile	4	20	19	vs	purple	turquoise	turquoise	purple	right	left	0.30000000000000004	0.7	2	10	0.6000000000000001	7.0	0	1	0.7	0.30000000000000004	10	2	7.0	0.6000000000000001	valid	0.3499241819990857	51200.0	0	0.0	2.0	51200	1	51200	1	51200	1	0.7	51200	purple	turquoise	1	10	ml	2.7.3	bip	sub-08_ses-01_task-ml_proj-bip_2020-11-24-10-29-25.462673
99	8	1	2	100	volatile	4	20	20	vs	turquoise	purple	turquoise	purple	left	right	0.30000000000000004	0.7	2	4	0.6000000000000001	2.8	1	0	0.30000000000000004	0.7	2	4	0.6000000000000001	2.8	invalid	0.3999205100008112	53248.0	0	1.0	2.0	53248	1	53248	1	53248	1	0.7	53248	purple	turquoise	1	0	ml	2.7.3	bip	sub-08_ses-01_task-ml_proj-bip_2020-11-24-10-29-25.462673
100	8	1	3	101	volatile	5	40	1	vs	turquoise	purple	turquoise	purple	left	right	0.7	0.30000000000000004	6	4	4.199999999999998	1.2000000000000002	0	1	0.7	0.30000000000000004	6	4	4.199999999999998	1.2000000000000002	invalid	0.7831328570009646	51200.0	0	0.0	1.0	51200	1	51200	1	51200	1	0.7	51200	turquoise	purple	1	0	ml	2.7.3	bip	sub-08_ses-01_task-ml_proj-bip_2020-11-24-10-29-25.462673
101	8	1	3	102	volatile	5	40	2	vs	turquoise	purple	turquoise	purple	left	right	0.7	0.30000000000000004	4	6	2.8	1.8000000000000005	0	1	0.7	0.30000000000000004	4	6	2.8	1.8000000000000005	invalid	0.3832573830004549	53248.0	0	1.0	2.0	51200	0	51200	0	53248	1	0.7	51200	turquoise	purple	0	6	ml	2.7.3	bip	sub-08_ses-01_task-ml_proj-bip_2020-11-24-10-29-25.462673
102	8	1	3	103	volatile	5	40	3	vs	purple	turquoise	turquoise	purple	right	left	0.7	0.30000000000000004	6	6	4.199999999999998	1.8000000000000005	1	0	0.30000000000000004	0.7	6	6	1.8000000000000005	4.199999999999998	valid	0.4165707329993893	51200.0	0	0.0	2.0	53248	0	53248	0	53248	0	0.7	53248	turquoise	purple	0	0	ml	2.7.3	bip	sub-08_ses-01_task-ml_proj-bip_2020-11-24-10-29-25.462673
103	8	1	3	104	volatile	5	40	4	vs	purple	turquoise	turquoise	purple	right	left	0.7	0.30000000000000004	2	4	1.4	1.2000000000000002	0	1	0.30000000000000004	0.7	4	2	1.2000000000000002	1.4	invalid	0.5332181109988596	53248.0	0	1.0	1.0	53248	1	53248	1	51200	0	0.7	53248	turquoise	purple	0	0	ml	2.7.3	bip	sub-08_ses-01_task-ml_proj-bip_2020-11-24-10-29-25.462673
104	8	1	3	105	volatile	5	40	5	vs	turquoise	purple	turquoise	purple	left	right	0.7	0.30000000000000004	2	2	1.4	0.6000000000000001	1	0	0.7	0.30000000000000004	2	2	1.4	0.6000000000000001	valid	1.2330115449985897	53248.0	0	1.0	2.0	51200	0	51200	0	53248	1	0.7	51200	turquoise	purple	1	0	ml	2.7.3	bip	sub-08_ses-01_task-ml_proj-bip_2020-11-24-10-29-25.462673
105	8	1	3	106	volatile	5	40	6	vs	purple	turquoise	turquoise	purple	right	left	0.7	0.30000000000000004	2	6	1.4	1.8000000000000005	0	1	0.30000000000000004	0.7	6	2	1.8000000000000005	1.4	invalid	0.6331896159990721	53248.0	0	1.0	1.0	51200	0	53248	1	51200	0	0.7	53248	turquoise	purple	0	0	ml	2.7.3	bip	sub-08_ses-01_task-ml_proj-bip_2020-11-24-10-29-25.462673
106	8	1	3	107	volatile	5	40	7	vs	turquoise	purple	turquoise	purple	left	right	0.7	0.30000000000000004	6	2	4.199999999999998	0.6000000000000001	0	1	0.7	0.30000000000000004	6	2	4.199999999999998	0.6000000000000001	invalid	0.7164905490008096	53248.0	0	1.0	2.0	51200	0	51200	0	51200	0	0.7	51200	turquoise	purple	1	2	ml	2.7.3	bip	sub-08_ses-01_task-ml_proj-bip_2020-11-24-10-29-25.462673
107	8	1	3	108	volatile	5	40	8	vs	turquoise	purple	turquoise	purple	left	right	0.7	0.30000000000000004	2	10	1.4	3.0000000000000004	0	1	0.7	0.30000000000000004	2	10	1.4	3.0000000000000004	invalid	0.3832600950008782	53248.0	0	1.0	2.0	53248	1	51200	0	53248	1	0.7	51200	turquoise	purple	0	10	ml	2.7.3	bip	sub-08_ses-01_task-ml_proj-bip_2020-11-24-10-29-25.462673
108	8	1	3	109	volatile	5	40	9	vs	purple	turquoise	turquoise	purple	right	left	0.7	0.30000000000000004	2	4	1.4	1.2000000000000002	1	0	0.30000000000000004	0.7	4	2	1.2000000000000002	1.4	valid	0.6498367370004416	51200.0	0	0.0	2.0	53248	0	53248	0	51200	1	0.7	53248	turquoise	purple	0	0	ml	2.7.3	bip	sub-08_ses-01_task-ml_proj-bip_2020-11-24-10-29-25.462673
109	8	1	3	110	volatile	5	40	10	vs	turquoise	purple	turquoise	purple	left	right	0.7	0.30000000000000004	4	6	2.8	1.8000000000000005	1	0	0.7	0.30000000000000004	4	6	2.8	1.8000000000000005	valid	0.39990937800030224	51200.0	0	0.0	1.0	51200	1	51200	1	53248	0	0.7	51200	turquoise	purple	0	4	ml	2.7.3	bip	sub-08_ses-01_task-ml_proj-bip_2020-11-24-10-29-25.462673
110	8	1	3	111	volatile	5	40	11	vs	turquoise	purple	turquoise	purple	left	right	0.7	0.30000000000000004	6	2	4.199999999999998	0.6000000000000001	1	0	0.7	0.30000000000000004	6	2	4.199999999999998	0.6000000000000001	valid	0.4165727790004894	51200.0	0	0.0	1.0	51200	1	51200	1	51200	1	0.7	51200	turquoise	purple	1	6	ml	2.7.3	bip	sub-08_ses-01_task-ml_proj-bip_2020-11-24-10-29-25.462673
111	8	1	3	112	volatile	5	40	12	vs	turquoise	purple	turquoise	purple	left	right	0.7	0.30000000000000004	6	4	4.199999999999998	1.2000000000000002	1	0	0.7	0.30000000000000004	6	4	4.199999999999998	1.2000000000000002	valid	0.5165411019988824	51200.0	0	0.0	1.0	51200	1	51200	1	51200	1	0.7	51200	turquoise	purple	1	6	ml	2.7.3	bip	sub-08_ses-01_task-ml_proj-bip_2020-11-24-10-29-25.462673
112	8	1	3	113	volatile	5	40	13	vs	purple	turquoise	turquoise	purple	right	left	0.7	0.30000000000000004	4	2	2.8	0.6000000000000001	1	0	0.30000000000000004	0.7	2	4	0.6000000000000001	2.8	valid	0.4165892180008086	53248.0	0	1.0	1.0	53248	1	53248	1	53248	1	0.7	53248	turquoise	purple	1	4	ml	2.7.3	bip	sub-08_ses-01_task-ml_proj-bip_2020-11-24-10-29-25.462673
113	8	1	3	114	volatile	5	40	14	vs	turquoise	purple	turquoise	purple	left	right	0.7	0.30000000000000004	10	2	7.0	0.6000000000000001	1	0	0.7	0.30000000000000004	10	2	7.0	0.6000000000000001	valid	0.3332627540003159	51200.0	0	0.0	1.0	51200	1	51200	1	51200	1	0.7	51200	turquoise	purple	1	10	ml	2.7.3	bip	sub-08_ses-01_task-ml_proj-bip_2020-11-24-10-29-25.462673
114	8	1	3	115	volatile	5	40	15	vs	turquoise	purple	turquoise	purple	left	right	0.7	0.30000000000000004	6	6	4.199999999999998	1.8000000000000005	1	0	0.7	0.30000000000000004	6	6	4.199999999999998	1.8000000000000005	valid	0.5998525609993521	51200.0	0	0.0	1.0	51200	1	51200	1	53248	0	0.7	51200	turquoise	purple	1	6	ml	2.7.3	bip	sub-08_ses-01_task-ml_proj-bip_2020-11-24-10-29-25.462673
115	8	1	3	116	volatile	5	40	16	vs	purple	turquoise	turquoise	purple	right	left	0.7	0.30000000000000004	10	2	7.0	0.6000000000000001	0	1	0.30000000000000004	0.7	2	10	0.6000000000000001	7.0	invalid	0.4499078429998917	53248.0	0	1.0	1.0	53248	1	53248	1	53248	1	0.7	53248	turquoise	purple	1	0	ml	2.7.3	bip	sub-08_ses-01_task-ml_proj-bip_2020-11-24-10-29-25.462673
116	8	1	3	117	volatile	5	40	17	vs	purple	turquoise	turquoise	purple	right	left	0.7	0.30000000000000004	10	2	7.0	0.6000000000000001	0	1	0.30000000000000004	0.7	2	10	0.6000000000000001	7.0	invalid	2.432672037999509	53248.0	0	1.0	1.0	53248	1	53248	1	53248	1	0.7	53248	turquoise	purple	1	0	ml	2.7.3	bip	sub-08_ses-01_task-ml_proj-bip_2020-11-24-10-29-25.462673
117	8	1	3	118	volatile	5	40	18	vs	turquoise	purple	turquoise	purple	left	right	0.7	0.30000000000000004	2	6	1.4	1.8000000000000005	1	0	0.7	0.30000000000000004	2	6	1.4	1.8000000000000005	valid	0.3999217269993096	53248.0	0	1.0	2.0	53248	1	51200	0	53248	1	0.7	51200	turquoise	purple	0	0	ml	2.7.3	bip	sub-08_ses-01_task-ml_proj-bip_2020-11-24-10-29-25.462673
118	8	1	3	119	volatile	5	40	19	vs	purple	turquoise	turquoise	purple	right	left	0.7	0.30000000000000004	6	2	4.199999999999998	0.6000000000000001	1	0	0.30000000000000004	0.7	2	6	0.6000000000000001	4.199999999999998	valid	0.4332454209998105	53248.0	0	1.0	1.0	53248	1	53248	1	53248	1	0.7	53248	turquoise	purple	1	6	ml	2.7.3	bip	sub-08_ses-01_task-ml_proj-bip_2020-11-24-10-29-25.462673
119	8	1	3	120	volatile	5	40	20	vs	purple	turquoise	turquoise	purple	right	left	0.7	0.30000000000000004	2	10	1.4	3.0000000000000004	1	0	0.30000000000000004	0.7	10	2	3.0000000000000004	1.4	valid	0.7498203930008458	53248.0	0	1.0	1.0	51200	0	53248	1	51200	0	0.7	53248	turquoise	purple	0	2	ml	2.7.3	bip	sub-08_ses-01_task-ml_proj-bip_2020-11-24-10-29-25.462673
120	8	1	3	121	volatile	5	40	21	vs	purple	turquoise	turquoise	purple	right	left	0.7	0.30000000000000004	2	4	1.4	1.2000000000000002	1	0	0.30000000000000004	0.7	4	2	1.2000000000000002	1.4	valid	0.4165752720000455	53248.0	0	1.0	1.0	53248	1	53248	1	51200	0	0.7	53248	turquoise	purple	0	2	ml	2.7.3	bip	sub-08_ses-01_task-ml_proj-bip_2020-11-24-10-29-25.462673
121	8	1	3	122	volatile	5	40	22	vs	purple	turquoise	turquoise	purple	right	left	0.7	0.30000000000000004	4	2	2.8	0.6000000000000001	1	0	0.30000000000000004	0.7	2	4	0.6000000000000001	2.8	valid	0.5165530150006816	53248.0	0	1.0	1.0	53248	1	53248	1	53248	1	0.7	53248	turquoise	purple	1	4	ml	2.7.3	bip	sub-08_ses-01_task-ml_proj-bip_2020-11-24-10-29-25.462673
122	8	1	3	123	volatile	5	40	23	vs	purple	turquoise	turquoise	purple	right	left	0.7	0.30000000000000004	2	4	1.4	1.2000000000000002	1	0	0.30000000000000004	0.7	4	2	1.2000000000000002	1.4	valid	0.4665744350004388	53248.0	0	1.0	1.0	53248	1	53248	1	51200	0	0.7	53248	turquoise	purple	0	2	ml	2.7.3	bip	sub-08_ses-01_task-ml_proj-bip_2020-11-24-10-29-25.462673
123	8	1	3	124	volatile	5	40	24	vs	purple	turquoise	turquoise	purple	right	left	0.7	0.30000000000000004	6	4	4.199999999999998	1.2000000000000002	0	1	0.30000000000000004	0.7	4	6	1.2000000000000002	4.199999999999998	invalid	0.5998635619998822	53248.0	0	1.0	1.0	53248	1	53248	1	53248	1	0.7	53248	turquoise	purple	1	0	ml	2.7.3	bip	sub-08_ses-01_task-ml_proj-bip_2020-11-24-10-29-25.462673
124	8	1	3	125	volatile	5	40	25	vs	turquoise	purple	turquoise	purple	left	right	0.7	0.30000000000000004	2	2	1.4	0.6000000000000001	1	0	0.7	0.30000000000000004	2	2	1.4	0.6000000000000001	valid	0.4832317420004984	53248.0	0	1.0	2.0	51200	0	51200	0	53248	1	0.7	51200	turquoise	purple	1	0	ml	2.7.3	bip	sub-08_ses-01_task-ml_proj-bip_2020-11-24-10-29-25.462673
125	8	1	3	126	volatile	5	40	26	vs	purple	turquoise	turquoise	purple	right	left	0.7	0.30000000000000004	6	4	4.199999999999998	1.2000000000000002	1	0	0.30000000000000004	0.7	4	6	1.2000000000000002	4.199999999999998	valid	0.3332718609999574	53248.0	0	1.0	1.0	53248	1	53248	1	53248	1	0.7	53248	turquoise	purple	1	6	ml	2.7.3	bip	sub-08_ses-01_task-ml_proj-bip_2020-11-24-10-29-25.462673
126	8	1	3	127	volatile	5	40	27	vs	turquoise	purple	turquoise	purple	left	right	0.7	0.30000000000000004	6	4	4.199999999999998	1.2000000000000002	1	0	0.7	0.30000000000000004	6	4	4.199999999999998	1.2000000000000002	valid	0.4332353040008456	51200.0	0	0.0	1.0	51200	1	51200	1	51200	1	0.7	51200	turquoise	purple	1	6	ml	2.7.3	bip	sub-08_ses-01_task-ml_proj-bip_2020-11-24-10-29-25.462673
127	8	1	3	128	volatile	5	40	28	vs	turquoise	purple	turquoise	purple	left	right	0.7	0.30000000000000004	2	6	1.4	1.8000000000000005	1	0	0.7	0.30000000000000004	2	6	1.4	1.8000000000000005	valid	0.5998533459987812	51200.0	0	0.0	1.0	53248	0	51200	1	53248	0	0.7	51200	turquoise	purple	0	2	ml	2.7.3	bip	sub-08_ses-01_task-ml_proj-bip_2020-11-24-10-29-25.462673
128	8	1	3	129	volatile	5	40	29	vs	purple	turquoise	turquoise	purple	right	left	0.7	0.30000000000000004	2	10	1.4	3.0000000000000004	1	0	0.30000000000000004	0.7	10	2	3.0000000000000004	1.4	valid	0.4332449789999373	53248.0	0	1.0	1.0	51200	0	53248	1	51200	0	0.7	53248	turquoise	purple	0	2	ml	2.7.3	bip	sub-08_ses-01_task-ml_proj-bip_2020-11-24-10-29-25.462673
129	8	1	3	130	volatile	5	40	30	vs	purple	turquoise	turquoise	purple	right	left	0.7	0.30000000000000004	4	2	2.8	0.6000000000000001	1	0	0.30000000000000004	0.7	2	4	0.6000000000000001	2.8	valid	0.4998907760000293	53248.0	0	1.0	1.0	53248	1	53248	1	53248	1	0.7	53248	turquoise	purple	1	4	ml	2.7.3	bip	sub-08_ses-01_task-ml_proj-bip_2020-11-24-10-29-25.462673
130	8	1	3	131	volatile	5	40	31	vs	turquoise	purple	turquoise	purple	left	right	0.7	0.30000000000000004	2	6	1.4	1.8000000000000005	0	1	0.7	0.30000000000000004	2	6	1.4	1.8000000000000005	invalid	0.7997968550007499	51200.0	0	0.0	1.0	53248	0	51200	1	53248	0	0.7	51200	turquoise	purple	0	0	ml	2.7.3	bip	sub-08_ses-01_task-ml_proj-bip_2020-11-24-10-29-25.462673
131	8	1	3	132	volatile	5	40	32	vs	purple	turquoise	turquoise	purple	right	left	0.7	0.30000000000000004	6	6	4.199999999999998	1.8000000000000005	1	0	0.30000000000000004	0.7	6	6	1.8000000000000005	4.199999999999998	valid	0.4165698979995796	51200.0	0	0.0	2.0	53248	0	53248	0	53248	0	0.7	53248	turquoise	purple	0	0	ml	2.7.3	bip	sub-08_ses-01_task-ml_proj-bip_2020-11-24-10-29-25.462673
132	8	1	3	133	volatile	5	40	33	vs	turquoise	purple	turquoise	purple	left	right	0.7	0.30000000000000004	6	6	4.199999999999998	1.8000000000000005	1	0	0.7	0.30000000000000004	6	6	4.199999999999998	1.8000000000000005	valid	0.7498088390002522	51200.0	0	0.0	1.0	51200	1	51200	1	53248	0	0.7	51200	turquoise	purple	1	6	ml	2.7.3	bip	sub-08_ses-01_task-ml_proj-bip_2020-11-24-10-29-25.462673
133	8	1	3	134	volatile	5	40	34	vs	turquoise	purple	turquoise	purple	left	right	0.7	0.30000000000000004	6	4	4.199999999999998	1.2000000000000002	1	0	0.7	0.30000000000000004	6	4	4.199999999999998	1.2000000000000002	valid	0.34992430199963565	51200.0	0	0.0	1.0	51200	1	51200	1	51200	1	0.7	51200	turquoise	purple	1	6	ml	2.7.3	bip	sub-08_ses-01_task-ml_proj-bip_2020-11-24-10-29-25.462673
134	8	1	3	135	volatile	5	40	35	vs	purple	turquoise	turquoise	purple	right	left	0.7	0.30000000000000004	2	2	1.4	0.6000000000000001	1	0	0.30000000000000004	0.7	2	2	0.6000000000000001	1.4	valid	0.6498489959994913	53248.0	0	1.0	1.0	53248	1	53248	1	53248	1	0.7	53248	turquoise	purple	0	2	ml	2.7.3	bip	sub-08_ses-01_task-ml_proj-bip_2020-11-24-10-29-25.462673
135	8	1	3	136	volatile	5	40	36	vs	turquoise	purple	turquoise	purple	left	right	0.7	0.30000000000000004	2	2	1.4	0.6000000000000001	0	1	0.7	0.30000000000000004	2	2	1.4	0.6000000000000001	invalid	0.5665226380006061	51200.0	0	0.0	1.0	51200	1	51200	1	53248	0	0.7	51200	turquoise	purple	1	0	ml	2.7.3	bip	sub-08_ses-01_task-ml_proj-bip_2020-11-24-10-29-25.462673
136	8	1	3	137	volatile	5	40	37	vs	turquoise	purple	turquoise	purple	left	right	0.7	0.30000000000000004	6	2	4.199999999999998	0.6000000000000001	1	0	0.7	0.30000000000000004	6	2	4.199999999999998	0.6000000000000001	valid	0.4832299729987426	53248.0	0	1.0	2.0	51200	0	51200	0	51200	0	0.7	51200	turquoise	purple	1	0	ml	2.7.3	bip	sub-08_ses-01_task-ml_proj-bip_2020-11-24-10-29-25.462673
137	8	1	3	138	volatile	5	40	38	vs	purple	turquoise	turquoise	purple	right	left	0.7	0.30000000000000004	2	10	1.4	3.0000000000000004	1	0	0.30000000000000004	0.7	10	2	3.0000000000000004	1.4	valid	0.39990908999971003	51200.0	0	0.0	2.0	51200	1	53248	0	51200	1	0.7	53248	turquoise	purple	0	0	ml	2.7.3	bip	sub-08_ses-01_task-ml_proj-bip_2020-11-24-10-29-25.462673
138	8	1	3	139	volatile	5	40	39	vs	turquoise	purple	turquoise	purple	left	right	0.7	0.30000000000000004	2	10	1.4	3.0000000000000004	1	0	0.7	0.30000000000000004	2	10	1.4	3.0000000000000004	valid	0.9664261159996386	53248.0	0	1.0	2.0	53248	1	51200	0	53248	1	0.7	51200	turquoise	purple	0	0	ml	2.7.3	bip	sub-08_ses-01_task-ml_proj-bip_2020-11-24-10-29-25.462673
139	8	1	3	140	volatile	5	40	40	vs	purple	turquoise	turquoise	purple	right	left	0.7	0.30000000000000004	4	2	2.8	0.6000000000000001	0	1	0.30000000000000004	0.7	2	4	0.6000000000000001	2.8	invalid	0.4665658659996552	53248.0	0	1.0	1.0	53248	1	53248	1	53248	1	0.7	53248	turquoise	purple	1	0	ml	2.7.3	bip	sub-08_ses-01_task-ml_proj-bip_2020-11-24-10-29-25.462673
140	8	1	3	141	volatile	6	40	1	vs	purple	turquoise	turquoise	purple	right	left	0.30000000000000004	0.7	10	2	3.0000000000000004	1.4	0	1	0.7	0.30000000000000004	2	10	1.4	3.0000000000000004	valid	1.4662717310002336	53248.0	0	1.0	1.0	53248	1	51200	0	53248	1	0.7	51200	purple	turquoise	0	0	ml	2.7.3	bip	sub-08_ses-01_task-ml_proj-bip_2020-11-24-10-29-25.462673
141	8	1	3	142	volatile	6	40	2	vs	purple	turquoise	turquoise	purple	right	left	0.30000000000000004	0.7	2	4	0.6000000000000001	2.8	0	1	0.7	0.30000000000000004	4	2	2.8	0.6000000000000001	valid	0.9997412499997154	51200.0	0	0.0	2.0	51200	1	51200	1	51200	1	0.7	51200	purple	turquoise	1	4	ml	2.7.3	bip	sub-08_ses-01_task-ml_proj-bip_2020-11-24-10-29-25.462673
142	8	1	3	143	volatile	6	40	3	vs	purple	turquoise	turquoise	purple	right	left	0.30000000000000004	0.7	2	10	0.6000000000000001	7.0	0	1	0.7	0.30000000000000004	10	2	7.0	0.6000000000000001	valid	0.3665857810010493	51200.0	0	0.0	2.0	51200	1	51200	1	51200	1	0.7	51200	purple	turquoise	1	10	ml	2.7.3	bip	sub-08_ses-01_task-ml_proj-bip_2020-11-24-10-29-25.462673
143	8	1	3	144	volatile	6	40	4	vs	turquoise	purple	turquoise	purple	left	right	0.30000000000000004	0.7	2	4	0.6000000000000001	2.8	1	0	0.30000000000000004	0.7	2	4	0.6000000000000001	2.8	invalid	0.4332380079995346	53248.0	0	1.0	2.0	53248	1	53248	1	53248	1	0.7	53248	purple	turquoise	1	0	ml	2.7.3	bip	sub-08_ses-01_task-ml_proj-bip_2020-11-24-10-29-25.462673
144	8	1	3	145	volatile	6	40	5	vs	turquoise	purple	turquoise	purple	left	right	0.30000000000000004	0.7	6	4	1.8000000000000005	2.8	1	0	0.30000000000000004	0.7	6	4	1.8000000000000005	2.8	invalid	0.3665908120001404	51200.0	0	0.0	1.0	53248	0	53248	0	51200	1	0.7	53248	purple	turquoise	0	6	ml	2.7.3	bip	sub-08_ses-01_task-ml_proj-bip_2020-11-24-10-29-25.462673
145	8	1	3	146	volatile	6	40	6	vs	turquoise	purple	turquoise	purple	left	right	0.30000000000000004	0.7	6	4	1.8000000000000005	2.8	0	1	0.30000000000000004	0.7	6	4	1.8000000000000005	2.8	valid	0.4332348309999361	51200.0	0	0.0	1.0	53248	0	53248	0	51200	1	0.7	53248	purple	turquoise	0	0	ml	2.7.3	bip	sub-08_ses-01_task-ml_proj-bip_2020-11-24-10-29-25.462673
146	8	1	3	147	volatile	6	40	7	vs	turquoise	purple	turquoise	purple	left	right	0.30000000000000004	0.7	2	2	0.6000000000000001	1.4	0	1	0.30000000000000004	0.7	2	2	0.6000000000000001	1.4	valid	0.5165453160007019	53248.0	0	1.0	2.0	53248	1	53248	1	53248	1	0.7	53248	purple	turquoise	0	2	ml	2.7.3	bip	sub-08_ses-01_task-ml_proj-bip_2020-11-24-10-29-25.462673
147	8	1	3	148	volatile	6	40	8	vs	turquoise	purple	turquoise	purple	left	right	0.30000000000000004	0.7	6	6	1.8000000000000005	4.199999999999998	0	1	0.30000000000000004	0.7	6	6	1.8000000000000005	4.199999999999998	valid	0.5332162230006361	53248.0	0	1.0	2.0	53248	1	53248	1	53248	1	0.7	53248	purple	turquoise	0	6	ml	2.7.3	bip	sub-08_ses-01_task-ml_proj-bip_2020-11-24-10-29-25.462673
148	8	1	3	149	volatile	6	40	9	vs	turquoise	purple	turquoise	purple	left	right	0.30000000000000004	0.7	6	6	1.8000000000000005	4.199999999999998	1	0	0.30000000000000004	0.7	6	6	1.8000000000000005	4.199999999999998	invalid	0.6331885399995372	53248.0	0	1.0	2.0	53248	1	53248	1	53248	1	0.7	53248	purple	turquoise	0	0	ml	2.7.3	bip	sub-08_ses-01_task-ml_proj-bip_2020-11-24-10-29-25.462673
149	8	1	3	150	volatile	6	40	10	vs	purple	turquoise	turquoise	purple	right	left	0.30000000000000004	0.7	10	2	3.0000000000000004	1.4	1	0	0.7	0.30000000000000004	2	10	1.4	3.0000000000000004	invalid	0.8497881120001693	53248.0	0	1.0	1.0	53248	1	51200	0	53248	1	0.7	51200	purple	turquoise	0	10	ml	2.7.3	bip	sub-08_ses-01_task-ml_proj-bip_2020-11-24-10-29-25.462673
150	8	1	4	151	volatile	6	40	11	vs	purple	turquoise	turquoise	purple	right	left	0.30000000000000004	0.7	4	6	1.2000000000000002	4.199999999999998	0	1	0.7	0.30000000000000004	6	4	4.199999999999998	1.2000000000000002	valid	0.5332076119993872	51200.0	0	0.0	2.0	51200	1	51200	1	51200	1	0.7	51200	purple	turquoise	1	6	ml	2.7.3	bip	sub-08_ses-01_task-ml_proj-bip_2020-11-24-10-29-25.462673
151	8	1	4	152	volatile	6	40	12	vs	purple	turquoise	turquoise	purple	right	left	0.30000000000000004	0.7	4	2	1.2000000000000002	1.4	0	1	0.7	0.30000000000000004	2	4	1.4	1.2000000000000002	valid	0.5665354889988521	51200.0	0	0.0	2.0	51200	1	51200	1	53248	0	0.7	51200	purple	turquoise	0	2	ml	2.7.3	bip	sub-08_ses-01_task-ml_proj-bip_2020-11-24-10-29-25.462673
152	8	1	4	153	volatile	6	40	13	vs	purple	turquoise	turquoise	purple	right	left	0.30000000000000004	0.7	6	6	1.8000000000000005	4.199999999999998	0	1	0.7	0.30000000000000004	6	6	4.199999999999998	1.8000000000000005	valid	0.5498670910001238	51200.0	0	0.0	2.0	51200	1	51200	1	53248	0	0.7	51200	purple	turquoise	1	6	ml	2.7.3	bip	sub-08_ses-01_task-ml_proj-bip_2020-11-24-10-29-25.462673
153	8	1	4	154	volatile	6	40	14	vs	purple	turquoise	turquoise	purple	right	left	0.30000000000000004	0.7	6	4	1.8000000000000005	2.8	1	0	0.7	0.30000000000000004	4	6	2.8	1.8000000000000005	invalid	0.3332616169991525	51200.0	0	0.0	2.0	51200	1	51200	1	53248	0	0.7	51200	purple	turquoise	0	0	ml	2.7.3	bip	sub-08_ses-01_task-ml_proj-bip_2020-11-24-10-29-25.462673
154	8	1	4	155	volatile	6	40	15	vs	turquoise	purple	turquoise	purple	left	right	0.30000000000000004	0.7	4	6	1.2000000000000002	4.199999999999998	1	0	0.30000000000000004	0.7	4	6	1.2000000000000002	4.199999999999998	invalid	0.4998793409995415	51200.0	0	0.0	1.0	53248	0	53248	0	53248	0	0.7	53248	purple	turquoise	1	4	ml	2.7.3	bip	sub-08_ses-01_task-ml_proj-bip_2020-11-24-10-29-25.462673
155	8	1	4	156	volatile	6	40	16	vs	turquoise	purple	turquoise	purple	left	right	0.30000000000000004	0.7	4	6	1.2000000000000002	4.199999999999998	0	1	0.30000000000000004	0.7	4	6	1.2000000000000002	4.199999999999998	valid	0.3332664450008451	51200.0	0	0.0	1.0	53248	0	53248	0	53248	0	0.7	53248	purple	turquoise	1	0	ml	2.7.3	bip	sub-08_ses-01_task-ml_proj-bip_2020-11-24-10-29-25.462673
156	8	1	4	157	volatile	6	40	17	vs	purple	turquoise	turquoise	purple	right	left	0.30000000000000004	0.7	6	6	1.8000000000000005	4.199999999999998	0	1	0.7	0.30000000000000004	6	6	4.199999999999998	1.8000000000000005	valid	0.38324719599950186	51200.0	0	0.0	2.0	51200	1	51200	1	53248	0	0.7	51200	purple	turquoise	1	6	ml	2.7.3	bip	sub-08_ses-01_task-ml_proj-bip_2020-11-24-10-29-25.462673
157	8	1	4	158	volatile	6	40	18	vs	turquoise	purple	turquoise	purple	left	right	0.30000000000000004	0.7	2	6	0.6000000000000001	4.199999999999998	0	1	0.30000000000000004	0.7	2	6	0.6000000000000001	4.199999999999998	valid	0.3832639659995039	53248.0	0	1.0	2.0	53248	1	53248	1	53248	1	0.7	53248	purple	turquoise	1	6	ml	2.7.3	bip	sub-08_ses-01_task-ml_proj-bip_2020-11-24-10-29-25.462673
158	8	1	4	159	volatile	6	40	19	vs	turquoise	purple	turquoise	purple	left	right	0.30000000000000004	0.7	2	10	0.6000000000000001	7.0	0	1	0.30000000000000004	0.7	2	10	0.6000000000000001	7.0	valid	0.6998288300001151	53248.0	0	1.0	2.0	53248	1	53248	1	53248	1	0.7	53248	purple	turquoise	1	10	ml	2.7.3	bip	sub-08_ses-01_task-ml_proj-bip_2020-11-24-10-29-25.462673
159	8	1	4	160	volatile	6	40	20	vs	turquoise	purple	turquoise	purple	left	right	0.30000000000000004	0.7	6	2	1.8000000000000005	1.4	0	1	0.30000000000000004	0.7	6	2	1.8000000000000005	1.4	valid	0.3999240969988023	53248.0	0	1.0	2.0	51200	0	53248	1	51200	0	0.7	53248	purple	turquoise	0	2	ml	2.7.3	bip	sub-08_ses-01_task-ml_proj-bip_2020-11-24-10-29-25.462673
160	8	1	4	161	volatile	6	40	21	vs	turquoise	purple	turquoise	purple	left	right	0.30000000000000004	0.7	2	10	0.6000000000000001	7.0	1	0	0.30000000000000004	0.7	2	10	0.6000000000000001	7.0	invalid	0.7498196930009726	53248.0	0	1.0	2.0	53248	1	53248	1	53248	1	0.7	53248	purple	turquoise	1	0	ml	2.7.3	bip	sub-08_ses-01_task-ml_proj-bip_2020-11-24-10-29-25.462673
161	8	1	4	162	volatile	6	40	22	vs	purple	turquoise	turquoise	purple	right	left	0.30000000000000004	0.7	2	6	0.6000000000000001	4.199999999999998	0	1	0.7	0.30000000000000004	6	2	4.199999999999998	0.6000000000000001	valid	0.5332169590001286	53248.0	0	1.0	1.0	51200	0	51200	0	51200	0	0.7	51200	purple	turquoise	1	0	ml	2.7.3	bip	sub-08_ses-01_task-ml_proj-bip_2020-11-24-10-29-25.462673
162	8	1	4	163	volatile	6	40	23	vs	purple	turquoise	turquoise	purple	right	left	0.30000000000000004	0.7	2	2	0.6000000000000001	1.4	1	0	0.7	0.30000000000000004	2	2	1.4	0.6000000000000001	invalid	0.9330890749988612	51200.0	0	0.0	2.0	51200	1	51200	1	53248	0	0.7	51200	purple	turquoise	1	0	ml	2.7.3	bip	sub-08_ses-01_task-ml_proj-bip_2020-11-24-10-29-25.462673
163	8	1	4	164	volatile	6	40	24	vs	turquoise	purple	turquoise	purple	left	right	0.30000000000000004	0.7	6	2	1.8000000000000005	1.4	0	1	0.30000000000000004	0.7	6	2	1.8000000000000005	1.4	valid	0.33326089799993497	51200.0	0	0.0	1.0	51200	1	53248	0	51200	1	0.7	53248	purple	turquoise	0	0	ml	2.7.3	bip	sub-08_ses-01_task-ml_proj-bip_2020-11-24-10-29-25.462673
164	8	1	4	165	volatile	6	40	25	vs	turquoise	purple	turquoise	purple	left	right	0.30000000000000004	0.7	10	2	3.0000000000000004	1.4	1	0	0.30000000000000004	0.7	10	2	3.0000000000000004	1.4	invalid	0.7997939410015533	51200.0	0	0.0	1.0	51200	1	53248	0	51200	1	0.7	53248	purple	turquoise	0	10	ml	2.7.3	bip	sub-08_ses-01_task-ml_proj-bip_2020-11-24-10-29-25.462673
165	8	1	4	166	volatile	6	40	26	vs	turquoise	purple	turquoise	purple	left	right	0.30000000000000004	0.7	2	4	0.6000000000000001	2.8	0	1	0.30000000000000004	0.7	2	4	0.6000000000000001	2.8	valid	0.3332601739984966	51200.0	0	0.0	1.0	53248	0	53248	0	53248	0	0.7	53248	purple	turquoise	1	0	ml	2.7.3	bip	sub-08_ses-01_task-ml_proj-bip_2020-11-24-10-29-25.462673
166	8	1	4	167	volatile	6	40	27	vs	turquoise	purple	turquoise	purple	left	right	0.30000000000000004	0.7	6	2	1.8000000000000005	1.4	0	1	0.30000000000000004	0.7	6	2	1.8000000000000005	1.4	valid	0.583202669999082	53248.0	0	1.0	2.0	51200	0	53248	1	51200	0	0.7	53248	purple	turquoise	0	2	ml	2.7.3	bip	sub-08_ses-01_task-ml_proj-bip_2020-11-24-10-29-25.462673
167	8	1	4	168	volatile	6	40	28	vs	purple	turquoise	turquoise	purple	right	left	0.30000000000000004	0.7	6	4	1.8000000000000005	2.8	0	1	0.7	0.30000000000000004	4	6	2.8	1.8000000000000005	valid	0.3832486899991636	51200.0	0	0.0	2.0	51200	1	51200	1	53248	0	0.7	51200	purple	turquoise	0	4	ml	2.7.3	bip	sub-08_ses-01_task-ml_proj-bip_2020-11-24-10-29-25.462673
168	8	1	4	169	volatile	6	40	29	vs	purple	turquoise	turquoise	purple	right	left	0.30000000000000004	0.7	6	2	1.8000000000000005	1.4	1	0	0.7	0.30000000000000004	2	6	1.4	1.8000000000000005	invalid	1.7661843280002358	51200.0	0	0.0	2.0	53248	0	51200	1	53248	0	0.7	51200	purple	turquoise	0	0	ml	2.7.3	bip	sub-08_ses-01_task-ml_proj-bip_2020-11-24-10-29-25.462673
169	8	1	4	170	volatile	6	40	30	vs	purple	turquoise	turquoise	purple	right	left	0.30000000000000004	0.7	2	4	0.6000000000000001	2.8	0	1	0.7	0.30000000000000004	4	2	2.8	0.6000000000000001	valid	0.4832309630000964	53248.0	0	1.0	1.0	51200	0	51200	0	51200	0	0.7	51200	purple	turquoise	1	0	ml	2.7.3	bip	sub-08_ses-01_task-ml_proj-bip_2020-11-24-10-29-25.462673
170	8	1	4	171	volatile	6	40	31	vs	purple	turquoise	turquoise	purple	right	left	0.30000000000000004	0.7	2	4	0.6000000000000001	2.8	0	1	0.7	0.30000000000000004	4	2	2.8	0.6000000000000001	valid	0.9664127619998908	51200.0	0	0.0	2.0	51200	1	51200	1	51200	1	0.7	51200	purple	turquoise	1	4	ml	2.7.3	bip	sub-08_ses-01_task-ml_proj-bip_2020-11-24-10-29-25.462673
171	8	1	4	172	volatile	6	40	32	vs	purple	turquoise	turquoise	purple	right	left	0.30000000000000004	0.7	2	2	0.6000000000000001	1.4	0	1	0.7	0.30000000000000004	2	2	1.4	0.6000000000000001	valid	0.6664994790007768	51200.0	0	0.0	2.0	51200	1	51200	1	53248	0	0.7	51200	purple	turquoise	1	2	ml	2.7.3	bip	sub-08_ses-01_task-ml_proj-bip_2020-11-24-10-29-25.462673
172	8	1	4	173	volatile	6	40	33	vs	purple	turquoise	turquoise	purple	right	left	0.30000000000000004	0.7	2	10	0.6000000000000001	7.0	1	0	0.7	0.30000000000000004	10	2	7.0	0.6000000000000001	invalid	0.5165416459985863	51200.0	0	0.0	2.0	51200	1	51200	1	51200	1	0.7	51200	purple	turquoise	1	0	ml	2.7.3	bip	sub-08_ses-01_task-ml_proj-bip_2020-11-24-10-29-25.462673
173	8	1	4	174	volatile	6	40	34	vs	purple	turquoise	turquoise	purple	right	left	0.30000000000000004	0.7	6	2	1.8000000000000005	1.4	0	1	0.7	0.30000000000000004	2	6	1.4	1.8000000000000005	valid	0.4832322199999908	53248.0	0	1.0	1.0	53248	1	51200	0	53248	1	0.7	51200	purple	turquoise	0	0	ml	2.7.3	bip	sub-08_ses-01_task-ml_proj-bip_2020-11-24-10-29-25.462673
174	8	1	4	175	volatile	6	40	35	vs	turquoise	purple	turquoise	purple	left	right	0.30000000000000004	0.7	4	2	1.2000000000000002	1.4	0	1	0.30000000000000004	0.7	4	2	1.2000000000000002	1.4	valid	0.6165191190011683	53248.0	0	1.0	2.0	53248	1	53248	1	51200	0	0.7	53248	purple	turquoise	0	2	ml	2.7.3	bip	sub-08_ses-01_task-ml_proj-bip_2020-11-24-10-29-25.462673
175	8	1	4	176	volatile	6	40	36	vs	turquoise	purple	turquoise	purple	left	right	0.30000000000000004	0.7	6	4	1.8000000000000005	2.8	0	1	0.30000000000000004	0.7	6	4	1.8000000000000005	2.8	valid	1.049739980000595	53248.0	0	1.0	2.0	53248	1	53248	1	51200	0	0.7	53248	purple	turquoise	0	4	ml	2.7.3	bip	sub-08_ses-01_task-ml_proj-bip_2020-11-24-10-29-25.462673
176	8	1	4	177	volatile	6	40	37	vs	turquoise	purple	turquoise	purple	left	right	0.30000000000000004	0.7	2	4	0.6000000000000001	2.8	0	1	0.30000000000000004	0.7	2	4	0.6000000000000001	2.8	valid	0.5165500519997295	53248.0	0	1.0	2.0	53248	1	53248	1	53248	1	0.7	53248	purple	turquoise	1	4	ml	2.7.3	bip	sub-08_ses-01_task-ml_proj-bip_2020-11-24-10-29-25.462673
177	8	1	4	178	volatile	6	40	38	vs	purple	turquoise	turquoise	purple	right	left	0.30000000000000004	0.7	6	2	1.8000000000000005	1.4	0	1	0.7	0.30000000000000004	2	6	1.4	1.8000000000000005	valid	0.5831852840001375	51200.0	0	0.0	2.0	53248	0	51200	1	53248	0	0.7	51200	purple	turquoise	0	2	ml	2.7.3	bip	sub-08_ses-01_task-ml_proj-bip_2020-11-24-10-29-25.462673
178	8	1	4	179	volatile	6	40	39	vs	purple	turquoise	turquoise	purple	right	left	0.30000000000000004	0.7	2	2	0.6000000000000001	1.4	1	0	0.7	0.30000000000000004	2	2	1.4	0.6000000000000001	invalid	0.4499036240013083	51200.0	0	0.0	2.0	51200	1	51200	1	53248	0	0.7	51200	purple	turquoise	1	0	ml	2.7.3	bip	sub-08_ses-01_task-ml_proj-bip_2020-11-24-10-29-25.462673
179	8	1	4	180	volatile	6	40	40	vs	turquoise	purple	turquoise	purple	left	right	0.30000000000000004	0.7	10	2	3.0000000000000004	1.4	0	1	0.30000000000000004	0.7	10	2	3.0000000000000004	1.4	valid	0.41657195999869145	51200.0	0	0.0	1.0	51200	1	53248	0	51200	1	0.7	53248	purple	turquoise	0	0	ml	2.7.3	bip	sub-08_ses-01_task-ml_proj-bip_2020-11-24-10-29-25.462673
180	8	1	4	181	volatile	7	20	1	vs	turquoise	purple	turquoise	purple	left	right	0.7	0.30000000000000004	2	6	1.4	1.8000000000000005	1	0	0.7	0.30000000000000004	2	6	1.4	1.8000000000000005	valid	0.9497561739990488	53248.0	0	1.0	2.0	53248	1	51200	0	53248	1	0.7	51200	turquoise	purple	0	0	ml	2.7.3	bip	sub-08_ses-01_task-ml_proj-bip_2020-11-24-10-29-25.462673
181	8	1	4	182	volatile	7	20	2	vs	turquoise	purple	turquoise	purple	left	right	0.7	0.30000000000000004	2	10	1.4	3.0000000000000004	1	0	0.7	0.30000000000000004	2	10	1.4	3.0000000000000004	valid	1.599572138999065	53248.0	0	1.0	2.0	53248	1	51200	0	53248	1	0.7	51200	turquoise	purple	0	0	ml	2.7.3	bip	sub-08_ses-01_task-ml_proj-bip_2020-11-24-10-29-25.462673
182	8	1	4	183	volatile	7	20	3	vs	purple	turquoise	turquoise	purple	right	left	0.7	0.30000000000000004	2	6	1.4	1.8000000000000005	1	0	0.30000000000000004	0.7	6	2	1.8000000000000005	1.4	valid	0.4832318299995677	53248.0	0	1.0	1.0	51200	0	53248	1	51200	0	0.7	53248	turquoise	purple	0	2	ml	2.7.3	bip	sub-08_ses-01_task-ml_proj-bip_2020-11-24-10-29-25.462673
183	8	1	4	184	volatile	7	20	4	vs	purple	turquoise	turquoise	purple	right	left	0.7	0.30000000000000004	10	2	7.0	0.6000000000000001	1	0	0.30000000000000004	0.7	2	10	0.6000000000000001	7.0	valid	0.5832021229998645	53248.0	0	1.0	1.0	53248	1	53248	1	53248	1	0.7	53248	turquoise	purple	1	10	ml	2.7.3	bip	sub-08_ses-01_task-ml_proj-bip_2020-11-24-10-29-25.462673
184	8	1	4	185	volatile	7	20	5	vs	turquoise	purple	turquoise	purple	left	right	0.7	0.30000000000000004	4	6	2.8	1.8000000000000005	1	0	0.7	0.30000000000000004	4	6	2.8	1.8000000000000005	valid	0.5332074380003178	51200.0	0	0.0	1.0	51200	1	51200	1	53248	0	0.7	51200	turquoise	purple	0	4	ml	2.7.3	bip	sub-08_ses-01_task-ml_proj-bip_2020-11-24-10-29-25.462673
185	8	1	4	186	volatile	7	20	6	vs	purple	turquoise	turquoise	purple	right	left	0.7	0.30000000000000004	2	10	1.4	3.0000000000000004	1	0	0.30000000000000004	0.7	10	2	3.0000000000000004	1.4	valid	0.7831448689994431	53248.0	0	1.0	1.0	51200	0	53248	1	51200	0	0.7	53248	turquoise	purple	0	2	ml	2.7.3	bip	sub-08_ses-01_task-ml_proj-bip_2020-11-24-10-29-25.462673
186	8	1	4	187	volatile	7	20	7	vs	turquoise	purple	turquoise	purple	left	right	0.7	0.30000000000000004	6	4	4.199999999999998	1.2000000000000002	1	0	0.7	0.30000000000000004	6	4	4.199999999999998	1.2000000000000002	valid	0.4499008790007792	51200.0	0	0.0	1.0	51200	1	51200	1	51200	1	0.7	51200	turquoise	purple	1	6	ml	2.7.3	bip	sub-08_ses-01_task-ml_proj-bip_2020-11-24-10-29-25.462673
187	8	1	4	188	volatile	7	20	8	vs	turquoise	purple	turquoise	purple	left	right	0.7	0.30000000000000004	6	2	4.199999999999998	0.6000000000000001	1	0	0.7	0.30000000000000004	6	2	4.199999999999998	0.6000000000000001	valid	0.3999113480003871	51200.0	0	0.0	1.0	51200	1	51200	1	51200	1	0.7	51200	turquoise	purple	1	6	ml	2.7.3	bip	sub-08_ses-01_task-ml_proj-bip_2020-11-24-10-29-25.462673
188	8	1	4	189	volatile	7	20	9	vs	purple	turquoise	turquoise	purple	right	left	0.7	0.30000000000000004	4	6	2.8	1.8000000000000005	1	0	0.30000000000000004	0.7	6	4	1.8000000000000005	2.8	valid	0.3999201429996901	53248.0	0	1.0	1.0	53248	1	53248	1	51200	0	0.7	53248	turquoise	purple	0	4	ml	2.7.3	bip	sub-08_ses-01_task-ml_proj-bip_2020-11-24-10-29-25.462673
189	8	1	4	190	volatile	7	20	10	vs	turquoise	purple	turquoise	purple	left	right	0.7	0.30000000000000004	10	2	7.0	0.6000000000000001	1	0	0.7	0.30000000000000004	10	2	7.0	0.6000000000000001	valid	0.5165433339989249	51200.0	0	0.0	1.0	51200	1	51200	1	51200	1	0.7	51200	turquoise	purple	1	10	ml	2.7.3	bip	sub-08_ses-01_task-ml_proj-bip_2020-11-24-10-29-25.462673
190	8	1	4	191	volatile	7	20	11	vs	purple	turquoise	turquoise	purple	right	left	0.7	0.30000000000000004	2	2	1.4	0.6000000000000001	1	0	0.30000000000000004	0.7	2	2	0.6000000000000001	1.4	valid	0.5498780979996809	53248.0	0	1.0	1.0	53248	1	53248	1	53248	1	0.7	53248	turquoise	purple	0	2	ml	2.7.3	bip	sub-08_ses-01_task-ml_proj-bip_2020-11-24-10-29-25.462673
191	8	1	4	192	volatile	7	20	12	vs	turquoise	purple	turquoise	purple	left	right	0.7	0.30000000000000004	4	2	2.8	0.6000000000000001	0	1	0.7	0.30000000000000004	4	2	2.8	0.6000000000000001	invalid	0.6498394680002093	51200.0	0	0.0	1.0	51200	1	51200	1	51200	1	0.7	51200	turquoise	purple	1	0	ml	2.7.3	bip	sub-08_ses-01_task-ml_proj-bip_2020-11-24-10-29-25.462673
192	8	1	4	193	volatile	7	20	13	vs	turquoise	purple	turquoise	purple	left	right	0.7	0.30000000000000004	4	2	2.8	0.6000000000000001	1	0	0.7	0.30000000000000004	4	2	2.8	0.6000000000000001	valid	0.4998987719991419	53248.0	0	1.0	2.0	51200	0	51200	0	51200	0	0.7	51200	turquoise	purple	1	0	ml	2.7.3	bip	sub-08_ses-01_task-ml_proj-bip_2020-11-24-10-29-25.462673
193	8	1	4	194	volatile	7	20	14	vs	purple	turquoise	turquoise	purple	right	left	0.7	0.30000000000000004	2	2	1.4	0.6000000000000001	1	0	0.30000000000000004	0.7	2	2	0.6000000000000001	1.4	valid	0.6331754510010796	51200.0	0	0.0	2.0	53248	0	53248	0	53248	0	0.7	53248	turquoise	purple	0	0	ml	2.7.3	bip	sub-08_ses-01_task-ml_proj-bip_2020-11-24-10-29-25.462673
194	8	1	4	195	volatile	7	20	15	vs	purple	turquoise	turquoise	purple	right	left	0.7	0.30000000000000004	4	2	2.8	0.6000000000000001	1	0	0.30000000000000004	0.7	2	4	0.6000000000000001	2.8	valid	0.4499071310001455	53248.0	0	1.0	1.0	53248	1	53248	1	53248	1	0.7	53248	turquoise	purple	1	4	ml	2.7.3	bip	sub-08_ses-01_task-ml_proj-bip_2020-11-24-10-29-25.462673
195	8	1	4	196	volatile	7	20	16	vs	purple	turquoise	turquoise	purple	right	left	0.7	0.30000000000000004	6	2	4.199999999999998	0.6000000000000001	0	1	0.30000000000000004	0.7	2	6	0.6000000000000001	4.199999999999998	invalid	0.4832279709989962	53248.0	0	1.0	1.0	53248	1	53248	1	53248	1	0.7	53248	turquoise	purple	1	0	ml	2.7.3	bip	sub-08_ses-01_task-ml_proj-bip_2020-11-24-10-29-25.462673
196	8	1	4	197	volatile	7	20	17	vs	turquoise	purple	turquoise	purple	left	right	0.7	0.30000000000000004	4	6	2.8	1.8000000000000005	0	1	0.7	0.30000000000000004	4	6	2.8	1.8000000000000005	invalid	0.5998632709997764	53248.0	0	1.0	2.0	51200	0	51200	0	53248	1	0.7	51200	turquoise	purple	0	6	ml	2.7.3	bip	sub-08_ses-01_task-ml_proj-bip_2020-11-24-10-29-25.462673
197	8	1	4	198	volatile	7	20	18	vs	purple	turquoise	turquoise	purple	right	left	0.7	0.30000000000000004	6	6	4.199999999999998	1.8000000000000005	0	1	0.30000000000000004	0.7	6	6	1.8000000000000005	4.199999999999998	invalid	1.3829601059987908	51200.0	0	0.0	2.0	53248	0	53248	0	53248	0	0.7	53248	turquoise	purple	0	6	ml	2.7.3	bip	sub-08_ses-01_task-ml_proj-bip_2020-11-24-10-29-25.462673
198	8	1	4	199	volatile	7	20	19	vs	purple	turquoise	turquoise	purple	right	left	0.7	0.30000000000000004	4	2	2.8	0.6000000000000001	0	1	0.30000000000000004	0.7	2	4	0.6000000000000001	2.8	invalid	0.4832198109997989	51200.0	0	0.0	2.0	53248	0	53248	0	53248	0	0.7	53248	turquoise	purple	1	2	ml	2.7.3	bip	sub-08_ses-01_task-ml_proj-bip_2020-11-24-10-29-25.462673
199	8	1	4	200	volatile	7	20	20	vs	turquoise	purple	turquoise	purple	left	right	0.7	0.30000000000000004	6	6	4.199999999999998	1.8000000000000005	0	1	0.7	0.30000000000000004	6	6	4.199999999999998	1.8000000000000005	invalid	0.399919528999817	53248.0	0	1.0	2.0	51200	0	51200	0	53248	1	0.7	51200	turquoise	purple	1	6	ml	2.7.3	bip	sub-08_ses-01_task-ml_proj-bip_2020-11-24-10-29-25.462673
200	8	1	5	201	stable	8	200	1	vs	purple	turquoise	turquoise	purple	right	left	0.30000000000000004	0.7	2	6	0.6000000000000001	4.199999999999998	0	1	0.7	0.30000000000000004	6	2	4.199999999999998	0.6000000000000001	valid	0.7998007570004121	51200.0	0	0.0	2.0	51200	1	51200	1	51200	1	0.7	51200	purple	turquoise	1	6	ml	2.7.3	bip	sub-08_ses-01_task-ml_proj-bip_2020-11-24-10-29-25.462673
201	8	1	5	202	stable	8	200	2	vs	purple	turquoise	turquoise	purple	right	left	0.30000000000000004	0.7	6	2	1.8000000000000005	1.4	1	0	0.7	0.30000000000000004	2	6	1.4	1.8000000000000005	invalid	0.34992419999980484	51200.0	0	0.0	2.0	53248	0	51200	1	53248	0	0.7	51200	purple	turquoise	0	0	ml	2.7.3	bip	sub-08_ses-01_task-ml_proj-bip_2020-11-24-10-29-25.462673
202	8	1	5	203	stable	8	200	3	vs	purple	turquoise	turquoise	purple	right	left	0.30000000000000004	0.7	2	6	0.6000000000000001	4.199999999999998	0	1	0.7	0.30000000000000004	6	2	4.199999999999998	0.6000000000000001	valid	0.4665665939992323	53248.0	0	1.0	1.0	51200	0	51200	0	51200	0	0.7	51200	purple	turquoise	1	0	ml	2.7.3	bip	sub-08_ses-01_task-ml_proj-bip_2020-11-24-10-29-25.462673
203	8	1	5	204	stable	8	200	4	vs	purple	turquoise	turquoise	purple	right	left	0.30000000000000004	0.7	4	6	1.2000000000000002	4.199999999999998	1	0	0.7	0.30000000000000004	6	4	4.199999999999998	1.2000000000000002	invalid	0.3665883610010496	51200.0	0	0.0	2.0	51200	1	51200	1	51200	1	0.7	51200	purple	turquoise	1	0	ml	2.7.3	bip	sub-08_ses-01_task-ml_proj-bip_2020-11-24-10-29-25.462673
204	8	1	5	205	stable	8	200	5	vs	purple	turquoise	turquoise	purple	right	left	0.30000000000000004	0.7	4	6	1.2000000000000002	4.199999999999998	0	1	0.7	0.30000000000000004	6	4	4.199999999999998	1.2000000000000002	valid	0.39992056300070544	53248.0	0	1.0	1.0	51200	0	51200	0	51200	0	0.7	51200	purple	turquoise	1	0	ml	2.7.3	bip	sub-08_ses-01_task-ml_proj-bip_2020-11-24-10-29-25.462673
205	8	1	5	206	stable	8	200	6	vs	purple	turquoise	turquoise	purple	right	left	0.30000000000000004	0.7	4	2	1.2000000000000002	1.4	0	1	0.7	0.30000000000000004	2	4	1.4	1.2000000000000002	valid	0.8497932850004872	53248.0	0	1.0	1.0	51200	0	51200	0	53248	1	0.7	51200	purple	turquoise	0	0	ml	2.7.3	bip	sub-08_ses-01_task-ml_proj-bip_2020-11-24-10-29-25.462673
206	8	1	5	207	stable	8	200	7	vs	turquoise	purple	turquoise	purple	left	right	0.30000000000000004	0.7	6	6	1.8000000000000005	4.199999999999998	1	0	0.30000000000000004	0.7	6	6	1.8000000000000005	4.199999999999998	invalid	0.39991995900163596	53248.0	0	1.0	2.0	53248	1	53248	1	53248	1	0.7	53248	purple	turquoise	0	0	ml	2.7.3	bip	sub-08_ses-01_task-ml_proj-bip_2020-11-24-10-29-25.462673
207	8	1	5	208	stable	8	200	8	vs	purple	turquoise	turquoise	purple	right	left	0.30000000000000004	0.7	10	2	3.0000000000000004	1.4	1	0	0.7	0.30000000000000004	2	10	1.4	3.0000000000000004	invalid	0.44990459499967983	53248.0	0	1.0	1.0	53248	1	51200	0	53248	1	0.7	51200	purple	turquoise	0	10	ml	2.7.3	bip	sub-08_ses-01_task-ml_proj-bip_2020-11-24-10-29-25.462673
208	8	1	5	209	stable	8	200	9	vs	turquoise	purple	turquoise	purple	left	right	0.30000000000000004	0.7	6	6	1.8000000000000005	4.199999999999998	1	0	0.30000000000000004	0.7	6	6	1.8000000000000005	4.199999999999998	invalid	0.31660251799985417	51200.0	0	0.0	1.0	53248	0	53248	0	53248	0	0.7	53248	purple	turquoise	0	6	ml	2.7.3	bip	sub-08_ses-01_task-ml_proj-bip_2020-11-24-10-29-25.462673
209	8	1	5	210	stable	8	200	10	vs	turquoise	purple	turquoise	purple	left	right	0.30000000000000004	0.7	2	4	0.6000000000000001	2.8	1	0	0.30000000000000004	0.7	2	4	0.6000000000000001	2.8	invalid	0.3832538419992488	51200.0	0	0.0	1.0	53248	0	53248	0	53248	0	0.7	53248	purple	turquoise	1	2	ml	2.7.3	bip	sub-08_ses-01_task-ml_proj-bip_2020-11-24-10-29-25.462673
210	8	1	5	211	stable	8	200	11	vs	turquoise	purple	turquoise	purple	left	right	0.30000000000000004	0.7	6	4	1.8000000000000005	2.8	0	1	0.30000000000000004	0.7	6	4	1.8000000000000005	2.8	valid	0.4165685560001293	51200.0	0	0.0	1.0	53248	0	53248	0	51200	1	0.7	53248	purple	turquoise	0	0	ml	2.7.3	bip	sub-08_ses-01_task-ml_proj-bip_2020-11-24-10-29-25.462673
211	8	1	5	212	stable	8	200	12	vs	turquoise	purple	turquoise	purple	left	right	0.30000000000000004	0.7	6	2	1.8000000000000005	1.4	0	1	0.30000000000000004	0.7	6	2	1.8000000000000005	1.4	valid	0.8664533049995953	53248.0	0	1.0	2.0	51200	0	53248	1	51200	0	0.7	53248	purple	turquoise	0	2	ml	2.7.3	bip	sub-08_ses-01_task-ml_proj-bip_2020-11-24-10-29-25.462673
212	8	1	5	213	stable	8	200	13	vs	purple	turquoise	turquoise	purple	right	left	0.30000000000000004	0.7	6	2	1.8000000000000005	1.4	1	0	0.7	0.30000000000000004	2	6	1.4	1.8000000000000005	invalid	0.33326371400107746	51200.0	0	0.0	2.0	53248	0	51200	1	53248	0	0.7	51200	purple	turquoise	0	0	ml	2.7.3	bip	sub-08_ses-01_task-ml_proj-bip_2020-11-24-10-29-25.462673
213	8	1	5	214	stable	8	200	14	vs	turquoise	purple	turquoise	purple	left	right	0.30000000000000004	0.7	2	6	0.6000000000000001	4.199999999999998	0	1	0.30000000000000004	0.7	2	6	0.6000000000000001	4.199999999999998	valid	0.5498657850002928	51200.0	0	0.0	1.0	53248	0	53248	0	53248	0	0.7	53248	purple	turquoise	1	0	ml	2.7.3	bip	sub-08_ses-01_task-ml_proj-bip_2020-11-24-10-29-25.462673
214	8	1	5	215	stable	8	200	15	vs	purple	turquoise	turquoise	purple	right	left	0.30000000000000004	0.7	2	4	0.6000000000000001	2.8	0	1	0.7	0.30000000000000004	4	2	2.8	0.6000000000000001	valid	0.4998825889997534	51200.0	0	0.0	2.0	51200	1	51200	1	51200	1	0.7	51200	purple	turquoise	1	4	ml	2.7.3	bip	sub-08_ses-01_task-ml_proj-bip_2020-11-24-10-29-25.462673
215	8	1	5	216	stable	8	200	16	vs	turquoise	purple	turquoise	purple	left	right	0.30000000000000004	0.7	2	6	0.6000000000000001	4.199999999999998	0	1	0.30000000000000004	0.7	2	6	0.6000000000000001	4.199999999999998	valid	0.466572276000079	53248.0	0	1.0	2.0	53248	1	53248	1	53248	1	0.7	53248	purple	turquoise	1	6	ml	2.7.3	bip	sub-08_ses-01_task-ml_proj-bip_2020-11-24-10-29-25.462673
216	8	1	5	217	stable	8	200	17	vs	purple	turquoise	turquoise	purple	right	left	0.30000000000000004	0.7	6	6	1.8000000000000005	4.199999999999998	0	1	0.7	0.30000000000000004	6	6	4.199999999999998	1.8000000000000005	valid	0.4332334990012896	51200.0	0	0.0	2.0	51200	1	51200	1	53248	0	0.7	51200	purple	turquoise	1	6	ml	2.7.3	bip	sub-08_ses-01_task-ml_proj-bip_2020-11-24-10-29-25.462673
217	8	1	5	218	stable	8	200	18	vs	turquoise	purple	turquoise	purple	left	right	0.30000000000000004	0.7	6	2	1.8000000000000005	1.4	0	1	0.30000000000000004	0.7	6	2	1.8000000000000005	1.4	valid	0.6998359130011522	53248.0	0	1.0	2.0	51200	0	53248	1	51200	0	0.7	53248	purple	turquoise	0	2	ml	2.7.3	bip	sub-08_ses-01_task-ml_proj-bip_2020-11-24-10-29-25.462673
218	8	1	5	219	stable	8	200	19	vs	turquoise	purple	turquoise	purple	left	right	0.30000000000000004	0.7	6	6	1.8000000000000005	4.199999999999998	1	0	0.30000000000000004	0.7	6	6	1.8000000000000005	4.199999999999998	invalid	0.39992175699990185	53248.0	0	1.0	2.0	53248	1	53248	1	53248	1	0.7	53248	purple	turquoise	0	0	ml	2.7.3	bip	sub-08_ses-01_task-ml_proj-bip_2020-11-24-10-29-25.462673
219	8	1	5	220	stable	8	200	20	vs	purple	turquoise	turquoise	purple	right	left	0.30000000000000004	0.7	2	2	0.6000000000000001	1.4	0	1	0.7	0.30000000000000004	2	2	1.4	0.6000000000000001	valid	0.416584018001231	53248.0	0	1.0	1.0	51200	0	51200	0	53248	1	0.7	51200	purple	turquoise	1	0	ml	2.7.3	bip	sub-08_ses-01_task-ml_proj-bip_2020-11-24-10-29-25.462673
220	8	1	5	221	stable	8	200	21	vs	turquoise	purple	turquoise	purple	left	right	0.30000000000000004	0.7	6	6	1.8000000000000005	4.199999999999998	0	1	0.30000000000000004	0.7	6	6	1.8000000000000005	4.199999999999998	valid	0.36659723599950667	53248.0	0	1.0	2.0	53248	1	53248	1	53248	1	0.7	53248	purple	turquoise	0	6	ml	2.7.3	bip	sub-08_ses-01_task-ml_proj-bip_2020-11-24-10-29-25.462673
221	8	1	5	222	stable	8	200	22	vs	turquoise	purple	turquoise	purple	left	right	0.30000000000000004	0.7	2	10	0.6000000000000001	7.0	0	1	0.30000000000000004	0.7	2	10	0.6000000000000001	7.0	valid	0.3666040869993594	53248.0	0	1.0	2.0	53248	1	53248	1	53248	1	0.7	53248	purple	turquoise	1	10	ml	2.7.3	bip	sub-08_ses-01_task-ml_proj-bip_2020-11-24-10-29-25.462673
222	8	1	5	223	stable	8	200	23	vs	purple	turquoise	turquoise	purple	right	left	0.30000000000000004	0.7	4	6	1.2000000000000002	4.199999999999998	0	1	0.7	0.30000000000000004	6	4	4.199999999999998	1.2000000000000002	valid	0.783132967999336	51200.0	0	0.0	2.0	51200	1	51200	1	51200	1	0.7	51200	purple	turquoise	1	6	ml	2.7.3	bip	sub-08_ses-01_task-ml_proj-bip_2020-11-24-10-29-25.462673
223	8	1	5	224	stable	8	200	24	vs	turquoise	purple	turquoise	purple	left	right	0.30000000000000004	0.7	4	6	1.2000000000000002	4.199999999999998	0	1	0.30000000000000004	0.7	4	6	1.2000000000000002	4.199999999999998	valid	0.6331851020004251	53248.0	0	1.0	2.0	53248	1	53248	1	53248	1	0.7	53248	purple	turquoise	1	6	ml	2.7.3	bip	sub-08_ses-01_task-ml_proj-bip_2020-11-24-10-29-25.462673
224	8	1	5	225	stable	8	200	25	vs	purple	turquoise	turquoise	purple	right	left	0.30000000000000004	0.7	2	4	0.6000000000000001	2.8	0	1	0.7	0.30000000000000004	4	2	2.8	0.6000000000000001	valid	0.6498398530002305	51200.0	0	0.0	2.0	51200	1	51200	1	51200	1	0.7	51200	purple	turquoise	1	4	ml	2.7.3	bip	sub-08_ses-01_task-ml_proj-bip_2020-11-24-10-29-25.462673
225	8	1	5	226	stable	8	200	26	vs	purple	turquoise	turquoise	purple	right	left	0.30000000000000004	0.7	2	10	0.6000000000000001	7.0	1	0	0.7	0.30000000000000004	10	2	7.0	0.6000000000000001	invalid	0.5998545689999446	51200.0	0	0.0	2.0	51200	1	51200	1	51200	1	0.7	51200	purple	turquoise	1	0	ml	2.7.3	bip	sub-08_ses-01_task-ml_proj-bip_2020-11-24-10-29-25.462673
226	8	1	5	227	stable	8	200	27	vs	turquoise	purple	turquoise	purple	left	right	0.30000000000000004	0.7	2	4	0.6000000000000001	2.8	0	1	0.30000000000000004	0.7	2	4	0.6000000000000001	2.8	valid	0.399911462000091	51200.0	0	0.0	1.0	53248	0	53248	0	53248	0	0.7	53248	purple	turquoise	1	0	ml	2.7.3	bip	sub-08_ses-01_task-ml_proj-bip_2020-11-24-10-29-25.462673
227	8	1	5	228	stable	8	200	28	vs	turquoise	purple	turquoise	purple	left	right	0.30000000000000004	0.7	6	4	1.8000000000000005	2.8	0	1	0.30000000000000004	0.7	6	4	1.8000000000000005	2.8	valid	0.5832087819999288	53248.0	0	1.0	2.0	53248	1	53248	1	51200	0	0.7	53248	purple	turquoise	0	4	ml	2.7.3	bip	sub-08_ses-01_task-ml_proj-bip_2020-11-24-10-29-25.462673
228	8	1	5	229	stable	8	200	29	vs	turquoise	purple	turquoise	purple	left	right	0.30000000000000004	0.7	6	6	1.8000000000000005	4.199999999999998	0	1	0.30000000000000004	0.7	6	6	1.8000000000000005	4.199999999999998	valid	0.3832588740006031	53248.0	0	1.0	2.0	53248	1	53248	1	53248	1	0.7	53248	purple	turquoise	0	6	ml	2.7.3	bip	sub-08_ses-01_task-ml_proj-bip_2020-11-24-10-29-25.462673
229	8	1	5	230	stable	8	200	30	vs	turquoise	purple	turquoise	purple	left	right	0.30000000000000004	0.7	2	6	0.6000000000000001	4.199999999999998	0	1	0.30000000000000004	0.7	2	6	0.6000000000000001	4.199999999999998	valid	0.5498779959998501	53248.0	0	1.0	2.0	53248	1	53248	1	53248	1	0.7	53248	purple	turquoise	1	6	ml	2.7.3	bip	sub-08_ses-01_task-ml_proj-bip_2020-11-24-10-29-25.462673
230	8	1	5	231	stable	8	200	31	vs	turquoise	purple	turquoise	purple	left	right	0.30000000000000004	0.7	4	6	1.2000000000000002	4.199999999999998	0	1	0.30000000000000004	0.7	4	6	1.2000000000000002	4.199999999999998	valid	0.3999218989993096	53248.0	0	1.0	2.0	53248	1	53248	1	53248	1	0.7	53248	purple	turquoise	1	6	ml	2.7.3	bip	sub-08_ses-01_task-ml_proj-bip_2020-11-24-10-29-25.462673
231	8	1	5	232	stable	8	200	32	vs	purple	turquoise	turquoise	purple	right	left	0.30000000000000004	0.7	2	10	0.6000000000000001	7.0	1	0	0.7	0.30000000000000004	10	2	7.0	0.6000000000000001	invalid	0.6165150109991373	51200.0	0	0.0	2.0	51200	1	51200	1	51200	1	0.7	51200	purple	turquoise	1	0	ml	2.7.3	bip	sub-08_ses-01_task-ml_proj-bip_2020-11-24-10-29-25.462673
232	8	1	5	233	stable	8	200	33	vs	purple	turquoise	turquoise	purple	right	left	0.30000000000000004	0.7	4	2	1.2000000000000002	1.4	0	1	0.7	0.30000000000000004	2	4	1.4	1.2000000000000002	valid	0.3499391740006104	53248.0	0	1.0	1.0	51200	0	51200	0	53248	1	0.7	51200	purple	turquoise	0	0	ml	2.7.3	bip	sub-08_ses-01_task-ml_proj-bip_2020-11-24-10-29-25.462673
233	8	1	5	234	stable	8	200	34	vs	turquoise	purple	turquoise	purple	left	right	0.30000000000000004	0.7	2	2	0.6000000000000001	1.4	0	1	0.30000000000000004	0.7	2	2	0.6000000000000001	1.4	valid	0.4998923610000929	53248.0	0	1.0	2.0	53248	1	53248	1	53248	1	0.7	53248	purple	turquoise	0	2	ml	2.7.3	bip	sub-08_ses-01_task-ml_proj-bip_2020-11-24-10-29-25.462673
234	8	1	5	235	stable	8	200	35	vs	turquoise	purple	turquoise	purple	left	right	0.30000000000000004	0.7	4	6	1.2000000000000002	4.199999999999998	0	1	0.30000000000000004	0.7	4	6	1.2000000000000002	4.199999999999998	valid	0.3999213419992884	53248.0	0	1.0	2.0	53248	1	53248	1	53248	1	0.7	53248	purple	turquoise	1	6	ml	2.7.3	bip	sub-08_ses-01_task-ml_proj-bip_2020-11-24-10-29-25.462673
235	8	1	5	236	stable	8	200	36	vs	turquoise	purple	turquoise	purple	left	right	0.30000000000000004	0.7	2	2	0.6000000000000001	1.4	0	1	0.30000000000000004	0.7	2	2	0.6000000000000001	1.4	valid	0.5498754660002305	53248.0	0	1.0	2.0	53248	1	53248	1	53248	1	0.7	53248	purple	turquoise	0	2	ml	2.7.3	bip	sub-08_ses-01_task-ml_proj-bip_2020-11-24-10-29-25.462673
236	8	1	5	237	stable	8	200	37	vs	turquoise	purple	turquoise	purple	left	right	0.30000000000000004	0.7	2	10	0.6000000000000001	7.0	0	1	0.30000000000000004	0.7	2	10	0.6000000000000001	7.0	valid	0.6498335670003144	53248.0	0	1.0	2.0	53248	1	53248	1	53248	1	0.7	53248	purple	turquoise	1	10	ml	2.7.3	bip	sub-08_ses-01_task-ml_proj-bip_2020-11-24-10-29-25.462673
237	8	1	5	238	stable	8	200	38	vs	turquoise	purple	turquoise	purple	left	right	0.30000000000000004	0.7	6	4	1.8000000000000005	2.8	1	0	0.30000000000000004	0.7	6	4	1.8000000000000005	2.8	invalid	0.3999175320004724	53248.0	0	1.0	2.0	53248	1	53248	1	51200	0	0.7	53248	purple	turquoise	0	0	ml	2.7.3	bip	sub-08_ses-01_task-ml_proj-bip_2020-11-24-10-29-25.462673
238	8	1	5	239	stable	8	200	39	vs	turquoise	purple	turquoise	purple	left	right	0.30000000000000004	0.7	6	6	1.8000000000000005	4.199999999999998	0	1	0.30000000000000004	0.7	6	6	1.8000000000000005	4.199999999999998	valid	0.4998801680012548	51200.0	0	0.0	1.0	53248	0	53248	0	53248	0	0.7	53248	purple	turquoise	0	0	ml	2.7.3	bip	sub-08_ses-01_task-ml_proj-bip_2020-11-24-10-29-25.462673
239	8	1	5	240	stable	8	200	40	vs	turquoise	purple	turquoise	purple	left	right	0.30000000000000004	0.7	2	2	0.6000000000000001	1.4	0	1	0.30000000000000004	0.7	2	2	0.6000000000000001	1.4	valid	0.7664691770005447	51200.0	0	0.0	1.0	53248	0	53248	0	53248	0	0.7	53248	purple	turquoise	0	0	ml	2.7.3	bip	sub-08_ses-01_task-ml_proj-bip_2020-11-24-10-29-25.462673
240	8	1	5	241	stable	8	200	41	vs	purple	turquoise	turquoise	purple	right	left	0.30000000000000004	0.7	10	2	3.0000000000000004	1.4	0	1	0.7	0.30000000000000004	2	10	1.4	3.0000000000000004	valid	0.7831748929984315	53248.0	0	1.0	1.0	53248	1	51200	0	53248	1	0.7	51200	purple	turquoise	0	0	ml	2.7.3	bip	sub-08_ses-01_task-ml_proj-bip_2020-11-24-10-29-25.462673
241	8	1	5	242	stable	8	200	42	vs	turquoise	purple	turquoise	purple	left	right	0.30000000000000004	0.7	6	2	1.8000000000000005	1.4	0	1	0.30000000000000004	0.7	6	2	1.8000000000000005	1.4	valid	0.3832656080012384	53248.0	0	1.0	2.0	51200	0	53248	1	51200	0	0.7	53248	purple	turquoise	0	2	ml	2.7.3	bip	sub-08_ses-01_task-ml_proj-bip_2020-11-24-10-29-25.462673
242	8	1	5	243	stable	8	200	43	vs	turquoise	purple	turquoise	purple	left	right	0.30000000000000004	0.7	2	6	0.6000000000000001	4.199999999999998	1	0	0.30000000000000004	0.7	2	6	0.6000000000000001	4.199999999999998	invalid	0.3832557830010046	53248.0	0	1.0	2.0	53248	1	53248	1	53248	1	0.7	53248	purple	turquoise	1	0	ml	2.7.3	bip	sub-08_ses-01_task-ml_proj-bip_2020-11-24-10-29-25.462673
243	8	1	5	244	stable	8	200	44	vs	purple	turquoise	turquoise	purple	right	left	0.30000000000000004	0.7	6	6	1.8000000000000005	4.199999999999998	0	1	0.7	0.30000000000000004	6	6	4.199999999999998	1.8000000000000005	valid	0.3665863910009648	51200.0	0	0.0	2.0	51200	1	51200	1	53248	0	0.7	51200	purple	turquoise	1	6	ml	2.7.3	bip	sub-08_ses-01_task-ml_proj-bip_2020-11-24-10-29-25.462673
244	8	1	5	245	stable	8	200	45	vs	purple	turquoise	turquoise	purple	right	left	0.30000000000000004	0.7	4	6	1.2000000000000002	4.199999999999998	0	1	0.7	0.30000000000000004	6	4	4.199999999999998	1.2000000000000002	valid	0.4665565489995061	51200.0	0	0.0	2.0	51200	1	51200	1	51200	1	0.7	51200	purple	turquoise	1	6	ml	2.7.3	bip	sub-08_ses-01_task-ml_proj-bip_2020-11-24-10-29-25.462673
245	8	1	5	246	stable	8	200	46	vs	purple	turquoise	turquoise	purple	right	left	0.30000000000000004	0.7	6	6	1.8000000000000005	4.199999999999998	1	0	0.7	0.30000000000000004	6	6	4.199999999999998	1.8000000000000005	invalid	0.33326236399989284	51200.0	0	0.0	2.0	51200	1	51200	1	53248	0	0.7	51200	purple	turquoise	1	0	ml	2.7.3	bip	sub-08_ses-01_task-ml_proj-bip_2020-11-24-10-29-25.462673
246	8	1	5	247	stable	8	200	47	vs	turquoise	purple	turquoise	purple	left	right	0.30000000000000004	0.7	4	6	1.2000000000000002	4.199999999999998	0	1	0.30000000000000004	0.7	4	6	1.2000000000000002	4.199999999999998	valid	0.3832475899998826	51200.0	0	0.0	1.0	53248	0	53248	0	53248	0	0.7	53248	purple	turquoise	1	0	ml	2.7.3	bip	sub-08_ses-01_task-ml_proj-bip_2020-11-24-10-29-25.462673
247	8	1	5	248	stable	8	200	48	vs	purple	turquoise	turquoise	purple	right	left	0.30000000000000004	0.7	2	2	0.6000000000000001	1.4	0	1	0.7	0.30000000000000004	2	2	1.4	0.6000000000000001	valid	0.4998878939986753	51200.0	0	0.0	2.0	51200	1	51200	1	53248	0	0.7	51200	purple	turquoise	1	2	ml	2.7.3	bip	sub-08_ses-01_task-ml_proj-bip_2020-11-24-10-29-25.462673
248	8	1	5	249	stable	8	200	49	vs	purple	turquoise	turquoise	purple	right	left	0.30000000000000004	0.7	2	2	0.6000000000000001	1.4	0	1	0.7	0.30000000000000004	2	2	1.4	0.6000000000000001	valid	0.566529076999359	51200.0	0	0.0	2.0	51200	1	51200	1	53248	0	0.7	51200	purple	turquoise	1	2	ml	2.7.3	bip	sub-08_ses-01_task-ml_proj-bip_2020-11-24-10-29-25.462673
249	8	1	5	250	stable	8	200	50	vs	purple	turquoise	turquoise	purple	right	left	0.30000000000000004	0.7	2	6	0.6000000000000001	4.199999999999998	0	1	0.7	0.30000000000000004	6	2	4.199999999999998	0.6000000000000001	valid	0.3499258480005665	51200.0	0	0.0	2.0	51200	1	51200	1	51200	1	0.7	51200	purple	turquoise	1	6	ml	2.7.3	bip	sub-08_ses-01_task-ml_proj-bip_2020-11-24-10-29-25.462673
250	8	1	6	251	stable	8	200	51	vs	purple	turquoise	turquoise	purple	right	left	0.30000000000000004	0.7	2	10	0.6000000000000001	7.0	0	1	0.7	0.30000000000000004	10	2	7.0	0.6000000000000001	valid	0.816461933998653	51200.0	0	0.0	2.0	51200	1	51200	1	51200	1	0.7	51200	purple	turquoise	1	10	ml	2.7.3	bip	sub-08_ses-01_task-ml_proj-bip_2020-11-24-10-29-25.462673
251	8	1	6	252	stable	8	200	52	vs	turquoise	purple	turquoise	purple	left	right	0.30000000000000004	0.7	2	4	0.6000000000000001	2.8	1	0	0.30000000000000004	0.7	2	4	0.6000000000000001	2.8	invalid	0.4165857290008717	53248.0	0	1.0	2.0	53248	1	53248	1	53248	1	0.7	53248	purple	turquoise	1	0	ml	2.7.3	bip	sub-08_ses-01_task-ml_proj-bip_2020-11-24-10-29-25.462673
252	8	1	6	253	stable	8	200	53	vs	turquoise	purple	turquoise	purple	left	right	0.30000000000000004	0.7	2	6	0.6000000000000001	4.199999999999998	0	1	0.30000000000000004	0.7	2	6	0.6000000000000001	4.199999999999998	valid	0.3832625819995883	53248.0	0	1.0	2.0	53248	1	53248	1	53248	1	0.7	53248	purple	turquoise	1	6	ml	2.7.3	bip	sub-08_ses-01_task-ml_proj-bip_2020-11-24-10-29-25.462673
253	8	1	6	254	stable	8	200	54	vs	purple	turquoise	turquoise	purple	right	left	0.30000000000000004	0.7	10	2	3.0000000000000004	1.4	0	1	0.7	0.30000000000000004	2	10	1.4	3.0000000000000004	valid	1.382957574000102	51200.0	0	0.0	2.0	53248	0	51200	1	53248	0	0.7	51200	purple	turquoise	0	2	ml	2.7.3	bip	sub-08_ses-01_task-ml_proj-bip_2020-11-24-10-29-25.462673
254	8	1	6	255	stable	8	200	55	vs	purple	turquoise	turquoise	purple	right	left	0.30000000000000004	0.7	4	2	1.2000000000000002	1.4	1	0	0.7	0.30000000000000004	2	4	1.4	1.2000000000000002	invalid	0.333260268000231	51200.0	0	0.0	2.0	51200	1	51200	1	53248	0	0.7	51200	purple	turquoise	0	0	ml	2.7.3	bip	sub-08_ses-01_task-ml_proj-bip_2020-11-24-10-29-25.462673
255	8	1	6	256	stable	8	200	56	vs	purple	turquoise	turquoise	purple	right	left	0.30000000000000004	0.7	4	6	1.2000000000000002	4.199999999999998	1	0	0.7	0.30000000000000004	6	4	4.199999999999998	1.2000000000000002	invalid	0.4332454989998951	53248.0	0	1.0	1.0	51200	0	51200	0	51200	0	0.7	51200	purple	turquoise	1	4	ml	2.7.3	bip	sub-08_ses-01_task-ml_proj-bip_2020-11-24-10-29-25.462673
256	8	1	6	257	stable	8	200	57	vs	purple	turquoise	turquoise	purple	right	left	0.30000000000000004	0.7	2	10	0.6000000000000001	7.0	0	1	0.7	0.30000000000000004	10	2	7.0	0.6000000000000001	valid	1.4329553870011296	53248.0	0	1.0	1.0	51200	0	51200	0	51200	0	0.7	51200	purple	turquoise	1	0	ml	2.7.3	bip	sub-08_ses-01_task-ml_proj-bip_2020-11-24-10-29-25.462673
257	8	1	6	258	stable	8	200	58	vs	purple	turquoise	turquoise	purple	right	left	0.30000000000000004	0.7	6	4	1.8000000000000005	2.8	1	0	0.7	0.30000000000000004	4	6	2.8	1.8000000000000005	invalid	0.4667969879992597	51200.0	0	0.0	2.0	51200	1	51200	1	53248	0	0.7	51200	purple	turquoise	0	0	ml	2.7.3	bip	sub-08_ses-01_task-ml_proj-bip_2020-11-24-10-29-25.462673
258	8	1	6	259	stable	8	200	59	vs	purple	turquoise	turquoise	purple	right	left	0.30000000000000004	0.7	6	2	1.8000000000000005	1.4	0	1	0.7	0.30000000000000004	2	6	1.4	1.8000000000000005	valid	0.44990602399957424	53248.0	0	1.0	1.0	53248	1	51200	0	53248	1	0.7	51200	purple	turquoise	0	0	ml	2.7.3	bip	sub-08_ses-01_task-ml_proj-bip_2020-11-24-10-29-25.462673
259	8	1	6	260	stable	8	200	60	vs	purple	turquoise	turquoise	purple	right	left	0.30000000000000004	0.7	2	2	0.6000000000000001	1.4	0	1	0.7	0.30000000000000004	2	2	1.4	0.6000000000000001	valid	0.8497768040015217	51200.0	0	0.0	2.0	51200	1	51200	1	53248	0	0.7	51200	purple	turquoise	1	2	ml	2.7.3	bip	sub-08_ses-01_task-ml_proj-bip_2020-11-24-10-29-25.462673
260	8	1	6	261	stable	8	200	61	vs	turquoise	purple	turquoise	purple	left	right	0.30000000000000004	0.7	2	2	0.6000000000000001	1.4	1	0	0.30000000000000004	0.7	2	2	0.6000000000000001	1.4	invalid	0.4832286170003499	53248.0	0	1.0	2.0	53248	1	53248	1	53248	1	0.7	53248	purple	turquoise	0	0	ml	2.7.3	bip	sub-08_ses-01_task-ml_proj-bip_2020-11-24-10-29-25.462673
261	8	1	6	262	stable	8	200	62	vs	turquoise	purple	turquoise	purple	left	right	0.30000000000000004	0.7	6	2	1.8000000000000005	1.4	1	0	0.30000000000000004	0.7	6	2	1.8000000000000005	1.4	invalid	0.433235603999492	51200.0	0	0.0	1.0	51200	1	53248	0	51200	1	0.7	53248	purple	turquoise	0	6	ml	2.7.3	bip	sub-08_ses-01_task-ml_proj-bip_2020-11-24-10-29-25.462673
262	8	1	6	263	stable	8	200	63	vs	turquoise	purple	turquoise	purple	left	right	0.30000000000000004	0.7	2	2	0.6000000000000001	1.4	0	1	0.30000000000000004	0.7	2	2	0.6000000000000001	1.4	valid	0.6498384269998496	51200.0	0	0.0	1.0	53248	0	53248	0	53248	0	0.7	53248	purple	turquoise	0	0	ml	2.7.3	bip	sub-08_ses-01_task-ml_proj-bip_2020-11-24-10-29-25.462673
263	8	1	6	264	stable	8	200	64	vs	turquoise	purple	turquoise	purple	left	right	0.30000000000000004	0.7	6	4	1.8000000000000005	2.8	0	1	0.30000000000000004	0.7	6	4	1.8000000000000005	2.8	valid	0.7331553180010815	53248.0	0	1.0	2.0	53248	1	53248	1	51200	0	0.7	53248	purple	turquoise	0	4	ml	2.7.3	bip	sub-08_ses-01_task-ml_proj-bip_2020-11-24-10-29-25.462673
264	8	1	6	265	stable	8	200	65	vs	purple	turquoise	turquoise	purple	right	left	0.30000000000000004	0.7	4	6	1.2000000000000002	4.199999999999998	0	1	0.7	0.30000000000000004	6	4	4.199999999999998	1.2000000000000002	valid	0.8664423969985364	51200.0	0	0.0	2.0	51200	1	51200	1	51200	1	0.7	51200	purple	turquoise	1	6	ml	2.7.3	bip	sub-08_ses-01_task-ml_proj-bip_2020-11-24-10-29-25.462673
265	8	1	6	266	stable	8	200	66	vs	purple	turquoise	turquoise	purple	right	left	0.30000000000000004	0.7	2	6	0.6000000000000001	4.199999999999998	0	1	0.7	0.30000000000000004	6	2	4.199999999999998	0.6000000000000001	valid	0.3999079889999848	51200.0	0	0.0	2.0	51200	1	51200	1	51200	1	0.7	51200	purple	turquoise	1	6	ml	2.7.3	bip	sub-08_ses-01_task-ml_proj-bip_2020-11-24-10-29-25.462673
266	8	1	6	267	stable	8	200	67	vs	purple	turquoise	turquoise	purple	right	left	0.30000000000000004	0.7	2	2	0.6000000000000001	1.4	1	0	0.7	0.30000000000000004	2	2	1.4	0.6000000000000001	invalid	0.7498012480009493	51200.0	0	0.0	2.0	51200	1	51200	1	53248	0	0.7	51200	purple	turquoise	1	0	ml	2.7.3	bip	sub-08_ses-01_task-ml_proj-bip_2020-11-24-10-29-25.462673
267	8	1	6	268	stable	8	200	68	vs	purple	turquoise	turquoise	purple	right	left	0.30000000000000004	0.7	2	10	0.6000000000000001	7.0	0	1	0.7	0.30000000000000004	10	2	7.0	0.6000000000000001	valid	0.3832514360001369	53248.0	0	1.0	1.0	51200	0	51200	0	51200	0	0.7	51200	purple	turquoise	1	0	ml	2.7.3	bip	sub-08_ses-01_task-ml_proj-bip_2020-11-24-10-29-25.462673
268	8	1	6	269	stable	8	200	69	vs	purple	turquoise	turquoise	purple	right	left	0.30000000000000004	0.7	2	10	0.6000000000000001	7.0	0	1	0.7	0.30000000000000004	10	2	7.0	0.6000000000000001	valid	0.7831320509994839	51200.0	0	0.0	2.0	51200	1	51200	1	51200	1	0.7	51200	purple	turquoise	1	10	ml	2.7.3	bip	sub-08_ses-01_task-ml_proj-bip_2020-11-24-10-29-25.462673
269	8	1	6	270	stable	8	200	70	vs	purple	turquoise	turquoise	purple	right	left	0.30000000000000004	0.7	10	2	3.0000000000000004	1.4	1	0	0.7	0.30000000000000004	2	10	1.4	3.0000000000000004	invalid	1.3829641390002507	53248.0	0	1.0	1.0	53248	1	51200	0	53248	1	0.7	51200	purple	turquoise	0	10	ml	2.7.3	bip	sub-08_ses-01_task-ml_proj-bip_2020-11-24-10-29-25.462673
270	8	1	6	271	stable	8	200	71	vs	turquoise	purple	turquoise	purple	left	right	0.30000000000000004	0.7	4	6	1.2000000000000002	4.199999999999998	0	1	0.30000000000000004	0.7	4	6	1.2000000000000002	4.199999999999998	valid	0.5831857200009836	51200.0	0	0.0	1.0	53248	0	53248	0	53248	0	0.7	53248	purple	turquoise	1	0	ml	2.7.3	bip	sub-08_ses-01_task-ml_proj-bip_2020-11-24-10-29-25.462673
271	8	1	6	272	stable	8	200	72	vs	turquoise	purple	turquoise	purple	left	right	0.30000000000000004	0.7	4	2	1.2000000000000002	1.4	0	1	0.30000000000000004	0.7	4	2	1.2000000000000002	1.4	valid	0.7998043420011527	53248.0	0	1.0	2.0	53248	1	53248	1	51200	0	0.7	53248	purple	turquoise	0	2	ml	2.7.3	bip	sub-08_ses-01_task-ml_proj-bip_2020-11-24-10-29-25.462673
272	8	1	6	273	stable	8	200	73	vs	turquoise	purple	turquoise	purple	left	right	0.30000000000000004	0.7	2	10	0.6000000000000001	7.0	0	1	0.30000000000000004	0.7	2	10	0.6000000000000001	7.0	valid	1.3663060440012489	53248.0	0	1.0	2.0	53248	1	53248	1	53248	1	0.7	53248	purple	turquoise	1	10	ml	2.7.3	bip	sub-08_ses-01_task-ml_proj-bip_2020-11-24-10-29-25.462673
273	8	1	6	274	stable	8	200	74	vs	purple	turquoise	turquoise	purple	right	left	0.30000000000000004	0.7	4	6	1.2000000000000002	4.199999999999998	0	1	0.7	0.30000000000000004	6	4	4.199999999999998	1.2000000000000002	valid	0.4665547870008595	51200.0	0	0.0	2.0	51200	1	51200	1	51200	1	0.7	51200	purple	turquoise	1	6	ml	2.7.3	bip	sub-08_ses-01_task-ml_proj-bip_2020-11-24-10-29-25.462673
