Unnamed: 0	sub_id	ses_id	block_no	trial_no	phase_type	phase_no	phase_length	trialInPhase_no	phase_type_order	color_left	color_right	color1	color2	position1	position2	prob1	prob2	mag1	mag2	ev1	ev2	outcome1	outcome2	prob_left	prob_right	mag_left	mag_right	ev_left	ev_right	reward_validity	resp_time	resp_key	timeout	choice_side	choice	ev_corr_resp	ev_correct	prob_corr_resp	prob_correct	mag_corr_resp	mag_correct	high_prob	high_prob_side	high_prob_color	low_prob_color	no_brain	reward	name	version	proj_id	logFileID
0	1	1	1	1	volatile	1	20	1	vs	red	blue	red	blue	left	right	0.7	0.30000000000000004	6	6	4.199999999999998	1.8000000000000005	1	0	0.7	0.30000000000000004	6	6	4.199999999999998	1.8000000000000005	valid	0.4332420060000004	53248.0	0	1.0	2.0	51200	0	51200	0	53248	1	0.7	51200	red	blue	1	0	ml	2.7.2	bip	sub-01_ses-01_task-ml_proj-bip_2020-09-25-11-15-38.219970
1	1	1	1	2	volatile	1	20	2	vs	red	blue	red	blue	left	right	0.7	0.30000000000000004	6	4	4.199999999999998	1.2000000000000002	1	0	0.7	0.30000000000000004	6	4	4.199999999999998	1.2000000000000002	valid	0.3665827800014085	51200.0	0	0.0	1.0	51200	1	51200	1	51200	1	0.7	51200	red	blue	1	6	ml	2.7.2	bip	sub-01_ses-01_task-ml_proj-bip_2020-09-25-11-15-38.219970
2	1	1	1	3	volatile	1	20	3	vs	blue	red	red	blue	right	left	0.7	0.30000000000000004	2	4	1.4	1.2000000000000002	1	0	0.30000000000000004	0.7	4	2	1.2000000000000002	1.4	valid	0.3332718889996613	53248.0	0	1.0	1.0	53248	1	53248	1	51200	0	0.7	53248	red	blue	0	2	ml	2.7.2	bip	sub-01_ses-01_task-ml_proj-bip_2020-09-25-11-15-38.219970
3	1	1	1	4	volatile	1	20	4	vs	red	blue	red	blue	left	right	0.7	0.30000000000000004	6	2	4.199999999999998	0.6000000000000001	1	0	0.7	0.30000000000000004	6	2	4.199999999999998	0.6000000000000001	valid	0.34992237900041806	51200.0	0	0.0	1.0	51200	1	51200	1	51200	1	0.7	51200	red	blue	1	6	ml	2.7.2	bip	sub-01_ses-01_task-ml_proj-bip_2020-09-25-11-15-38.219970
4	1	1	1	5	volatile	1	20	5	vs	red	blue	red	blue	left	right	0.7	0.30000000000000004	10	2	7.0	0.6000000000000001	0	1	0.7	0.30000000000000004	10	2	7.0	0.6000000000000001	invalid	0.4498921419999533	51200.0	0	0.0	1.0	51200	1	51200	1	51200	1	0.7	51200	red	blue	1	0	ml	2.7.2	bip	sub-01_ses-01_task-ml_proj-bip_2020-09-25-11-15-38.219970
5	1	1	1	6	volatile	1	20	6	vs	red	blue	red	blue	left	right	0.7	0.30000000000000004	2	6	1.4	1.8000000000000005	1	0	0.7	0.30000000000000004	2	6	1.4	1.8000000000000005	valid	0.4332320220000838	51200.0	0	0.0	1.0	53248	0	51200	1	53248	0	0.7	51200	red	blue	0	2	ml	2.7.2	bip	sub-01_ses-01_task-ml_proj-bip_2020-09-25-11-15-38.219970
6	1	1	1	7	volatile	1	20	7	vs	blue	red	red	blue	right	left	0.7	0.30000000000000004	4	2	2.8	0.6000000000000001	0	1	0.30000000000000004	0.7	2	4	0.6000000000000001	2.8	invalid	1.0163850199987792	51200.0	0	0.0	2.0	53248	0	53248	0	53248	0	0.7	53248	red	blue	1	2	ml	2.7.2	bip	sub-01_ses-01_task-ml_proj-bip_2020-09-25-11-15-38.219970
7	1	1	1	8	volatile	1	20	8	vs	blue	red	red	blue	right	left	0.7	0.30000000000000004	10	2	7.0	0.6000000000000001	1	0	0.30000000000000004	0.7	2	10	0.6000000000000001	7.0	valid	0.9664253589999134	53248.0	0	1.0	1.0	53248	1	53248	1	53248	1	0.7	53248	red	blue	1	10	ml	2.7.2	bip	sub-01_ses-01_task-ml_proj-bip_2020-09-25-11-15-38.219970
8	1	1	1	9	volatile	1	20	9	vs	blue	red	red	blue	right	left	0.7	0.30000000000000004	2	10	1.4	3.0000000000000004	1	0	0.30000000000000004	0.7	10	2	3.0000000000000004	1.4	valid	0.6165182770000683	53248.0	0	1.0	1.0	51200	0	53248	1	51200	0	0.7	53248	red	blue	0	2	ml	2.7.2	bip	sub-01_ses-01_task-ml_proj-bip_2020-09-25-11-15-38.219970
9	1	1	1	10	volatile	1	20	10	vs	blue	red	red	blue	right	left	0.7	0.30000000000000004	4	2	2.8	0.6000000000000001	0	1	0.30000000000000004	0.7	2	4	0.6000000000000001	2.8	invalid	0.8331194029997278	53248.0	0	1.0	1.0	53248	1	53248	1	53248	1	0.7	53248	red	blue	1	0	ml	2.7.2	bip	sub-01_ses-01_task-ml_proj-bip_2020-09-25-11-15-38.219970
10	1	1	1	11	volatile	1	20	11	vs	blue	red	red	blue	right	left	0.7	0.30000000000000004	6	6	4.199999999999998	1.8000000000000005	1	0	0.30000000000000004	0.7	6	6	1.8000000000000005	4.199999999999998	valid	0.6998108629995841	51200.0	0	0.0	2.0	53248	0	53248	0	53248	0	0.7	53248	red	blue	0	0	ml	2.7.2	bip	sub-01_ses-01_task-ml_proj-bip_2020-09-25-11-15-38.219970
11	1	1	1	12	volatile	1	20	12	vs	red	blue	red	blue	left	right	0.7	0.30000000000000004	2	2	1.4	0.6000000000000001	0	1	0.7	0.30000000000000004	2	2	1.4	0.6000000000000001	invalid	0.3832541219999257	53248.0	0	1.0	2.0	51200	0	51200	0	53248	1	0.7	51200	red	blue	1	2	ml	2.7.2	bip	sub-01_ses-01_task-ml_proj-bip_2020-09-25-11-15-38.219970
12	1	1	1	13	volatile	1	20	13	vs	red	blue	red	blue	left	right	0.7	0.30000000000000004	4	6	2.8	1.8000000000000005	1	0	0.7	0.30000000000000004	4	6	2.8	1.8000000000000005	valid	0.41658002599979227	53248.0	0	1.0	2.0	51200	0	51200	0	53248	1	0.7	51200	red	blue	0	0	ml	2.7.2	bip	sub-01_ses-01_task-ml_proj-bip_2020-09-25-11-15-38.219970
13	1	1	1	14	volatile	1	20	14	vs	red	blue	red	blue	left	right	0.7	0.30000000000000004	2	2	1.4	0.6000000000000001	1	0	0.7	0.30000000000000004	2	2	1.4	0.6000000000000001	valid	0.4165704740007641	51200.0	0	0.0	1.0	51200	1	51200	1	53248	0	0.7	51200	red	blue	1	2	ml	2.7.2	bip	sub-01_ses-01_task-ml_proj-bip_2020-09-25-11-15-38.219970
14	1	1	1	15	volatile	1	20	15	vs	red	blue	red	blue	left	right	0.7	0.30000000000000004	2	6	1.4	1.8000000000000005	1	0	0.7	0.30000000000000004	2	6	1.4	1.8000000000000005	valid	0.8497710560004634	51200.0	0	0.0	1.0	53248	0	51200	1	53248	0	0.7	51200	red	blue	0	2	ml	2.7.2	bip	sub-01_ses-01_task-ml_proj-bip_2020-09-25-11-15-38.219970
15	1	1	1	16	volatile	1	20	16	vs	red	blue	red	blue	left	right	0.7	0.30000000000000004	6	4	4.199999999999998	1.2000000000000002	0	1	0.7	0.30000000000000004	6	4	4.199999999999998	1.2000000000000002	invalid	0.499876852001762	51200.0	0	0.0	1.0	51200	1	51200	1	51200	1	0.7	51200	red	blue	1	0	ml	2.7.2	bip	sub-01_ses-01_task-ml_proj-bip_2020-09-25-11-15-38.219970
16	1	1	1	17	volatile	1	20	17	vs	blue	red	red	blue	right	left	0.7	0.30000000000000004	2	4	1.4	1.2000000000000002	0	1	0.30000000000000004	0.7	4	2	1.2000000000000002	1.4	invalid	0.3999205130003247	53248.0	0	1.0	1.0	53248	1	53248	1	51200	0	0.7	53248	red	blue	0	0	ml	2.7.2	bip	sub-01_ses-01_task-ml_proj-bip_2020-09-25-11-15-38.219970
17	1	1	1	18	volatile	1	20	18	vs	blue	red	red	blue	right	left	0.7	0.30000000000000004	2	6	1.4	1.8000000000000005	1	0	0.30000000000000004	0.7	6	2	1.8000000000000005	1.4	valid	0.3832436600005167	51200.0	0	0.0	2.0	51200	1	53248	0	51200	1	0.7	53248	red	blue	0	0	ml	2.7.2	bip	sub-01_ses-01_task-ml_proj-bip_2020-09-25-11-15-38.219970
18	1	1	1	19	volatile	1	20	19	vs	blue	red	red	blue	right	left	0.7	0.30000000000000004	6	4	4.199999999999998	1.2000000000000002	1	0	0.30000000000000004	0.7	4	6	1.2000000000000002	4.199999999999998	valid	0.8164580810007465	53248.0	0	1.0	1.0	53248	1	53248	1	53248	1	0.7	53248	red	blue	1	6	ml	2.7.2	bip	sub-01_ses-01_task-ml_proj-bip_2020-09-25-11-15-38.219970
19	1	1	1	20	volatile	1	20	20	vs	blue	red	red	blue	right	left	0.7	0.30000000000000004	10	2	7.0	0.6000000000000001	1	0	0.30000000000000004	0.7	2	10	0.6000000000000001	7.0	valid	0.3832567929985089	53248.0	0	1.0	1.0	53248	1	53248	1	53248	1	0.7	53248	red	blue	1	10	ml	2.7.2	bip	sub-01_ses-01_task-ml_proj-bip_2020-09-25-11-15-38.219970
20	1	1	1	21	volatile	2	40	1	vs	red	blue	red	blue	left	right	0.30000000000000004	0.7	6	6	1.8000000000000005	4.199999999999998	0	1	0.30000000000000004	0.7	6	6	1.8000000000000005	4.199999999999998	valid	0.5498605979992135	51200.0	0	0.0	1.0	53248	0	53248	0	53248	0	0.7	53248	blue	red	0	0	ml	2.7.2	bip	sub-01_ses-01_task-ml_proj-bip_2020-09-25-11-15-38.219970
21	1	1	1	22	volatile	2	40	2	vs	red	blue	red	blue	left	right	0.30000000000000004	0.7	10	2	3.0000000000000004	1.4	0	1	0.30000000000000004	0.7	10	2	3.0000000000000004	1.4	valid	0.4165675589993043	51200.0	0	0.0	1.0	51200	1	53248	0	51200	1	0.7	53248	blue	red	0	0	ml	2.7.2	bip	sub-01_ses-01_task-ml_proj-bip_2020-09-25-11-15-38.219970
22	1	1	1	23	volatile	2	40	3	vs	blue	red	red	blue	right	left	0.30000000000000004	0.7	4	2	1.2000000000000002	1.4	1	0	0.7	0.30000000000000004	2	4	1.4	1.2000000000000002	invalid	0.36658597300083773	51200.0	0	0.0	2.0	51200	1	51200	1	53248	0	0.7	51200	blue	red	0	0	ml	2.7.2	bip	sub-01_ses-01_task-ml_proj-bip_2020-09-25-11-15-38.219970
23	1	1	1	24	volatile	2	40	4	vs	blue	red	red	blue	right	left	0.30000000000000004	0.7	6	2	1.8000000000000005	1.4	0	1	0.7	0.30000000000000004	2	6	1.4	1.8000000000000005	valid	0.6831587259985099	53248.0	0	1.0	1.0	53248	1	51200	0	53248	1	0.7	51200	blue	red	0	0	ml	2.7.2	bip	sub-01_ses-01_task-ml_proj-bip_2020-09-25-11-15-38.219970
24	1	1	1	25	volatile	2	40	5	vs	blue	red	red	blue	right	left	0.30000000000000004	0.7	6	4	1.8000000000000005	2.8	1	0	0.7	0.30000000000000004	4	6	2.8	1.8000000000000005	invalid	0.3832450930003688	51200.0	0	0.0	2.0	51200	1	51200	1	53248	0	0.7	51200	blue	red	0	0	ml	2.7.2	bip	sub-01_ses-01_task-ml_proj-bip_2020-09-25-11-15-38.219970
25	1	1	1	26	volatile	2	40	6	vs	red	blue	red	blue	left	right	0.30000000000000004	0.7	6	2	1.8000000000000005	1.4	0	1	0.30000000000000004	0.7	6	2	1.8000000000000005	1.4	valid	0.38325446599992574	53248.0	0	1.0	2.0	51200	0	53248	1	51200	0	0.7	53248	blue	red	0	2	ml	2.7.2	bip	sub-01_ses-01_task-ml_proj-bip_2020-09-25-11-15-38.219970
26	1	1	1	27	volatile	2	40	7	vs	red	blue	red	blue	left	right	0.30000000000000004	0.7	4	2	1.2000000000000002	1.4	1	0	0.30000000000000004	0.7	4	2	1.2000000000000002	1.4	invalid	0.34992634799891675	53248.0	0	1.0	2.0	53248	1	53248	1	51200	0	0.7	53248	blue	red	0	0	ml	2.7.2	bip	sub-01_ses-01_task-ml_proj-bip_2020-09-25-11-15-38.219970
27	1	1	1	28	volatile	2	40	8	vs	red	blue	red	blue	left	right	0.30000000000000004	0.7	6	6	1.8000000000000005	4.199999999999998	1	0	0.30000000000000004	0.7	6	6	1.8000000000000005	4.199999999999998	invalid	0.36658278799950494	51200.0	0	0.0	1.0	53248	0	53248	0	53248	0	0.7	53248	blue	red	0	6	ml	2.7.2	bip	sub-01_ses-01_task-ml_proj-bip_2020-09-25-11-15-38.219970
28	1	1	1	29	volatile	2	40	9	vs	blue	red	red	blue	right	left	0.30000000000000004	0.7	2	2	0.6000000000000001	1.4	0	1	0.7	0.30000000000000004	2	2	1.4	0.6000000000000001	valid	0.3999184490003245	53248.0	0	1.0	1.0	51200	0	51200	0	53248	1	0.7	51200	blue	red	1	0	ml	2.7.2	bip	sub-01_ses-01_task-ml_proj-bip_2020-09-25-11-15-38.219970
29	1	1	1	30	volatile	2	40	10	vs	blue	red	red	blue	right	left	0.30000000000000004	0.7	6	6	1.8000000000000005	4.199999999999998	0	1	0.7	0.30000000000000004	6	6	4.199999999999998	1.8000000000000005	valid	0.4832325639999908	53248.0	0	1.0	1.0	51200	0	51200	0	53248	1	0.7	51200	blue	red	1	0	ml	2.7.2	bip	sub-01_ses-01_task-ml_proj-bip_2020-09-25-11-15-38.219970
30	1	1	1	31	volatile	2	40	11	vs	blue	red	red	blue	right	left	0.30000000000000004	0.7	4	2	1.2000000000000002	1.4	0	1	0.7	0.30000000000000004	2	4	1.4	1.2000000000000002	valid	0.3665837749995262	51200.0	0	0.0	2.0	51200	1	51200	1	53248	0	0.7	51200	blue	red	0	2	ml	2.7.2	bip	sub-01_ses-01_task-ml_proj-bip_2020-09-25-11-15-38.219970
31	1	1	1	32	volatile	2	40	12	vs	red	blue	red	blue	left	right	0.30000000000000004	0.7	6	4	1.8000000000000005	2.8	1	0	0.30000000000000004	0.7	6	4	1.8000000000000005	2.8	invalid	0.3499368920001871	53248.0	0	1.0	2.0	53248	1	53248	1	51200	0	0.7	53248	blue	red	0	0	ml	2.7.2	bip	sub-01_ses-01_task-ml_proj-bip_2020-09-25-11-15-38.219970
32	1	1	1	33	volatile	2	40	13	vs	blue	red	red	blue	right	left	0.30000000000000004	0.7	4	6	1.2000000000000002	4.199999999999998	0	1	0.7	0.30000000000000004	6	4	4.199999999999998	1.2000000000000002	valid	0.3999053910010844	51200.0	0	0.0	2.0	51200	1	51200	1	51200	1	0.7	51200	blue	red	1	6	ml	2.7.2	bip	sub-01_ses-01_task-ml_proj-bip_2020-09-25-11-15-38.219970
33	1	1	1	34	volatile	2	40	14	vs	blue	red	red	blue	right	left	0.30000000000000004	0.7	10	2	3.0000000000000004	1.4	0	1	0.7	0.30000000000000004	2	10	1.4	3.0000000000000004	valid	0.3999072079986945	51200.0	0	0.0	2.0	53248	0	51200	1	53248	0	0.7	51200	blue	red	0	2	ml	2.7.2	bip	sub-01_ses-01_task-ml_proj-bip_2020-09-25-11-15-38.219970
34	1	1	1	35	volatile	2	40	15	vs	red	blue	red	blue	left	right	0.30000000000000004	0.7	10	2	3.0000000000000004	1.4	0	1	0.30000000000000004	0.7	10	2	3.0000000000000004	1.4	valid	0.7164983980001125	53248.0	0	1.0	2.0	51200	0	53248	1	51200	0	0.7	53248	blue	red	0	2	ml	2.7.2	bip	sub-01_ses-01_task-ml_proj-bip_2020-09-25-11-15-38.219970
35	1	1	1	36	volatile	2	40	16	vs	red	blue	red	blue	left	right	0.30000000000000004	0.7	2	10	0.6000000000000001	7.0	0	1	0.30000000000000004	0.7	2	10	0.6000000000000001	7.0	valid	0.3999166959983995	53248.0	0	1.0	2.0	53248	1	53248	1	53248	1	0.7	53248	blue	red	1	10	ml	2.7.2	bip	sub-01_ses-01_task-ml_proj-bip_2020-09-25-11-15-38.219970
36	1	1	1	37	volatile	2	40	17	vs	red	blue	red	blue	left	right	0.30000000000000004	0.7	2	10	0.6000000000000001	7.0	0	1	0.30000000000000004	0.7	2	10	0.6000000000000001	7.0	valid	0.5332110889994509	53248.0	0	1.0	2.0	53248	1	53248	1	53248	1	0.7	53248	blue	red	1	10	ml	2.7.2	bip	sub-01_ses-01_task-ml_proj-bip_2020-09-25-11-15-38.219970
37	1	1	1	38	volatile	2	40	18	vs	blue	red	red	blue	right	left	0.30000000000000004	0.7	2	4	0.6000000000000001	2.8	0	1	0.7	0.30000000000000004	4	2	2.8	0.6000000000000001	valid	0.4998763859985047	51200.0	0	0.0	2.0	51200	1	51200	1	51200	1	0.7	51200	blue	red	1	4	ml	2.7.2	bip	sub-01_ses-01_task-ml_proj-bip_2020-09-25-11-15-38.219970
38	1	1	1	39	volatile	2	40	19	vs	blue	red	red	blue	right	left	0.30000000000000004	0.7	6	2	1.8000000000000005	1.4	0	1	0.7	0.30000000000000004	2	6	1.4	1.8000000000000005	valid	0.4998790800000279	51200.0	0	0.0	2.0	53248	0	51200	1	53248	0	0.7	51200	blue	red	0	2	ml	2.7.2	bip	sub-01_ses-01_task-ml_proj-bip_2020-09-25-11-15-38.219970
39	1	1	1	40	volatile	2	40	20	vs	red	blue	red	blue	left	right	0.30000000000000004	0.7	6	4	1.8000000000000005	2.8	0	1	0.30000000000000004	0.7	6	4	1.8000000000000005	2.8	valid	0.766478827001265	53248.0	0	1.0	2.0	53248	1	53248	1	51200	0	0.7	53248	blue	red	0	4	ml	2.7.2	bip	sub-01_ses-01_task-ml_proj-bip_2020-09-25-11-15-38.219970
40	1	1	1	41	volatile	2	40	21	vs	red	blue	red	blue	left	right	0.30000000000000004	0.7	6	4	1.8000000000000005	2.8	0	1	0.30000000000000004	0.7	6	4	1.8000000000000005	2.8	valid	0.3832567629997357	53248.0	0	1.0	2.0	53248	1	53248	1	51200	0	0.7	53248	blue	red	0	4	ml	2.7.2	bip	sub-01_ses-01_task-ml_proj-bip_2020-09-25-11-15-38.219970
41	1	1	1	42	volatile	2	40	22	vs	blue	red	red	blue	right	left	0.30000000000000004	0.7	6	2	1.8000000000000005	1.4	0	1	0.7	0.30000000000000004	2	6	1.4	1.8000000000000005	valid	0.3832510319989524	51200.0	0	0.0	2.0	53248	0	51200	1	53248	0	0.7	51200	blue	red	0	2	ml	2.7.2	bip	sub-01_ses-01_task-ml_proj-bip_2020-09-25-11-15-38.219970
42	1	1	1	43	volatile	2	40	23	vs	red	blue	red	blue	left	right	0.30000000000000004	0.7	6	2	1.8000000000000005	1.4	0	1	0.30000000000000004	0.7	6	2	1.8000000000000005	1.4	valid	0.3832537729995238	53248.0	0	1.0	2.0	51200	0	53248	1	51200	0	0.7	53248	blue	red	0	2	ml	2.7.2	bip	sub-01_ses-01_task-ml_proj-bip_2020-09-25-11-15-38.219970
43	1	1	1	44	volatile	2	40	24	vs	red	blue	red	blue	left	right	0.30000000000000004	0.7	4	6	1.2000000000000002	4.199999999999998	0	1	0.30000000000000004	0.7	4	6	1.2000000000000002	4.199999999999998	valid	0.3332712379997247	53248.0	0	1.0	2.0	53248	1	53248	1	53248	1	0.7	53248	blue	red	1	6	ml	2.7.2	bip	sub-01_ses-01_task-ml_proj-bip_2020-09-25-11-15-38.219970
44	1	1	1	45	volatile	2	40	25	vs	blue	red	red	blue	right	left	0.30000000000000004	0.7	4	2	1.2000000000000002	1.4	1	0	0.7	0.30000000000000004	2	4	1.4	1.2000000000000002	invalid	0.4998779609995836	51200.0	0	0.0	2.0	51200	1	51200	1	53248	0	0.7	51200	blue	red	0	0	ml	2.7.2	bip	sub-01_ses-01_task-ml_proj-bip_2020-09-25-11-15-38.219970
45	1	1	1	46	volatile	2	40	26	vs	red	blue	red	blue	left	right	0.30000000000000004	0.7	10	2	3.0000000000000004	1.4	0	1	0.30000000000000004	0.7	10	2	3.0000000000000004	1.4	valid	0.3665933390002465	53248.0	0	1.0	2.0	51200	0	53248	1	51200	0	0.7	53248	blue	red	0	2	ml	2.7.2	bip	sub-01_ses-01_task-ml_proj-bip_2020-09-25-11-15-38.219970
46	1	1	1	47	volatile	2	40	27	vs	blue	red	red	blue	right	left	0.30000000000000004	0.7	6	2	1.8000000000000005	1.4	0	1	0.7	0.30000000000000004	2	6	1.4	1.8000000000000005	valid	0.3665864769991458	51200.0	0	0.0	2.0	53248	0	51200	1	53248	0	0.7	51200	blue	red	0	2	ml	2.7.2	bip	sub-01_ses-01_task-ml_proj-bip_2020-09-25-11-15-38.219970
47	1	1	1	48	volatile	2	40	28	vs	blue	red	red	blue	right	left	0.30000000000000004	0.7	2	10	0.6000000000000001	7.0	0	1	0.7	0.30000000000000004	10	2	7.0	0.6000000000000001	valid	0.3999091900004714	51200.0	0	0.0	2.0	51200	1	51200	1	51200	1	0.7	51200	blue	red	1	10	ml	2.7.2	bip	sub-01_ses-01_task-ml_proj-bip_2020-09-25-11-15-38.219970
48	1	1	1	49	volatile	2	40	29	vs	blue	red	red	blue	right	left	0.30000000000000004	0.7	6	4	1.8000000000000005	2.8	0	1	0.7	0.30000000000000004	4	6	2.8	1.8000000000000005	valid	0.5998517140014883	51200.0	0	0.0	2.0	51200	1	51200	1	53248	0	0.7	51200	blue	red	0	4	ml	2.7.2	bip	sub-01_ses-01_task-ml_proj-bip_2020-09-25-11-15-38.219970
49	1	1	1	50	volatile	2	40	30	vs	blue	red	red	blue	right	left	0.30000000000000004	0.7	2	2	0.6000000000000001	1.4	0	1	0.7	0.30000000000000004	2	2	1.4	0.6000000000000001	valid	0.5831832900003064	51200.0	0	0.0	2.0	51200	1	51200	1	53248	0	0.7	51200	blue	red	1	2	ml	2.7.2	bip	sub-01_ses-01_task-ml_proj-bip_2020-09-25-11-15-38.219970
50	1	1	2	51	volatile	2	40	31	vs	red	blue	red	blue	left	right	0.30000000000000004	0.7	4	6	1.2000000000000002	4.199999999999998	0	1	0.30000000000000004	0.7	4	6	1.2000000000000002	4.199999999999998	valid	0.5499015380009951	53248.0	0	1.0	2.0	53248	1	53248	1	53248	1	0.7	53248	blue	red	1	6	ml	2.7.2	bip	sub-01_ses-01_task-ml_proj-bip_2020-09-25-11-15-38.219970
51	1	1	2	52	volatile	2	40	32	vs	blue	red	red	blue	right	left	0.30000000000000004	0.7	4	2	1.2000000000000002	1.4	1	0	0.7	0.30000000000000004	2	4	1.4	1.2000000000000002	invalid	0.3832496560007712	51200.0	0	0.0	2.0	51200	1	51200	1	53248	0	0.7	51200	blue	red	0	0	ml	2.7.2	bip	sub-01_ses-01_task-ml_proj-bip_2020-09-25-11-15-38.219970
52	1	1	2	53	volatile	2	40	33	vs	red	blue	red	blue	left	right	0.30000000000000004	0.7	2	10	0.6000000000000001	7.0	1	0	0.30000000000000004	0.7	2	10	0.6000000000000001	7.0	invalid	0.3665764659999695	53248.0	0	1.0	2.0	53248	1	53248	1	53248	1	0.7	53248	blue	red	1	0	ml	2.7.2	bip	sub-01_ses-01_task-ml_proj-bip_2020-09-25-11-15-38.219970
53	1	1	2	54	volatile	2	40	34	vs	blue	red	red	blue	right	left	0.30000000000000004	0.7	2	2	0.6000000000000001	1.4	0	1	0.7	0.30000000000000004	2	2	1.4	0.6000000000000001	valid	0.4332361039996613	53248.0	0	1.0	1.0	51200	0	51200	0	53248	1	0.7	51200	blue	red	1	0	ml	2.7.2	bip	sub-01_ses-01_task-ml_proj-bip_2020-09-25-11-15-38.219970
54	1	1	2	55	volatile	2	40	35	vs	blue	red	red	blue	right	left	0.30000000000000004	0.7	2	6	0.6000000000000001	4.199999999999998	1	0	0.7	0.30000000000000004	6	2	4.199999999999998	0.6000000000000001	invalid	0.483217124001385	51200.0	0	0.0	2.0	51200	1	51200	1	51200	1	0.7	51200	blue	red	1	0	ml	2.7.2	bip	sub-01_ses-01_task-ml_proj-bip_2020-09-25-11-15-38.219970
55	1	1	2	56	volatile	2	40	36	vs	red	blue	red	blue	left	right	0.30000000000000004	0.7	6	6	1.8000000000000005	4.199999999999998	1	0	0.30000000000000004	0.7	6	6	1.8000000000000005	4.199999999999998	invalid	0.4332293509996816	51200.0	0	0.0	1.0	53248	0	53248	0	53248	0	0.7	53248	blue	red	0	6	ml	2.7.2	bip	sub-01_ses-01_task-ml_proj-bip_2020-09-25-11-15-38.219970
56	1	1	2	57	volatile	2	40	37	vs	red	blue	red	blue	left	right	0.30000000000000004	0.7	6	2	1.8000000000000005	1.4	0	1	0.30000000000000004	0.7	6	2	1.8000000000000005	1.4	valid	0.3832438819990784	51200.0	0	0.0	1.0	51200	1	53248	0	51200	1	0.7	53248	blue	red	0	0	ml	2.7.2	bip	sub-01_ses-01_task-ml_proj-bip_2020-09-25-11-15-38.219970
57	1	1	2	58	volatile	2	40	38	vs	blue	red	red	blue	right	left	0.30000000000000004	0.7	2	4	0.6000000000000001	2.8	1	0	0.7	0.30000000000000004	4	2	2.8	0.6000000000000001	invalid	0.3499315650005883	53248.0	0	1.0	1.0	51200	0	51200	0	51200	0	0.7	51200	blue	red	1	2	ml	2.7.2	bip	sub-01_ses-01_task-ml_proj-bip_2020-09-25-11-15-38.219970
58	1	1	2	59	volatile	2	40	39	vs	red	blue	red	blue	left	right	0.30000000000000004	0.7	4	2	1.2000000000000002	1.4	0	1	0.30000000000000004	0.7	4	2	1.2000000000000002	1.4	valid	0.3999042699997517	51200.0	0	0.0	1.0	53248	0	53248	0	51200	1	0.7	53248	blue	red	0	0	ml	2.7.2	bip	sub-01_ses-01_task-ml_proj-bip_2020-09-25-11-15-38.219970
59	1	1	2	60	volatile	2	40	40	vs	red	blue	red	blue	left	right	0.30000000000000004	0.7	2	2	0.6000000000000001	1.4	1	0	0.30000000000000004	0.7	2	2	0.6000000000000001	1.4	invalid	0.9330887380001514	53248.0	0	1.0	2.0	53248	1	53248	1	53248	1	0.7	53248	blue	red	0	0	ml	2.7.2	bip	sub-01_ses-01_task-ml_proj-bip_2020-09-25-11-15-38.219970
60	1	1	2	61	volatile	3	20	1	vs	blue	red	red	blue	right	left	0.7	0.30000000000000004	6	4	4.199999999999998	1.2000000000000002	1	0	0.30000000000000004	0.7	4	6	1.2000000000000002	4.199999999999998	valid	0.5831928640000115	53248.0	0	1.0	1.0	53248	1	53248	1	53248	1	0.7	53248	red	blue	1	6	ml	2.7.2	bip	sub-01_ses-01_task-ml_proj-bip_2020-09-25-11-15-38.219970
61	1	1	2	62	volatile	3	20	2	vs	red	blue	red	blue	left	right	0.7	0.30000000000000004	6	4	4.199999999999998	1.2000000000000002	1	0	0.7	0.30000000000000004	6	4	4.199999999999998	1.2000000000000002	valid	0.7164877230006823	53248.0	0	1.0	2.0	51200	0	51200	0	51200	0	0.7	51200	red	blue	1	0	ml	2.7.2	bip	sub-01_ses-01_task-ml_proj-bip_2020-09-25-11-15-38.219970
62	1	1	2	63	volatile	3	20	3	vs	red	blue	red	blue	left	right	0.7	0.30000000000000004	4	2	2.8	0.6000000000000001	0	1	0.7	0.30000000000000004	4	2	2.8	0.6000000000000001	invalid	0.38325247499960813	51200.0	0	0.0	1.0	51200	1	51200	1	51200	1	0.7	51200	red	blue	1	0	ml	2.7.2	bip	sub-01_ses-01_task-ml_proj-bip_2020-09-25-11-15-38.219970
63	1	1	2	64	volatile	3	20	4	vs	blue	red	red	blue	right	left	0.7	0.30000000000000004	10	2	7.0	0.6000000000000001	0	1	0.30000000000000004	0.7	2	10	0.6000000000000001	7.0	invalid	0.7331573370011029	53248.0	0	1.0	1.0	53248	1	53248	1	53248	1	0.7	53248	red	blue	1	0	ml	2.7.2	bip	sub-01_ses-01_task-ml_proj-bip_2020-09-25-11-15-38.219970
64	1	1	2	65	volatile	3	20	5	vs	blue	red	red	blue	right	left	0.7	0.30000000000000004	4	6	2.8	1.8000000000000005	1	0	0.30000000000000004	0.7	6	4	1.8000000000000005	2.8	valid	0.3665817100009008	51200.0	0	0.0	2.0	53248	0	53248	0	51200	1	0.7	53248	red	blue	0	0	ml	2.7.2	bip	sub-01_ses-01_task-ml_proj-bip_2020-09-25-11-15-38.219970
65	1	1	2	66	volatile	3	20	6	vs	red	blue	red	blue	left	right	0.7	0.30000000000000004	4	2	2.8	0.6000000000000001	1	0	0.7	0.30000000000000004	4	2	2.8	0.6000000000000001	valid	0.3665905810012191	53248.0	0	1.0	2.0	51200	0	51200	0	51200	0	0.7	51200	red	blue	1	0	ml	2.7.2	bip	sub-01_ses-01_task-ml_proj-bip_2020-09-25-11-15-38.219970
66	1	1	2	67	volatile	3	20	7	vs	blue	red	red	blue	right	left	0.7	0.30000000000000004	4	2	2.8	0.6000000000000001	1	0	0.30000000000000004	0.7	2	4	0.6000000000000001	2.8	valid	0.3666022459983651	53248.0	0	1.0	1.0	53248	1	53248	1	53248	1	0.7	53248	red	blue	1	4	ml	2.7.2	bip	sub-01_ses-01_task-ml_proj-bip_2020-09-25-11-15-38.219970
67	1	1	2	68	volatile	3	20	8	vs	red	blue	red	blue	left	right	0.7	0.30000000000000004	2	4	1.4	1.2000000000000002	1	0	0.7	0.30000000000000004	2	4	1.4	1.2000000000000002	valid	0.4665538230001402	51200.0	0	0.0	1.0	51200	1	51200	1	53248	0	0.7	51200	red	blue	0	2	ml	2.7.2	bip	sub-01_ses-01_task-ml_proj-bip_2020-09-25-11-15-38.219970
68	1	1	2	69	volatile	3	20	9	vs	red	blue	red	blue	left	right	0.7	0.30000000000000004	6	2	4.199999999999998	0.6000000000000001	1	0	0.7	0.30000000000000004	6	2	4.199999999999998	0.6000000000000001	valid	0.5165341239990084	51200.0	0	0.0	1.0	51200	1	51200	1	51200	1	0.7	51200	red	blue	1	6	ml	2.7.2	bip	sub-01_ses-01_task-ml_proj-bip_2020-09-25-11-15-38.219970
69	1	1	2	70	volatile	3	20	10	vs	red	blue	red	blue	left	right	0.7	0.30000000000000004	6	6	4.199999999999998	1.8000000000000005	1	0	0.7	0.30000000000000004	6	6	4.199999999999998	1.8000000000000005	valid	0.3999073340000905	51200.0	0	0.0	1.0	51200	1	51200	1	53248	0	0.7	51200	red	blue	1	6	ml	2.7.2	bip	sub-01_ses-01_task-ml_proj-bip_2020-09-25-11-15-38.219970
70	1	1	2	71	volatile	3	20	11	vs	blue	red	red	blue	right	left	0.7	0.30000000000000004	2	10	1.4	3.0000000000000004	1	0	0.30000000000000004	0.7	10	2	3.0000000000000004	1.4	valid	0.8997724460004974	53248.0	0	1.0	1.0	51200	0	53248	1	51200	0	0.7	53248	red	blue	0	2	ml	2.7.2	bip	sub-01_ses-01_task-ml_proj-bip_2020-09-25-11-15-38.219970
71	1	1	2	72	volatile	3	20	12	vs	blue	red	red	blue	right	left	0.7	0.30000000000000004	2	6	1.4	1.8000000000000005	1	0	0.30000000000000004	0.7	6	2	1.8000000000000005	1.4	valid	0.5665369359994656	53248.0	0	1.0	1.0	51200	0	53248	1	51200	0	0.7	53248	red	blue	0	2	ml	2.7.2	bip	sub-01_ses-01_task-ml_proj-bip_2020-09-25-11-15-38.219970
72	1	1	2	73	volatile	3	20	13	vs	blue	red	red	blue	right	left	0.7	0.30000000000000004	2	2	1.4	0.6000000000000001	0	1	0.30000000000000004	0.7	2	2	0.6000000000000001	1.4	invalid	1.0663924749987927	53248.0	0	1.0	1.0	53248	1	53248	1	53248	1	0.7	53248	red	blue	0	0	ml	2.7.2	bip	sub-01_ses-01_task-ml_proj-bip_2020-09-25-11-15-38.219970
73	1	1	2	74	volatile	3	20	14	vs	red	blue	red	blue	left	right	0.7	0.30000000000000004	4	6	2.8	1.8000000000000005	1	0	0.7	0.30000000000000004	4	6	2.8	1.8000000000000005	valid	0.4665619110000989	51200.0	0	0.0	1.0	51200	1	51200	1	53248	0	0.7	51200	red	blue	0	4	ml	2.7.2	bip	sub-01_ses-01_task-ml_proj-bip_2020-09-25-11-15-38.219970
74	1	1	2	75	volatile	3	20	15	vs	blue	red	red	blue	right	left	0.7	0.30000000000000004	2	10	1.4	3.0000000000000004	0	1	0.30000000000000004	0.7	10	2	3.0000000000000004	1.4	invalid	0.33326974700139544	53248.0	0	1.0	1.0	51200	0	53248	1	51200	0	0.7	53248	red	blue	0	0	ml	2.7.2	bip	sub-01_ses-01_task-ml_proj-bip_2020-09-25-11-15-38.219970
75	1	1	2	76	volatile	3	20	16	vs	red	blue	red	blue	left	right	0.7	0.30000000000000004	2	2	1.4	0.6000000000000001	0	1	0.7	0.30000000000000004	2	2	1.4	0.6000000000000001	invalid	0.3832517939990794	53248.0	0	1.0	2.0	51200	0	51200	0	53248	1	0.7	51200	red	blue	1	2	ml	2.7.2	bip	sub-01_ses-01_task-ml_proj-bip_2020-09-25-11-15-38.219970
76	1	1	2	77	volatile	3	20	17	vs	red	blue	red	blue	left	right	0.7	0.30000000000000004	2	6	1.4	1.8000000000000005	1	0	0.7	0.30000000000000004	2	6	1.4	1.8000000000000005	valid	0.3499325209995732	53248.0	0	1.0	2.0	53248	1	51200	0	53248	1	0.7	51200	red	blue	0	0	ml	2.7.2	bip	sub-01_ses-01_task-ml_proj-bip_2020-09-25-11-15-38.219970
77	1	1	2	78	volatile	3	20	18	vs	blue	red	red	blue	right	left	0.7	0.30000000000000004	10	2	7.0	0.6000000000000001	1	0	0.30000000000000004	0.7	2	10	0.6000000000000001	7.0	valid	0.8664449280004192	53248.0	0	1.0	1.0	53248	1	53248	1	53248	1	0.7	53248	red	blue	1	10	ml	2.7.2	bip	sub-01_ses-01_task-ml_proj-bip_2020-09-25-11-15-38.219970
78	1	1	2	79	volatile	3	20	19	vs	red	blue	red	blue	left	right	0.7	0.30000000000000004	6	6	4.199999999999998	1.8000000000000005	0	1	0.7	0.30000000000000004	6	6	4.199999999999998	1.8000000000000005	invalid	0.4165693740014831	51200.0	0	0.0	1.0	51200	1	51200	1	53248	0	0.7	51200	red	blue	1	0	ml	2.7.2	bip	sub-01_ses-01_task-ml_proj-bip_2020-09-25-11-15-38.219970
79	1	1	2	80	volatile	3	20	20	vs	blue	red	red	blue	right	left	0.7	0.30000000000000004	6	2	4.199999999999998	0.6000000000000001	1	0	0.30000000000000004	0.7	2	6	0.6000000000000001	4.199999999999998	valid	0.8664442249992135	53248.0	0	1.0	1.0	53248	1	53248	1	53248	1	0.7	53248	red	blue	1	6	ml	2.7.2	bip	sub-01_ses-01_task-ml_proj-bip_2020-09-25-11-15-38.219970
80	1	1	2	81	volatile	4	40	1	vs	blue	red	red	blue	right	left	0.30000000000000004	0.7	2	4	0.6000000000000001	2.8	0	1	0.7	0.30000000000000004	4	2	2.8	0.6000000000000001	valid	0.4499076890006109	53248.0	0	1.0	1.0	51200	0	51200	0	51200	0	0.7	51200	blue	red	1	0	ml	2.7.2	bip	sub-01_ses-01_task-ml_proj-bip_2020-09-25-11-15-38.219970
81	1	1	2	82	volatile	4	40	2	vs	blue	red	red	blue	right	left	0.30000000000000004	0.7	4	6	1.2000000000000002	4.199999999999998	0	1	0.7	0.30000000000000004	6	4	4.199999999999998	1.2000000000000002	valid	0.449898918001054	51200.0	0	0.0	2.0	51200	1	51200	1	51200	1	0.7	51200	blue	red	1	6	ml	2.7.2	bip	sub-01_ses-01_task-ml_proj-bip_2020-09-25-11-15-38.219970
82	1	1	2	83	volatile	4	40	3	vs	red	blue	red	blue	left	right	0.30000000000000004	0.7	4	2	1.2000000000000002	1.4	1	0	0.30000000000000004	0.7	4	2	1.2000000000000002	1.4	invalid	0.4332403400003386	53248.0	0	1.0	2.0	53248	1	53248	1	51200	0	0.7	53248	blue	red	0	0	ml	2.7.2	bip	sub-01_ses-01_task-ml_proj-bip_2020-09-25-11-15-38.219970
83	1	1	2	84	volatile	4	40	4	vs	red	blue	red	blue	left	right	0.30000000000000004	0.7	6	4	1.8000000000000005	2.8	1	0	0.30000000000000004	0.7	6	4	1.8000000000000005	2.8	invalid	0.4332357430012053	53248.0	0	1.0	2.0	53248	1	53248	1	51200	0	0.7	53248	blue	red	0	0	ml	2.7.2	bip	sub-01_ses-01_task-ml_proj-bip_2020-09-25-11-15-38.219970
84	1	1	2	85	volatile	4	40	5	vs	blue	red	red	blue	right	left	0.30000000000000004	0.7	6	6	1.8000000000000005	4.199999999999998	0	1	0.7	0.30000000000000004	6	6	4.199999999999998	1.8000000000000005	valid	0.3665944260010292	53248.0	0	1.0	1.0	51200	0	51200	0	53248	1	0.7	51200	blue	red	1	0	ml	2.7.2	bip	sub-01_ses-01_task-ml_proj-bip_2020-09-25-11-15-38.219970
85	1	1	2	86	volatile	4	40	6	vs	blue	red	red	blue	right	left	0.30000000000000004	0.7	2	6	0.6000000000000001	4.199999999999998	0	1	0.7	0.30000000000000004	6	2	4.199999999999998	0.6000000000000001	valid	0.3499312349995307	53248.0	0	1.0	1.0	51200	0	51200	0	51200	0	0.7	51200	blue	red	1	0	ml	2.7.2	bip	sub-01_ses-01_task-ml_proj-bip_2020-09-25-11-15-38.219970
86	1	1	2	87	volatile	4	40	7	vs	blue	red	red	blue	right	left	0.30000000000000004	0.7	6	4	1.8000000000000005	2.8	0	1	0.7	0.30000000000000004	4	6	2.8	1.8000000000000005	valid	0.3499213049999525	51200.0	0	0.0	2.0	51200	1	51200	1	53248	0	0.7	51200	blue	red	0	4	ml	2.7.2	bip	sub-01_ses-01_task-ml_proj-bip_2020-09-25-11-15-38.219970
87	1	1	2	88	volatile	4	40	8	vs	red	blue	red	blue	left	right	0.30000000000000004	0.7	4	2	1.2000000000000002	1.4	0	1	0.30000000000000004	0.7	4	2	1.2000000000000002	1.4	valid	0.3832561839990376	53248.0	0	1.0	2.0	53248	1	53248	1	51200	0	0.7	53248	blue	red	0	2	ml	2.7.2	bip	sub-01_ses-01_task-ml_proj-bip_2020-09-25-11-15-38.219970
88	1	1	2	89	volatile	4	40	9	vs	red	blue	red	blue	left	right	0.30000000000000004	0.7	4	6	1.2000000000000002	4.199999999999998	0	1	0.30000000000000004	0.7	4	6	1.2000000000000002	4.199999999999998	valid	0.3665929479993793	53248.0	0	1.0	2.0	53248	1	53248	1	53248	1	0.7	53248	blue	red	1	6	ml	2.7.2	bip	sub-01_ses-01_task-ml_proj-bip_2020-09-25-11-15-38.219970
89	1	1	2	90	volatile	4	40	10	vs	blue	red	red	blue	right	left	0.30000000000000004	0.7	6	2	1.8000000000000005	1.4	1	0	0.7	0.30000000000000004	2	6	1.4	1.8000000000000005	invalid	0.7498024630003783	51200.0	0	0.0	2.0	53248	0	51200	1	53248	0	0.7	51200	blue	red	0	0	ml	2.7.2	bip	sub-01_ses-01_task-ml_proj-bip_2020-09-25-11-15-38.219970
90	1	1	2	91	volatile	4	40	11	vs	red	blue	red	blue	left	right	0.30000000000000004	0.7	10	2	3.0000000000000004	1.4	1	0	0.30000000000000004	0.7	10	2	3.0000000000000004	1.4	invalid	0.39992360299947904	53248.0	0	1.0	2.0	51200	0	53248	1	51200	0	0.7	53248	blue	red	0	0	ml	2.7.2	bip	sub-01_ses-01_task-ml_proj-bip_2020-09-25-11-15-38.219970
91	1	1	2	92	volatile	4	40	12	vs	blue	red	red	blue	right	left	0.30000000000000004	0.7	2	10	0.6000000000000001	7.0	0	1	0.7	0.30000000000000004	10	2	7.0	0.6000000000000001	valid	0.3499379340009909	53248.0	0	1.0	1.0	51200	0	51200	0	51200	0	0.7	51200	blue	red	1	0	ml	2.7.2	bip	sub-01_ses-01_task-ml_proj-bip_2020-09-25-11-15-38.219970
92	1	1	2	93	volatile	4	40	13	vs	red	blue	red	blue	left	right	0.30000000000000004	0.7	4	6	1.2000000000000002	4.199999999999998	1	0	0.30000000000000004	0.7	4	6	1.2000000000000002	4.199999999999998	invalid	0.39990630300053454	51200.0	0	0.0	1.0	53248	0	53248	0	53248	0	0.7	53248	blue	red	1	4	ml	2.7.2	bip	sub-01_ses-01_task-ml_proj-bip_2020-09-25-11-15-38.219970
93	1	1	2	94	volatile	4	40	14	vs	blue	red	red	blue	right	left	0.30000000000000004	0.7	6	2	1.8000000000000005	1.4	0	1	0.7	0.30000000000000004	2	6	1.4	1.8000000000000005	valid	0.4832337000007101	53248.0	0	1.0	1.0	53248	1	51200	0	53248	1	0.7	51200	blue	red	0	0	ml	2.7.2	bip	sub-01_ses-01_task-ml_proj-bip_2020-09-25-11-15-38.219970
94	1	1	2	95	volatile	4	40	15	vs	blue	red	red	blue	right	left	0.30000000000000004	0.7	2	6	0.6000000000000001	4.199999999999998	0	1	0.7	0.30000000000000004	6	2	4.199999999999998	0.6000000000000001	valid	0.4665519719983422	51200.0	0	0.0	2.0	51200	1	51200	1	51200	1	0.7	51200	blue	red	1	6	ml	2.7.2	bip	sub-01_ses-01_task-ml_proj-bip_2020-09-25-11-15-38.219970
95	1	1	2	96	volatile	4	40	16	vs	red	blue	red	blue	left	right	0.30000000000000004	0.7	2	4	0.6000000000000001	2.8	0	1	0.30000000000000004	0.7	2	4	0.6000000000000001	2.8	valid	0.4665654639993591	53248.0	0	1.0	2.0	53248	1	53248	1	53248	1	0.7	53248	blue	red	1	4	ml	2.7.2	bip	sub-01_ses-01_task-ml_proj-bip_2020-09-25-11-15-38.219970
96	1	1	2	97	volatile	4	40	17	vs	red	blue	red	blue	left	right	0.30000000000000004	0.7	2	10	0.6000000000000001	7.0	0	1	0.30000000000000004	0.7	2	10	0.6000000000000001	7.0	valid	0.43324238099921786	53248.0	0	1.0	2.0	53248	1	53248	1	53248	1	0.7	53248	blue	red	1	10	ml	2.7.2	bip	sub-01_ses-01_task-ml_proj-bip_2020-09-25-11-15-38.219970
97	1	1	2	98	volatile	4	40	18	vs	blue	red	red	blue	right	left	0.30000000000000004	0.7	4	2	1.2000000000000002	1.4	0	1	0.7	0.30000000000000004	2	4	1.4	1.2000000000000002	valid	0.4332284640004218	51200.0	0	0.0	2.0	51200	1	51200	1	53248	0	0.7	51200	blue	red	0	2	ml	2.7.2	bip	sub-01_ses-01_task-ml_proj-bip_2020-09-25-11-15-38.219970
98	1	1	2	99	volatile	4	40	19	vs	red	blue	red	blue	left	right	0.30000000000000004	0.7	6	4	1.8000000000000005	2.8	0	1	0.30000000000000004	0.7	6	4	1.8000000000000005	2.8	valid	0.4332398429996829	53248.0	0	1.0	2.0	53248	1	53248	1	51200	0	0.7	53248	blue	red	0	4	ml	2.7.2	bip	sub-01_ses-01_task-ml_proj-bip_2020-09-25-11-15-38.219970
99	1	1	2	100	volatile	4	40	20	vs	blue	red	red	blue	right	left	0.30000000000000004	0.7	4	2	1.2000000000000002	1.4	0	1	0.7	0.30000000000000004	2	4	1.4	1.2000000000000002	valid	0.599848302999817	51200.0	0	0.0	2.0	51200	1	51200	1	53248	0	0.7	51200	blue	red	0	2	ml	2.7.2	bip	sub-01_ses-01_task-ml_proj-bip_2020-09-25-11-15-38.219970
100	1	1	3	101	volatile	4	40	21	vs	blue	red	red	blue	right	left	0.30000000000000004	0.7	2	6	0.6000000000000001	4.199999999999998	1	0	0.7	0.30000000000000004	6	2	4.199999999999998	0.6000000000000001	invalid	0.4498927479999111	51200.0	0	0.0	2.0	51200	1	51200	1	51200	1	0.7	51200	blue	red	1	0	ml	2.7.2	bip	sub-01_ses-01_task-ml_proj-bip_2020-09-25-11-15-38.219970
101	1	1	3	102	volatile	4	40	22	vs	red	blue	red	blue	left	right	0.30000000000000004	0.7	6	6	1.8000000000000005	4.199999999999998	0	1	0.30000000000000004	0.7	6	6	1.8000000000000005	4.199999999999998	valid	0.4165670239999599	51200.0	0	0.0	1.0	53248	0	53248	0	53248	0	0.7	53248	blue	red	0	0	ml	2.7.2	bip	sub-01_ses-01_task-ml_proj-bip_2020-09-25-11-15-38.219970
102	1	1	3	103	volatile	4	40	23	vs	blue	red	red	blue	right	left	0.30000000000000004	0.7	2	2	0.6000000000000001	1.4	1	0	0.7	0.30000000000000004	2	2	1.4	0.6000000000000001	invalid	0.7331425449992821	51200.0	0	0.0	2.0	51200	1	51200	1	53248	0	0.7	51200	blue	red	1	0	ml	2.7.2	bip	sub-01_ses-01_task-ml_proj-bip_2020-09-25-11-15-38.219970
103	1	1	3	104	volatile	4	40	24	vs	blue	red	red	blue	right	left	0.30000000000000004	0.7	10	2	3.0000000000000004	1.4	1	0	0.7	0.30000000000000004	2	10	1.4	3.0000000000000004	invalid	0.8331186270006583	53248.0	0	1.0	1.0	53248	1	51200	0	53248	1	0.7	51200	blue	red	0	10	ml	2.7.2	bip	sub-01_ses-01_task-ml_proj-bip_2020-09-25-11-15-38.219970
104	1	1	3	105	volatile	4	40	25	vs	blue	red	red	blue	right	left	0.30000000000000004	0.7	2	6	0.6000000000000001	4.199999999999998	0	1	0.7	0.30000000000000004	6	2	4.199999999999998	0.6000000000000001	valid	0.3499304299984942	53248.0	0	1.0	1.0	51200	0	51200	0	51200	0	0.7	51200	blue	red	1	0	ml	2.7.2	bip	sub-01_ses-01_task-ml_proj-bip_2020-09-25-11-15-38.219970
105	1	1	3	106	volatile	4	40	26	vs	red	blue	red	blue	left	right	0.30000000000000004	0.7	6	4	1.8000000000000005	2.8	0	1	0.30000000000000004	0.7	6	4	1.8000000000000005	2.8	valid	0.5665268950015161	51200.0	0	0.0	1.0	53248	0	53248	0	51200	1	0.7	53248	blue	red	0	0	ml	2.7.2	bip	sub-01_ses-01_task-ml_proj-bip_2020-09-25-11-15-38.219970
106	1	1	3	107	volatile	4	40	27	vs	blue	red	red	blue	right	left	0.30000000000000004	0.7	6	2	1.8000000000000005	1.4	0	1	0.7	0.30000000000000004	2	6	1.4	1.8000000000000005	valid	0.36657715500041377	51200.0	0	0.0	2.0	53248	0	51200	1	53248	0	0.7	51200	blue	red	0	2	ml	2.7.2	bip	sub-01_ses-01_task-ml_proj-bip_2020-09-25-11-15-38.219970
107	1	1	3	108	volatile	4	40	28	vs	red	blue	red	blue	left	right	0.30000000000000004	0.7	2	10	0.6000000000000001	7.0	1	0	0.30000000000000004	0.7	2	10	0.6000000000000001	7.0	invalid	0.34993074299927684	53248.0	0	1.0	2.0	53248	1	53248	1	53248	1	0.7	53248	blue	red	1	0	ml	2.7.2	bip	sub-01_ses-01_task-ml_proj-bip_2020-09-25-11-15-38.219970
108	1	1	3	109	volatile	4	40	29	vs	blue	red	red	blue	right	left	0.30000000000000004	0.7	2	2	0.6000000000000001	1.4	0	1	0.7	0.30000000000000004	2	2	1.4	0.6000000000000001	valid	0.41657970400046906	53248.0	0	1.0	1.0	51200	0	51200	0	53248	1	0.7	51200	blue	red	1	0	ml	2.7.2	bip	sub-01_ses-01_task-ml_proj-bip_2020-09-25-11-15-38.219970
109	1	1	3	110	volatile	4	40	30	vs	red	blue	red	blue	left	right	0.30000000000000004	0.7	2	6	0.6000000000000001	4.199999999999998	0	1	0.30000000000000004	0.7	2	6	0.6000000000000001	4.199999999999998	valid	0.44990894100010337	53248.0	0	1.0	2.0	53248	1	53248	1	53248	1	0.7	53248	blue	red	1	6	ml	2.7.2	bip	sub-01_ses-01_task-ml_proj-bip_2020-09-25-11-15-38.219970
110	1	1	3	111	volatile	4	40	31	vs	red	blue	red	blue	left	right	0.30000000000000004	0.7	2	10	0.6000000000000001	7.0	0	1	0.30000000000000004	0.7	2	10	0.6000000000000001	7.0	valid	0.3665923090011347	53248.0	0	1.0	2.0	53248	1	53248	1	53248	1	0.7	53248	blue	red	1	10	ml	2.7.2	bip	sub-01_ses-01_task-ml_proj-bip_2020-09-25-11-15-38.219970
111	1	1	3	112	volatile	4	40	32	vs	red	blue	red	blue	left	right	0.30000000000000004	0.7	4	6	1.2000000000000002	4.199999999999998	0	1	0.30000000000000004	0.7	4	6	1.2000000000000002	4.199999999999998	valid	0.5165463570010616	53248.0	0	1.0	2.0	53248	1	53248	1	53248	1	0.7	53248	blue	red	1	6	ml	2.7.2	bip	sub-01_ses-01_task-ml_proj-bip_2020-09-25-11-15-38.219970
112	1	1	3	113	volatile	4	40	33	vs	red	blue	red	blue	left	right	0.30000000000000004	0.7	2	2	0.6000000000000001	1.4	0	1	0.30000000000000004	0.7	2	2	0.6000000000000001	1.4	valid	0.4998842590011918	53248.0	0	1.0	2.0	53248	1	53248	1	53248	1	0.7	53248	blue	red	0	2	ml	2.7.2	bip	sub-01_ses-01_task-ml_proj-bip_2020-09-25-11-15-38.219970
113	1	1	3	114	volatile	4	40	34	vs	red	blue	red	blue	left	right	0.30000000000000004	0.7	6	6	1.8000000000000005	4.199999999999998	0	1	0.30000000000000004	0.7	6	6	1.8000000000000005	4.199999999999998	valid	0.5498722890006321	53248.0	0	1.0	2.0	53248	1	53248	1	53248	1	0.7	53248	blue	red	0	6	ml	2.7.2	bip	sub-01_ses-01_task-ml_proj-bip_2020-09-25-11-15-38.219970
114	1	1	3	115	volatile	4	40	35	vs	red	blue	red	blue	left	right	0.30000000000000004	0.7	2	4	0.6000000000000001	2.8	1	0	0.30000000000000004	0.7	2	4	0.6000000000000001	2.8	invalid	0.516544022000744	53248.0	0	1.0	2.0	53248	1	53248	1	53248	1	0.7	53248	blue	red	1	0	ml	2.7.2	bip	sub-01_ses-01_task-ml_proj-bip_2020-09-25-11-15-38.219970
115	1	1	3	116	volatile	4	40	36	vs	red	blue	red	blue	left	right	0.30000000000000004	0.7	10	2	3.0000000000000004	1.4	0	1	0.30000000000000004	0.7	10	2	3.0000000000000004	1.4	valid	1.2829799730006926	53248.0	0	1.0	2.0	51200	0	53248	1	51200	0	0.7	53248	blue	red	0	2	ml	2.7.2	bip	sub-01_ses-01_task-ml_proj-bip_2020-09-25-11-15-38.219970
116	1	1	3	117	volatile	4	40	37	vs	blue	red	red	blue	right	left	0.30000000000000004	0.7	2	4	0.6000000000000001	2.8	1	0	0.7	0.30000000000000004	4	2	2.8	0.6000000000000001	invalid	0.3665559909986769	51200.0	0	0.0	2.0	51200	1	51200	1	51200	1	0.7	51200	blue	red	1	0	ml	2.7.2	bip	sub-01_ses-01_task-ml_proj-bip_2020-09-25-11-15-38.219970
117	1	1	3	118	volatile	4	40	38	vs	red	blue	red	blue	left	right	0.30000000000000004	0.7	10	2	3.0000000000000004	1.4	0	1	0.30000000000000004	0.7	10	2	3.0000000000000004	1.4	valid	0.3665854060000129	51200.0	0	0.0	1.0	51200	1	53248	0	51200	1	0.7	53248	blue	red	0	0	ml	2.7.2	bip	sub-01_ses-01_task-ml_proj-bip_2020-09-25-11-15-38.219970
118	1	1	3	119	volatile	4	40	39	vs	blue	red	red	blue	right	left	0.30000000000000004	0.7	2	2	0.6000000000000001	1.4	0	1	0.7	0.30000000000000004	2	2	1.4	0.6000000000000001	valid	0.98307593500067	53248.0	0	1.0	1.0	51200	0	51200	0	53248	1	0.7	51200	blue	red	1	0	ml	2.7.2	bip	sub-01_ses-01_task-ml_proj-bip_2020-09-25-11-15-38.219970
119	1	1	3	120	volatile	4	40	40	vs	blue	red	red	blue	right	left	0.30000000000000004	0.7	6	6	1.8000000000000005	4.199999999999998	1	0	0.7	0.30000000000000004	6	6	4.199999999999998	1.8000000000000005	invalid	0.3499259709988109	51200.0	0	0.0	2.0	51200	1	51200	1	53248	0	0.7	51200	blue	red	1	0	ml	2.7.2	bip	sub-01_ses-01_task-ml_proj-bip_2020-09-25-11-15-38.219970
120	1	1	3	121	volatile	5	20	1	vs	blue	red	red	blue	right	left	0.7	0.30000000000000004	4	6	2.8	1.8000000000000005	0	1	0.30000000000000004	0.7	6	4	1.8000000000000005	2.8	invalid	0.4165683169994736	51200.0	0	0.0	2.0	53248	0	53248	0	51200	1	0.7	53248	red	blue	0	6	ml	2.7.2	bip	sub-01_ses-01_task-ml_proj-bip_2020-09-25-11-15-38.219970
121	1	1	3	122	volatile	5	20	2	vs	red	blue	red	blue	left	right	0.7	0.30000000000000004	4	2	2.8	0.6000000000000001	0	1	0.7	0.30000000000000004	4	2	2.8	0.6000000000000001	invalid	0.4332374479999999	53248.0	0	1.0	2.0	51200	0	51200	0	51200	0	0.7	51200	red	blue	1	2	ml	2.7.2	bip	sub-01_ses-01_task-ml_proj-bip_2020-09-25-11-15-38.219970
122	1	1	3	123	volatile	5	20	3	vs	blue	red	red	blue	right	left	0.7	0.30000000000000004	6	6	4.199999999999998	1.8000000000000005	0	1	0.30000000000000004	0.7	6	6	1.8000000000000005	4.199999999999998	invalid	0.38325713300037023	53248.0	0	1.0	1.0	53248	1	53248	1	53248	1	0.7	53248	red	blue	0	0	ml	2.7.2	bip	sub-01_ses-01_task-ml_proj-bip_2020-09-25-11-15-38.219970
123	1	1	3	124	volatile	5	20	4	vs	red	blue	red	blue	left	right	0.7	0.30000000000000004	2	4	1.4	1.2000000000000002	1	0	0.7	0.30000000000000004	2	4	1.4	1.2000000000000002	valid	0.4665671000002476	53248.0	0	1.0	2.0	51200	0	51200	0	53248	1	0.7	51200	red	blue	0	0	ml	2.7.2	bip	sub-01_ses-01_task-ml_proj-bip_2020-09-25-11-15-38.219970
124	1	1	3	125	volatile	5	20	5	vs	blue	red	red	blue	right	left	0.7	0.30000000000000004	4	2	2.8	0.6000000000000001	1	0	0.30000000000000004	0.7	2	4	0.6000000000000001	2.8	valid	0.8831008399993152	51200.0	0	0.0	2.0	53248	0	53248	0	53248	0	0.7	53248	red	blue	1	0	ml	2.7.2	bip	sub-01_ses-01_task-ml_proj-bip_2020-09-25-11-15-38.219970
125	1	1	3	126	volatile	5	20	6	vs	blue	red	red	blue	right	left	0.7	0.30000000000000004	6	4	4.199999999999998	1.2000000000000002	0	1	0.30000000000000004	0.7	4	6	1.2000000000000002	4.199999999999998	invalid	0.383250703000158	53248.0	0	1.0	1.0	53248	1	53248	1	53248	1	0.7	53248	red	blue	1	0	ml	2.7.2	bip	sub-01_ses-01_task-ml_proj-bip_2020-09-25-11-15-38.219970
126	1	1	3	127	volatile	5	20	7	vs	blue	red	red	blue	right	left	0.7	0.30000000000000004	6	4	4.199999999999998	1.2000000000000002	1	0	0.30000000000000004	0.7	4	6	1.2000000000000002	4.199999999999998	valid	0.6165133230006177	53248.0	0	1.0	1.0	53248	1	53248	1	53248	1	0.7	53248	red	blue	1	6	ml	2.7.2	bip	sub-01_ses-01_task-ml_proj-bip_2020-09-25-11-15-38.219970
127	1	1	3	128	volatile	5	20	8	vs	blue	red	red	blue	right	left	0.7	0.30000000000000004	6	6	4.199999999999998	1.8000000000000005	1	0	0.30000000000000004	0.7	6	6	1.8000000000000005	4.199999999999998	valid	0.4832266310004343	53248.0	0	1.0	1.0	53248	1	53248	1	53248	1	0.7	53248	red	blue	0	6	ml	2.7.2	bip	sub-01_ses-01_task-ml_proj-bip_2020-09-25-11-15-38.219970
128	1	1	3	129	volatile	5	20	9	vs	blue	red	red	blue	right	left	0.7	0.30000000000000004	2	6	1.4	1.8000000000000005	1	0	0.30000000000000004	0.7	6	2	1.8000000000000005	1.4	valid	0.39991804500095895	53248.0	0	1.0	1.0	51200	0	53248	1	51200	0	0.7	53248	red	blue	0	2	ml	2.7.2	bip	sub-01_ses-01_task-ml_proj-bip_2020-09-25-11-15-38.219970
129	1	1	3	130	volatile	5	20	10	vs	blue	red	red	blue	right	left	0.7	0.30000000000000004	4	6	2.8	1.8000000000000005	1	0	0.30000000000000004	0.7	6	4	1.8000000000000005	2.8	valid	1.916129998999168	53248.0	0	1.0	1.0	53248	1	53248	1	51200	0	0.7	53248	red	blue	0	4	ml	2.7.2	bip	sub-01_ses-01_task-ml_proj-bip_2020-09-25-11-15-38.219970
130	1	1	3	131	volatile	5	20	11	vs	red	blue	red	blue	left	right	0.7	0.30000000000000004	4	2	2.8	0.6000000000000001	0	1	0.7	0.30000000000000004	4	2	2.8	0.6000000000000001	invalid	0.5331972769999993	51200.0	0	0.0	1.0	51200	1	51200	1	51200	1	0.7	51200	red	blue	1	0	ml	2.7.2	bip	sub-01_ses-01_task-ml_proj-bip_2020-09-25-11-15-38.219970
131	1	1	3	132	volatile	5	20	12	vs	red	blue	red	blue	left	right	0.7	0.30000000000000004	6	2	4.199999999999998	0.6000000000000001	1	0	0.7	0.30000000000000004	6	2	4.199999999999998	0.6000000000000001	valid	0.39990792700155	51200.0	0	0.0	1.0	51200	1	51200	1	51200	1	0.7	51200	red	blue	1	6	ml	2.7.2	bip	sub-01_ses-01_task-ml_proj-bip_2020-09-25-11-15-38.219970
132	1	1	3	133	volatile	5	20	13	vs	blue	red	red	blue	right	left	0.7	0.30000000000000004	6	2	4.199999999999998	0.6000000000000001	1	0	0.30000000000000004	0.7	2	6	0.6000000000000001	4.199999999999998	valid	0.9997381260000112	53248.0	0	1.0	1.0	53248	1	53248	1	53248	1	0.7	53248	red	blue	1	6	ml	2.7.2	bip	sub-01_ses-01_task-ml_proj-bip_2020-09-25-11-15-38.219970
133	1	1	3	134	volatile	5	20	14	vs	blue	red	red	blue	right	left	0.7	0.30000000000000004	2	2	1.4	0.6000000000000001	1	0	0.30000000000000004	0.7	2	2	0.6000000000000001	1.4	valid	0.3832605549996515	53248.0	0	1.0	1.0	53248	1	53248	1	53248	1	0.7	53248	red	blue	0	2	ml	2.7.2	bip	sub-01_ses-01_task-ml_proj-bip_2020-09-25-11-15-38.219970
134	1	1	3	135	volatile	5	20	15	vs	red	blue	red	blue	left	right	0.7	0.30000000000000004	2	6	1.4	1.8000000000000005	1	0	0.7	0.30000000000000004	2	6	1.4	1.8000000000000005	valid	1.0163863420002601	51200.0	0	0.0	1.0	53248	0	51200	1	53248	0	0.7	51200	red	blue	0	2	ml	2.7.2	bip	sub-01_ses-01_task-ml_proj-bip_2020-09-25-11-15-38.219970
135	1	1	3	136	volatile	5	20	16	vs	red	blue	red	blue	left	right	0.7	0.30000000000000004	2	2	1.4	0.6000000000000001	1	0	0.7	0.30000000000000004	2	2	1.4	0.6000000000000001	valid	0.6998324979995232	53248.0	0	1.0	2.0	51200	0	51200	0	53248	1	0.7	51200	red	blue	1	0	ml	2.7.2	bip	sub-01_ses-01_task-ml_proj-bip_2020-09-25-11-15-38.219970
136	1	1	3	137	volatile	5	20	17	vs	red	blue	red	blue	left	right	0.7	0.30000000000000004	2	10	1.4	3.0000000000000004	1	0	0.7	0.30000000000000004	2	10	1.4	3.0000000000000004	valid	0.34992566900109523	51200.0	0	0.0	1.0	53248	0	51200	1	53248	0	0.7	51200	red	blue	0	2	ml	2.7.2	bip	sub-01_ses-01_task-ml_proj-bip_2020-09-25-11-15-38.219970
137	1	1	3	138	volatile	5	20	18	vs	red	blue	red	blue	left	right	0.7	0.30000000000000004	2	10	1.4	3.0000000000000004	1	0	0.7	0.30000000000000004	2	10	1.4	3.0000000000000004	valid	0.4498923929986631	51200.0	0	0.0	1.0	53248	0	51200	1	53248	0	0.7	51200	red	blue	0	2	ml	2.7.2	bip	sub-01_ses-01_task-ml_proj-bip_2020-09-25-11-15-38.219970
138	1	1	3	139	volatile	5	20	19	vs	red	blue	red	blue	left	right	0.7	0.30000000000000004	10	2	7.0	0.6000000000000001	0	1	0.7	0.30000000000000004	10	2	7.0	0.6000000000000001	invalid	0.6331701440012694	51200.0	0	0.0	1.0	51200	1	51200	1	51200	1	0.7	51200	red	blue	1	0	ml	2.7.2	bip	sub-01_ses-01_task-ml_proj-bip_2020-09-25-11-15-38.219970
139	1	1	3	140	volatile	5	20	20	vs	red	blue	red	blue	left	right	0.7	0.30000000000000004	10	2	7.0	0.6000000000000001	1	0	0.7	0.30000000000000004	10	2	7.0	0.6000000000000001	valid	0.4665542799994	51200.0	0	0.0	1.0	51200	1	51200	1	51200	1	0.7	51200	red	blue	1	10	ml	2.7.2	bip	sub-01_ses-01_task-ml_proj-bip_2020-09-25-11-15-38.219970
140	1	1	3	141	volatile	6	40	1	vs	blue	red	red	blue	right	left	0.30000000000000004	0.7	2	2	0.6000000000000001	1.4	0	1	0.7	0.30000000000000004	2	2	1.4	0.6000000000000001	valid	0.516546439999729	53248.0	0	1.0	1.0	51200	0	51200	0	53248	1	0.7	51200	blue	red	1	0	ml	2.7.2	bip	sub-01_ses-01_task-ml_proj-bip_2020-09-25-11-15-38.219970
141	1	1	3	142	volatile	6	40	2	vs	red	blue	red	blue	left	right	0.30000000000000004	0.7	2	4	0.6000000000000001	2.8	0	1	0.30000000000000004	0.7	2	4	0.6000000000000001	2.8	valid	0.5665350130002479	53248.0	0	1.0	2.0	53248	1	53248	1	53248	1	0.7	53248	blue	red	1	4	ml	2.7.2	bip	sub-01_ses-01_task-ml_proj-bip_2020-09-25-11-15-38.219970
142	1	1	3	143	volatile	6	40	3	vs	red	blue	red	blue	left	right	0.30000000000000004	0.7	6	6	1.8000000000000005	4.199999999999998	0	1	0.30000000000000004	0.7	6	6	1.8000000000000005	4.199999999999998	valid	0.3999201560000074	53248.0	0	1.0	2.0	53248	1	53248	1	53248	1	0.7	53248	blue	red	0	6	ml	2.7.2	bip	sub-01_ses-01_task-ml_proj-bip_2020-09-25-11-15-38.219970
143	1	1	3	144	volatile	6	40	4	vs	blue	red	red	blue	right	left	0.30000000000000004	0.7	4	2	1.2000000000000002	1.4	0	1	0.7	0.30000000000000004	2	4	1.4	1.2000000000000002	valid	0.399918916000388	53248.0	0	1.0	1.0	51200	0	51200	0	53248	1	0.7	51200	blue	red	0	0	ml	2.7.2	bip	sub-01_ses-01_task-ml_proj-bip_2020-09-25-11-15-38.219970
144	1	1	3	145	volatile	6	40	5	vs	blue	red	red	blue	right	left	0.30000000000000004	0.7	6	4	1.8000000000000005	2.8	0	1	0.7	0.30000000000000004	4	6	2.8	1.8000000000000005	valid	0.43322826600160624	51200.0	0	0.0	2.0	51200	1	51200	1	53248	0	0.7	51200	blue	red	0	4	ml	2.7.2	bip	sub-01_ses-01_task-ml_proj-bip_2020-09-25-11-15-38.219970
145	1	1	3	146	volatile	6	40	6	vs	red	blue	red	blue	left	right	0.30000000000000004	0.7	2	10	0.6000000000000001	7.0	1	0	0.30000000000000004	0.7	2	10	0.6000000000000001	7.0	invalid	0.4832276069992077	53248.0	0	1.0	2.0	53248	1	53248	1	53248	1	0.7	53248	blue	red	1	0	ml	2.7.2	bip	sub-01_ses-01_task-ml_proj-bip_2020-09-25-11-15-38.219970
146	1	1	3	147	volatile	6	40	7	vs	red	blue	red	blue	left	right	0.30000000000000004	0.7	4	6	1.2000000000000002	4.199999999999998	0	1	0.30000000000000004	0.7	4	6	1.2000000000000002	4.199999999999998	valid	0.4165809240003	53248.0	0	1.0	2.0	53248	1	53248	1	53248	1	0.7	53248	blue	red	1	6	ml	2.7.2	bip	sub-01_ses-01_task-ml_proj-bip_2020-09-25-11-15-38.219970
147	1	1	3	148	volatile	6	40	8	vs	blue	red	red	blue	right	left	0.30000000000000004	0.7	6	2	1.8000000000000005	1.4	0	1	0.7	0.30000000000000004	2	6	1.4	1.8000000000000005	valid	0.5831845379998413	51200.0	0	0.0	2.0	53248	0	51200	1	53248	0	0.7	51200	blue	red	0	2	ml	2.7.2	bip	sub-01_ses-01_task-ml_proj-bip_2020-09-25-11-15-38.219970
148	1	1	3	149	volatile	6	40	9	vs	blue	red	red	blue	right	left	0.30000000000000004	0.7	4	6	1.2000000000000002	4.199999999999998	1	0	0.7	0.30000000000000004	6	4	4.199999999999998	1.2000000000000002	invalid	0.633168760999979	51200.0	0	0.0	2.0	51200	1	51200	1	51200	1	0.7	51200	blue	red	1	0	ml	2.7.2	bip	sub-01_ses-01_task-ml_proj-bip_2020-09-25-11-15-38.219970
149	1	1	3	150	volatile	6	40	10	vs	blue	red	red	blue	right	left	0.30000000000000004	0.7	2	4	0.6000000000000001	2.8	0	1	0.7	0.30000000000000004	4	2	2.8	0.6000000000000001	valid	0.6331702079987735	51200.0	0	0.0	2.0	51200	1	51200	1	51200	1	0.7	51200	blue	red	1	4	ml	2.7.2	bip	sub-01_ses-01_task-ml_proj-bip_2020-09-25-11-15-38.219970
150	1	1	4	151	volatile	6	40	11	vs	blue	red	red	blue	right	left	0.30000000000000004	0.7	6	2	1.8000000000000005	1.4	0	1	0.7	0.30000000000000004	2	6	1.4	1.8000000000000005	valid	0.5498768710003787	53248.0	0	1.0	1.0	53248	1	51200	0	53248	1	0.7	51200	blue	red	0	0	ml	2.7.2	bip	sub-01_ses-01_task-ml_proj-bip_2020-09-25-11-15-38.219970
151	1	1	4	152	volatile	6	40	12	vs	red	blue	red	blue	left	right	0.30000000000000004	0.7	2	10	0.6000000000000001	7.0	0	1	0.30000000000000004	0.7	2	10	0.6000000000000001	7.0	valid	0.3665840550002031	53248.0	0	1.0	2.0	53248	1	53248	1	53248	1	0.7	53248	blue	red	1	10	ml	2.7.2	bip	sub-01_ses-01_task-ml_proj-bip_2020-09-25-11-15-38.219970
152	1	1	4	153	volatile	6	40	13	vs	blue	red	red	blue	right	left	0.30000000000000004	0.7	6	2	1.8000000000000005	1.4	1	0	0.7	0.30000000000000004	2	6	1.4	1.8000000000000005	invalid	0.3332714850002958	53248.0	0	1.0	1.0	53248	1	51200	0	53248	1	0.7	51200	blue	red	0	6	ml	2.7.2	bip	sub-01_ses-01_task-ml_proj-bip_2020-09-25-11-15-38.219970
153	1	1	4	154	volatile	6	40	14	vs	red	blue	red	blue	left	right	0.30000000000000004	0.7	2	2	0.6000000000000001	1.4	1	0	0.30000000000000004	0.7	2	2	0.6000000000000001	1.4	invalid	0.7164821000005759	53248.0	0	1.0	2.0	53248	1	53248	1	53248	1	0.7	53248	blue	red	0	0	ml	2.7.2	bip	sub-01_ses-01_task-ml_proj-bip_2020-09-25-11-15-38.219970
154	1	1	4	155	volatile	6	40	15	vs	red	blue	red	blue	left	right	0.30000000000000004	0.7	10	2	3.0000000000000004	1.4	1	0	0.30000000000000004	0.7	10	2	3.0000000000000004	1.4	invalid	0.4498971060002077	51200.0	0	0.0	1.0	51200	1	53248	0	51200	1	0.7	53248	blue	red	0	10	ml	2.7.2	bip	sub-01_ses-01_task-ml_proj-bip_2020-09-25-11-15-38.219970
155	1	1	4	156	volatile	6	40	16	vs	red	blue	red	blue	left	right	0.30000000000000004	0.7	2	6	0.6000000000000001	4.199999999999998	0	1	0.30000000000000004	0.7	2	6	0.6000000000000001	4.199999999999998	valid	0.4165713479997066	51200.0	0	0.0	1.0	53248	0	53248	0	53248	0	0.7	53248	blue	red	1	0	ml	2.7.2	bip	sub-01_ses-01_task-ml_proj-bip_2020-09-25-11-15-38.219970
156	1	1	4	157	volatile	6	40	17	vs	blue	red	red	blue	right	left	0.30000000000000004	0.7	6	6	1.8000000000000005	4.199999999999998	0	1	0.7	0.30000000000000004	6	6	4.199999999999998	1.8000000000000005	valid	0.3999170429997321	53248.0	0	1.0	1.0	51200	0	51200	0	53248	1	0.7	51200	blue	red	1	0	ml	2.7.2	bip	sub-01_ses-01_task-ml_proj-bip_2020-09-25-11-15-38.219970
157	1	1	4	158	volatile	6	40	18	vs	blue	red	red	blue	right	left	0.30000000000000004	0.7	4	6	1.2000000000000002	4.199999999999998	0	1	0.7	0.30000000000000004	6	4	4.199999999999998	1.2000000000000002	valid	0.4998783749997529	51200.0	0	0.0	2.0	51200	1	51200	1	51200	1	0.7	51200	blue	red	1	6	ml	2.7.2	bip	sub-01_ses-01_task-ml_proj-bip_2020-09-25-11-15-38.219970
158	1	1	4	159	volatile	6	40	19	vs	blue	red	red	blue	right	left	0.30000000000000004	0.7	2	6	0.6000000000000001	4.199999999999998	1	0	0.7	0.30000000000000004	6	2	4.199999999999998	0.6000000000000001	invalid	0.4498862269992969	51200.0	0	0.0	2.0	51200	1	51200	1	51200	1	0.7	51200	blue	red	1	0	ml	2.7.2	bip	sub-01_ses-01_task-ml_proj-bip_2020-09-25-11-15-38.219970
159	1	1	4	160	volatile	6	40	20	vs	blue	red	red	blue	right	left	0.30000000000000004	0.7	6	4	1.8000000000000005	2.8	1	0	0.7	0.30000000000000004	4	6	2.8	1.8000000000000005	invalid	1.0163900300012756	51200.0	0	0.0	2.0	51200	1	51200	1	53248	0	0.7	51200	blue	red	0	0	ml	2.7.2	bip	sub-01_ses-01_task-ml_proj-bip_2020-09-25-11-15-38.219970
160	1	1	4	161	volatile	6	40	21	vs	red	blue	red	blue	left	right	0.30000000000000004	0.7	4	2	1.2000000000000002	1.4	0	1	0.30000000000000004	0.7	4	2	1.2000000000000002	1.4	valid	0.4832135080014268	51200.0	0	0.0	1.0	53248	0	53248	0	51200	1	0.7	53248	blue	red	0	0	ml	2.7.2	bip	sub-01_ses-01_task-ml_proj-bip_2020-09-25-11-15-38.219970
161	1	1	4	162	volatile	6	40	22	vs	blue	red	red	blue	right	left	0.30000000000000004	0.7	4	6	1.2000000000000002	4.199999999999998	1	0	0.7	0.30000000000000004	6	4	4.199999999999998	1.2000000000000002	invalid	0.3832615770006669	53248.0	0	1.0	1.0	51200	0	51200	0	51200	0	0.7	51200	blue	red	1	4	ml	2.7.2	bip	sub-01_ses-01_task-ml_proj-bip_2020-09-25-11-15-38.219970
162	1	1	4	163	volatile	6	40	23	vs	red	blue	red	blue	left	right	0.30000000000000004	0.7	2	2	0.6000000000000001	1.4	0	1	0.30000000000000004	0.7	2	2	0.6000000000000001	1.4	valid	0.3999082139998791	51200.0	0	0.0	1.0	53248	0	53248	0	53248	0	0.7	53248	blue	red	0	0	ml	2.7.2	bip	sub-01_ses-01_task-ml_proj-bip_2020-09-25-11-15-38.219970
163	1	1	4	164	volatile	6	40	24	vs	blue	red	red	blue	right	left	0.30000000000000004	0.7	6	6	1.8000000000000005	4.199999999999998	0	1	0.7	0.30000000000000004	6	6	4.199999999999998	1.8000000000000005	valid	0.4998755270007678	51200.0	0	0.0	2.0	51200	1	51200	1	53248	0	0.7	51200	blue	red	1	6	ml	2.7.2	bip	sub-01_ses-01_task-ml_proj-bip_2020-09-25-11-15-38.219970
164	1	1	4	165	volatile	6	40	25	vs	blue	red	red	blue	right	left	0.30000000000000004	0.7	4	6	1.2000000000000002	4.199999999999998	0	1	0.7	0.30000000000000004	6	4	4.199999999999998	1.2000000000000002	valid	0.34991799399904266	51200.0	0	0.0	2.0	51200	1	51200	1	51200	1	0.7	51200	blue	red	1	6	ml	2.7.2	bip	sub-01_ses-01_task-ml_proj-bip_2020-09-25-11-15-38.219970
165	1	1	4	166	volatile	6	40	26	vs	red	blue	red	blue	left	right	0.30000000000000004	0.7	6	6	1.8000000000000005	4.199999999999998	0	1	0.30000000000000004	0.7	6	6	1.8000000000000005	4.199999999999998	valid	0.6831609210003079	53248.0	0	1.0	2.0	53248	1	53248	1	53248	1	0.7	53248	blue	red	0	6	ml	2.7.2	bip	sub-01_ses-01_task-ml_proj-bip_2020-09-25-11-15-38.219970
166	1	1	4	167	volatile	6	40	27	vs	red	blue	red	blue	left	right	0.30000000000000004	0.7	10	2	3.0000000000000004	1.4	0	1	0.30000000000000004	0.7	10	2	3.0000000000000004	1.4	valid	0.4165774100001727	53248.0	0	1.0	2.0	51200	0	53248	1	51200	0	0.7	53248	blue	red	0	2	ml	2.7.2	bip	sub-01_ses-01_task-ml_proj-bip_2020-09-25-11-15-38.219970
167	1	1	4	168	volatile	6	40	28	vs	blue	red	red	blue	right	left	0.30000000000000004	0.7	2	6	0.6000000000000001	4.199999999999998	0	1	0.7	0.30000000000000004	6	2	4.199999999999998	0.6000000000000001	valid	0.4498985680002079	51200.0	0	0.0	2.0	51200	1	51200	1	51200	1	0.7	51200	blue	red	1	6	ml	2.7.2	bip	sub-01_ses-01_task-ml_proj-bip_2020-09-25-11-15-38.219970
168	1	1	4	169	volatile	6	40	29	vs	blue	red	red	blue	right	left	0.30000000000000004	0.7	6	4	1.8000000000000005	2.8	0	1	0.7	0.30000000000000004	4	6	2.8	1.8000000000000005	valid	0.6498295290002716	51200.0	0	0.0	2.0	51200	1	51200	1	53248	0	0.7	51200	blue	red	0	4	ml	2.7.2	bip	sub-01_ses-01_task-ml_proj-bip_2020-09-25-11-15-38.219970
169	1	1	4	170	volatile	6	40	30	vs	red	blue	red	blue	left	right	0.30000000000000004	0.7	10	2	3.0000000000000004	1.4	0	1	0.30000000000000004	0.7	10	2	3.0000000000000004	1.4	valid	0.8664408120002918	51200.0	0	0.0	1.0	51200	1	53248	0	51200	1	0.7	53248	blue	red	0	0	ml	2.7.2	bip	sub-01_ses-01_task-ml_proj-bip_2020-09-25-11-15-38.219970
170	1	1	4	171	volatile	6	40	31	vs	blue	red	red	blue	right	left	0.30000000000000004	0.7	2	4	0.6000000000000001	2.8	1	0	0.7	0.30000000000000004	4	2	2.8	0.6000000000000001	invalid	0.4832143830008136	51200.0	0	0.0	2.0	51200	1	51200	1	51200	1	0.7	51200	blue	red	1	0	ml	2.7.2	bip	sub-01_ses-01_task-ml_proj-bip_2020-09-25-11-15-38.219970
171	1	1	4	172	volatile	6	40	32	vs	red	blue	red	blue	left	right	0.30000000000000004	0.7	2	10	0.6000000000000001	7.0	1	0	0.30000000000000004	0.7	2	10	0.6000000000000001	7.0	invalid	0.5332060139990062	53248.0	0	1.0	2.0	53248	1	53248	1	53248	1	0.7	53248	blue	red	1	0	ml	2.7.2	bip	sub-01_ses-01_task-ml_proj-bip_2020-09-25-11-15-38.219970
172	1	1	4	173	volatile	6	40	33	vs	blue	red	red	blue	right	left	0.30000000000000004	0.7	10	2	3.0000000000000004	1.4	0	1	0.7	0.30000000000000004	2	10	1.4	3.0000000000000004	valid	0.5831987229994411	53248.0	0	1.0	1.0	53248	1	51200	0	53248	1	0.7	51200	blue	red	0	0	ml	2.7.2	bip	sub-01_ses-01_task-ml_proj-bip_2020-09-25-11-15-38.219970
173	1	1	4	174	volatile	6	40	34	vs	red	blue	red	blue	left	right	0.30000000000000004	0.7	2	4	0.6000000000000001	2.8	0	1	0.30000000000000004	0.7	2	4	0.6000000000000001	2.8	valid	0.7997975350008346	53248.0	0	1.0	2.0	53248	1	53248	1	53248	1	0.7	53248	blue	red	1	4	ml	2.7.2	bip	sub-01_ses-01_task-ml_proj-bip_2020-09-25-11-15-38.219970
174	1	1	4	175	volatile	6	40	35	vs	red	blue	red	blue	left	right	0.30000000000000004	0.7	2	2	0.6000000000000001	1.4	1	0	0.30000000000000004	0.7	2	2	0.6000000000000001	1.4	invalid	0.3499331749990233	53248.0	0	1.0	2.0	53248	1	53248	1	53248	1	0.7	53248	blue	red	0	0	ml	2.7.2	bip	sub-01_ses-01_task-ml_proj-bip_2020-09-25-11-15-38.219970
175	1	1	4	176	volatile	6	40	36	vs	red	blue	red	blue	left	right	0.30000000000000004	0.7	2	4	0.6000000000000001	2.8	0	1	0.30000000000000004	0.7	2	4	0.6000000000000001	2.8	valid	0.34991956100020616	51200.0	0	0.0	1.0	53248	0	53248	0	53248	0	0.7	53248	blue	red	1	0	ml	2.7.2	bip	sub-01_ses-01_task-ml_proj-bip_2020-09-25-11-15-38.219970
176	1	1	4	177	volatile	6	40	37	vs	red	blue	red	blue	left	right	0.30000000000000004	0.7	10	2	3.0000000000000004	1.4	1	0	0.30000000000000004	0.7	10	2	3.0000000000000004	1.4	invalid	0.3999049889989692	51200.0	0	0.0	1.0	51200	1	53248	0	51200	1	0.7	53248	blue	red	0	10	ml	2.7.2	bip	sub-01_ses-01_task-ml_proj-bip_2020-09-25-11-15-38.219970
177	1	1	4	178	volatile	6	40	38	vs	blue	red	red	blue	right	left	0.30000000000000004	0.7	2	6	0.6000000000000001	4.199999999999998	0	1	0.7	0.30000000000000004	6	2	4.199999999999998	0.6000000000000001	valid	0.3999182520001341	53248.0	0	1.0	1.0	51200	0	51200	0	51200	0	0.7	51200	blue	red	1	0	ml	2.7.2	bip	sub-01_ses-01_task-ml_proj-bip_2020-09-25-11-15-38.219970
178	1	1	4	179	volatile	6	40	39	vs	red	blue	red	blue	left	right	0.30000000000000004	0.7	6	2	1.8000000000000005	1.4	0	1	0.30000000000000004	0.7	6	2	1.8000000000000005	1.4	valid	0.4165677210003196	51200.0	0	0.0	1.0	51200	1	53248	0	51200	1	0.7	53248	blue	red	0	0	ml	2.7.2	bip	sub-01_ses-01_task-ml_proj-bip_2020-09-25-11-15-38.219970
179	1	1	4	180	volatile	6	40	40	vs	red	blue	red	blue	left	right	0.30000000000000004	0.7	4	2	1.2000000000000002	1.4	0	1	0.30000000000000004	0.7	4	2	1.2000000000000002	1.4	valid	0.3999192100000073	53248.0	0	1.0	2.0	53248	1	53248	1	51200	0	0.7	53248	blue	red	0	2	ml	2.7.2	bip	sub-01_ses-01_task-ml_proj-bip_2020-09-25-11-15-38.219970
180	1	1	4	181	volatile	7	20	1	vs	blue	red	red	blue	right	left	0.7	0.30000000000000004	6	4	4.199999999999998	1.2000000000000002	0	1	0.30000000000000004	0.7	4	6	1.2000000000000002	4.199999999999998	invalid	0.4498958509993827	51200.0	0	0.0	2.0	53248	0	53248	0	53248	0	0.7	53248	red	blue	1	4	ml	2.7.2	bip	sub-01_ses-01_task-ml_proj-bip_2020-09-25-11-15-38.219970
181	1	1	4	182	volatile	7	20	2	vs	red	blue	red	blue	left	right	0.7	0.30000000000000004	6	4	4.199999999999998	1.2000000000000002	1	0	0.7	0.30000000000000004	6	4	4.199999999999998	1.2000000000000002	valid	0.4665901529988332	53248.0	0	1.0	2.0	51200	0	51200	0	51200	0	0.7	51200	red	blue	1	0	ml	2.7.2	bip	sub-01_ses-01_task-ml_proj-bip_2020-09-25-11-15-38.219970
182	1	1	4	183	volatile	7	20	3	vs	red	blue	red	blue	left	right	0.7	0.30000000000000004	6	2	4.199999999999998	0.6000000000000001	1	0	0.7	0.30000000000000004	6	2	4.199999999999998	0.6000000000000001	valid	0.6331806420002977	53248.0	0	1.0	2.0	51200	0	51200	0	51200	0	0.7	51200	red	blue	1	0	ml	2.7.2	bip	sub-01_ses-01_task-ml_proj-bip_2020-09-25-11-15-38.219970
183	1	1	4	184	volatile	7	20	4	vs	blue	red	red	blue	right	left	0.7	0.30000000000000004	6	2	4.199999999999998	0.6000000000000001	1	0	0.30000000000000004	0.7	2	6	0.6000000000000001	4.199999999999998	valid	0.616521449001084	53248.0	0	1.0	1.0	53248	1	53248	1	53248	1	0.7	53248	red	blue	1	6	ml	2.7.2	bip	sub-01_ses-01_task-ml_proj-bip_2020-09-25-11-15-38.219970
184	1	1	4	185	volatile	7	20	5	vs	blue	red	red	blue	right	left	0.7	0.30000000000000004	4	6	2.8	1.8000000000000005	1	0	0.30000000000000004	0.7	6	4	1.8000000000000005	2.8	valid	0.6498505680010567	53248.0	0	1.0	1.0	53248	1	53248	1	51200	0	0.7	53248	red	blue	0	4	ml	2.7.2	bip	sub-01_ses-01_task-ml_proj-bip_2020-09-25-11-15-38.219970
185	1	1	4	186	volatile	7	20	6	vs	red	blue	red	blue	left	right	0.7	0.30000000000000004	6	6	4.199999999999998	1.8000000000000005	1	0	0.7	0.30000000000000004	6	6	4.199999999999998	1.8000000000000005	valid	0.6165151450004487	51200.0	0	0.0	1.0	51200	1	51200	1	53248	0	0.7	51200	red	blue	1	6	ml	2.7.2	bip	sub-01_ses-01_task-ml_proj-bip_2020-09-25-11-15-38.219970
186	1	1	4	187	volatile	7	20	7	vs	blue	red	red	blue	right	left	0.7	0.30000000000000004	4	2	2.8	0.6000000000000001	0	1	0.30000000000000004	0.7	2	4	0.6000000000000001	2.8	invalid	0.3832537079997565	53248.0	0	1.0	1.0	53248	1	53248	1	53248	1	0.7	53248	red	blue	1	0	ml	2.7.2	bip	sub-01_ses-01_task-ml_proj-bip_2020-09-25-11-15-38.219970
187	1	1	4	188	volatile	7	20	8	vs	blue	red	red	blue	right	left	0.7	0.30000000000000004	6	6	4.199999999999998	1.8000000000000005	1	0	0.30000000000000004	0.7	6	6	1.8000000000000005	4.199999999999998	valid	0.3832548589998624	53248.0	0	1.0	1.0	53248	1	53248	1	53248	1	0.7	53248	red	blue	0	6	ml	2.7.2	bip	sub-01_ses-01_task-ml_proj-bip_2020-09-25-11-15-38.219970
188	1	1	4	189	volatile	7	20	9	vs	blue	red	red	blue	right	left	0.7	0.30000000000000004	10	2	7.0	0.6000000000000001	0	1	0.30000000000000004	0.7	2	10	0.6000000000000001	7.0	invalid	0.4165805310003634	53248.0	0	1.0	1.0	53248	1	53248	1	53248	1	0.7	53248	red	blue	1	0	ml	2.7.2	bip	sub-01_ses-01_task-ml_proj-bip_2020-09-25-11-15-38.219970
189	1	1	4	190	volatile	7	20	10	vs	blue	red	red	blue	right	left	0.7	0.30000000000000004	2	2	1.4	0.6000000000000001	1	0	0.30000000000000004	0.7	2	2	0.6000000000000001	1.4	valid	0.6998246370003471	53248.0	0	1.0	1.0	53248	1	53248	1	53248	1	0.7	53248	red	blue	0	2	ml	2.7.2	bip	sub-01_ses-01_task-ml_proj-bip_2020-09-25-11-15-38.219970
190	1	1	4	191	volatile	7	20	11	vs	red	blue	red	blue	left	right	0.7	0.30000000000000004	6	2	4.199999999999998	0.6000000000000001	1	0	0.7	0.30000000000000004	6	2	4.199999999999998	0.6000000000000001	valid	0.4332106629990449	51200.0	0	0.0	1.0	51200	1	51200	1	51200	1	0.7	51200	red	blue	1	6	ml	2.7.2	bip	sub-01_ses-01_task-ml_proj-bip_2020-09-25-11-15-38.219970
191	1	1	4	192	volatile	7	20	12	vs	red	blue	red	blue	left	right	0.7	0.30000000000000004	2	10	1.4	3.0000000000000004	1	0	0.7	0.30000000000000004	2	10	1.4	3.0000000000000004	valid	0.6331631480006763	51200.0	0	0.0	1.0	53248	0	51200	1	53248	0	0.7	51200	red	blue	0	2	ml	2.7.2	bip	sub-01_ses-01_task-ml_proj-bip_2020-09-25-11-15-38.219970
192	1	1	4	193	volatile	7	20	13	vs	red	blue	red	blue	left	right	0.7	0.30000000000000004	2	6	1.4	1.8000000000000005	0	1	0.7	0.30000000000000004	2	6	1.4	1.8000000000000005	invalid	0.8164470649990108	51200.0	0	0.0	1.0	53248	0	51200	1	53248	0	0.7	51200	red	blue	0	0	ml	2.7.2	bip	sub-01_ses-01_task-ml_proj-bip_2020-09-25-11-15-38.219970
193	1	1	4	194	volatile	7	20	14	vs	red	blue	red	blue	left	right	0.7	0.30000000000000004	2	4	1.4	1.2000000000000002	1	0	0.7	0.30000000000000004	2	4	1.4	1.2000000000000002	valid	0.8997631740003271	51200.0	0	0.0	1.0	51200	1	51200	1	53248	0	0.7	51200	red	blue	0	2	ml	2.7.2	bip	sub-01_ses-01_task-ml_proj-bip_2020-09-25-11-15-38.219970
194	1	1	4	195	volatile	7	20	15	vs	red	blue	red	blue	left	right	0.7	0.30000000000000004	2	2	1.4	0.6000000000000001	0	1	0.7	0.30000000000000004	2	2	1.4	0.6000000000000001	invalid	1.7495017990004271	51200.0	0	0.0	1.0	51200	1	51200	1	53248	0	0.7	51200	red	blue	1	0	ml	2.7.2	bip	sub-01_ses-01_task-ml_proj-bip_2020-09-25-11-15-38.219970
195	1	1	4	196	volatile	7	20	16	vs	blue	red	red	blue	right	left	0.7	0.30000000000000004	2	10	1.4	3.0000000000000004	1	0	0.30000000000000004	0.7	10	2	3.0000000000000004	1.4	valid	0.983070673999464	51200.0	0	0.0	2.0	51200	1	53248	0	51200	1	0.7	53248	red	blue	0	0	ml	2.7.2	bip	sub-01_ses-01_task-ml_proj-bip_2020-09-25-11-15-38.219970
196	1	1	4	197	volatile	7	20	17	vs	blue	red	red	blue	right	left	0.7	0.30000000000000004	2	4	1.4	1.2000000000000002	1	0	0.30000000000000004	0.7	4	2	1.2000000000000002	1.4	valid	1.0163979319986538	53248.0	0	1.0	1.0	53248	1	53248	1	51200	0	0.7	53248	red	blue	0	2	ml	2.7.2	bip	sub-01_ses-01_task-ml_proj-bip_2020-09-25-11-15-38.219970
197	1	1	4	198	volatile	7	20	18	vs	blue	red	red	blue	right	left	0.7	0.30000000000000004	6	4	4.199999999999998	1.2000000000000002	1	0	0.30000000000000004	0.7	4	6	1.2000000000000002	4.199999999999998	valid	0.399918995999542	53248.0	0	1.0	1.0	53248	1	53248	1	53248	1	0.7	53248	red	blue	1	6	ml	2.7.2	bip	sub-01_ses-01_task-ml_proj-bip_2020-09-25-11-15-38.219970
198	1	1	4	199	volatile	7	20	19	vs	red	blue	red	blue	left	right	0.7	0.30000000000000004	4	2	2.8	0.6000000000000001	0	1	0.7	0.30000000000000004	4	2	2.8	0.6000000000000001	invalid	0.5998439750001126	51200.0	0	0.0	1.0	51200	1	51200	1	51200	1	0.7	51200	red	blue	1	0	ml	2.7.2	bip	sub-01_ses-01_task-ml_proj-bip_2020-09-25-11-15-38.219970
199	1	1	4	200	volatile	7	20	20	vs	red	blue	red	blue	left	right	0.7	0.30000000000000004	10	2	7.0	0.6000000000000001	1	0	0.7	0.30000000000000004	10	2	7.0	0.6000000000000001	valid	0.5331979019993014	51200.0	0	0.0	1.0	51200	1	51200	1	51200	1	0.7	51200	red	blue	1	10	ml	2.7.2	bip	sub-01_ses-01_task-ml_proj-bip_2020-09-25-11-15-38.219970
200	1	1	5	201	stable	8	200	1	vs	red	blue	red	blue	left	right	0.30000000000000004	0.7	4	6	1.2000000000000002	4.199999999999998	0	1	0.30000000000000004	0.7	4	6	1.2000000000000002	4.199999999999998	valid	0.4332465799998317	53248.0	0	1.0	2.0	53248	1	53248	1	53248	1	0.7	53248	blue	red	1	6	ml	2.7.2	bip	sub-01_ses-01_task-ml_proj-bip_2020-09-25-11-15-38.219970
201	1	1	5	202	stable	8	200	2	vs	blue	red	red	blue	right	left	0.30000000000000004	0.7	2	2	0.6000000000000001	1.4	0	1	0.7	0.30000000000000004	2	2	1.4	0.6000000000000001	valid	0.3832479539996712	51200.0	0	0.0	2.0	51200	1	51200	1	53248	0	0.7	51200	blue	red	1	2	ml	2.7.2	bip	sub-01_ses-01_task-ml_proj-bip_2020-09-25-11-15-38.219970
202	1	1	5	203	stable	8	200	3	vs	red	blue	red	blue	left	right	0.30000000000000004	0.7	4	2	1.2000000000000002	1.4	0	1	0.30000000000000004	0.7	4	2	1.2000000000000002	1.4	valid	0.36659429499923135	53248.0	0	1.0	2.0	53248	1	53248	1	51200	0	0.7	53248	blue	red	0	2	ml	2.7.2	bip	sub-01_ses-01_task-ml_proj-bip_2020-09-25-11-15-38.219970
203	1	1	5	204	stable	8	200	4	vs	red	blue	red	blue	left	right	0.30000000000000004	0.7	10	2	3.0000000000000004	1.4	1	0	0.30000000000000004	0.7	10	2	3.0000000000000004	1.4	invalid	0.5165470169995388	53248.0	0	1.0	2.0	51200	0	53248	1	51200	0	0.7	53248	blue	red	0	0	ml	2.7.2	bip	sub-01_ses-01_task-ml_proj-bip_2020-09-25-11-15-38.219970
204	1	1	5	205	stable	8	200	5	vs	blue	red	red	blue	right	left	0.30000000000000004	0.7	6	2	1.8000000000000005	1.4	0	1	0.7	0.30000000000000004	2	6	1.4	1.8000000000000005	valid	0.5165392770013568	51200.0	0	0.0	2.0	53248	0	51200	1	53248	0	0.7	51200	blue	red	0	2	ml	2.7.2	bip	sub-01_ses-01_task-ml_proj-bip_2020-09-25-11-15-38.219970
205	1	1	5	206	stable	8	200	6	vs	blue	red	red	blue	right	left	0.30000000000000004	0.7	4	6	1.2000000000000002	4.199999999999998	1	0	0.7	0.30000000000000004	6	4	4.199999999999998	1.2000000000000002	invalid	0.41656674800105975	51200.0	0	0.0	2.0	51200	1	51200	1	51200	1	0.7	51200	blue	red	1	0	ml	2.7.2	bip	sub-01_ses-01_task-ml_proj-bip_2020-09-25-11-15-38.219970
206	1	1	5	207	stable	8	200	7	vs	blue	red	red	blue	right	left	0.30000000000000004	0.7	4	6	1.2000000000000002	4.199999999999998	0	1	0.7	0.30000000000000004	6	4	4.199999999999998	1.2000000000000002	valid	1.5162490950006031	53248.0	0	1.0	1.0	51200	0	51200	0	51200	0	0.7	51200	blue	red	1	0	ml	2.7.2	bip	sub-01_ses-01_task-ml_proj-bip_2020-09-25-11-15-38.219970
207	1	1	5	208	stable	8	200	8	vs	red	blue	red	blue	left	right	0.30000000000000004	0.7	2	2	0.6000000000000001	1.4	0	1	0.30000000000000004	0.7	2	2	0.6000000000000001	1.4	valid	0.8831086240006698	53248.0	0	1.0	2.0	53248	1	53248	1	53248	1	0.7	53248	blue	red	0	2	ml	2.7.2	bip	sub-01_ses-01_task-ml_proj-bip_2020-09-25-11-15-38.219970
208	1	1	5	209	stable	8	200	9	vs	blue	red	red	blue	right	left	0.30000000000000004	0.7	4	6	1.2000000000000002	4.199999999999998	0	1	0.7	0.30000000000000004	6	4	4.199999999999998	1.2000000000000002	valid	0.9164109329994972	51200.0	0	0.0	2.0	51200	1	51200	1	51200	1	0.7	51200	blue	red	1	6	ml	2.7.2	bip	sub-01_ses-01_task-ml_proj-bip_2020-09-25-11-15-38.219970
209	1	1	5	210	stable	8	200	10	vs	red	blue	red	blue	left	right	0.30000000000000004	0.7	2	10	0.6000000000000001	7.0	0	1	0.30000000000000004	0.7	2	10	0.6000000000000001	7.0	valid	0.3499323830001231	53248.0	0	1.0	2.0	53248	1	53248	1	53248	1	0.7	53248	blue	red	1	10	ml	2.7.2	bip	sub-01_ses-01_task-ml_proj-bip_2020-09-25-11-15-38.219970
210	1	1	5	211	stable	8	200	11	vs	blue	red	red	blue	right	left	0.30000000000000004	0.7	10	2	3.0000000000000004	1.4	0	1	0.7	0.30000000000000004	2	10	1.4	3.0000000000000004	valid	0.3999074869989272	51200.0	0	0.0	2.0	53248	0	51200	1	53248	0	0.7	51200	blue	red	0	2	ml	2.7.2	bip	sub-01_ses-01_task-ml_proj-bip_2020-09-25-11-15-38.219970
211	1	1	5	212	stable	8	200	12	vs	blue	red	red	blue	right	left	0.30000000000000004	0.7	2	10	0.6000000000000001	7.0	0	1	0.7	0.30000000000000004	10	2	7.0	0.6000000000000001	valid	0.499876301999393	51200.0	0	0.0	2.0	51200	1	51200	1	51200	1	0.7	51200	blue	red	1	10	ml	2.7.2	bip	sub-01_ses-01_task-ml_proj-bip_2020-09-25-11-15-38.219970
212	1	1	5	213	stable	8	200	13	vs	red	blue	red	blue	left	right	0.30000000000000004	0.7	10	2	3.0000000000000004	1.4	0	1	0.30000000000000004	0.7	10	2	3.0000000000000004	1.4	valid	0.7331515469995793	53248.0	0	1.0	2.0	51200	0	53248	1	51200	0	0.7	53248	blue	red	0	2	ml	2.7.2	bip	sub-01_ses-01_task-ml_proj-bip_2020-09-25-11-15-38.219970
213	1	1	5	214	stable	8	200	14	vs	blue	red	red	blue	right	left	0.30000000000000004	0.7	2	6	0.6000000000000001	4.199999999999998	1	0	0.7	0.30000000000000004	6	2	4.199999999999998	0.6000000000000001	invalid	0.9997293409996928	51200.0	0	0.0	2.0	51200	1	51200	1	51200	1	0.7	51200	blue	red	1	0	ml	2.7.2	bip	sub-01_ses-01_task-ml_proj-bip_2020-09-25-11-15-38.219970
214	1	1	5	215	stable	8	200	15	vs	blue	red	red	blue	right	left	0.30000000000000004	0.7	4	6	1.2000000000000002	4.199999999999998	0	1	0.7	0.30000000000000004	6	4	4.199999999999998	1.2000000000000002	valid	0.41657621999911504	51200.0	0	0.0	2.0	51200	1	51200	1	51200	1	0.7	51200	blue	red	1	6	ml	2.7.2	bip	sub-01_ses-01_task-ml_proj-bip_2020-09-25-11-15-38.219970
215	1	1	5	216	stable	8	200	16	vs	red	blue	red	blue	left	right	0.30000000000000004	0.7	6	4	1.8000000000000005	2.8	0	1	0.30000000000000004	0.7	6	4	1.8000000000000005	2.8	valid	1.9827699249999569	53248.0	0	1.0	2.0	53248	1	53248	1	51200	0	0.7	53248	blue	red	0	4	ml	2.7.2	bip	sub-01_ses-01_task-ml_proj-bip_2020-09-25-11-15-38.219970
216	1	1	5	217	stable	8	200	17	vs	blue	red	red	blue	right	left	0.30000000000000004	0.7	10	2	3.0000000000000004	1.4	1	0	0.7	0.30000000000000004	2	10	1.4	3.0000000000000004	invalid	0.6498407769995538	53248.0	0	1.0	1.0	53248	1	51200	0	53248	1	0.7	51200	blue	red	0	10	ml	2.7.2	bip	sub-01_ses-01_task-ml_proj-bip_2020-09-25-11-15-38.219970
217	1	1	5	218	stable	8	200	18	vs	red	blue	red	blue	left	right	0.30000000000000004	0.7	10	2	3.0000000000000004	1.4	0	1	0.30000000000000004	0.7	10	2	3.0000000000000004	1.4	valid	0.4165702299997065	51200.0	0	0.0	1.0	51200	1	53248	0	51200	1	0.7	53248	blue	red	0	0	ml	2.7.2	bip	sub-01_ses-01_task-ml_proj-bip_2020-09-25-11-15-38.219970
218	1	1	5	219	stable	8	200	19	vs	blue	red	red	blue	right	left	0.30000000000000004	0.7	10	2	3.0000000000000004	1.4	1	0	0.7	0.30000000000000004	2	10	1.4	3.0000000000000004	invalid	0.6831686369987438	53248.0	0	1.0	1.0	53248	1	51200	0	53248	1	0.7	51200	blue	red	0	10	ml	2.7.2	bip	sub-01_ses-01_task-ml_proj-bip_2020-09-25-11-15-38.219970
219	1	1	5	220	stable	8	200	20	vs	blue	red	red	blue	right	left	0.30000000000000004	0.7	6	4	1.8000000000000005	2.8	0	1	0.7	0.30000000000000004	4	6	2.8	1.8000000000000005	valid	0.616518979999455	53248.0	0	1.0	1.0	51200	0	51200	0	53248	1	0.7	51200	blue	red	0	0	ml	2.7.2	bip	sub-01_ses-01_task-ml_proj-bip_2020-09-25-11-15-38.219970
220	1	1	5	221	stable	8	200	21	vs	blue	red	red	blue	right	left	0.30000000000000004	0.7	6	2	1.8000000000000005	1.4	1	0	0.7	0.30000000000000004	2	6	1.4	1.8000000000000005	invalid	0.3999083729995617	51200.0	0	0.0	2.0	53248	0	51200	1	53248	0	0.7	51200	blue	red	0	0	ml	2.7.2	bip	sub-01_ses-01_task-ml_proj-bip_2020-09-25-11-15-38.219970
221	1	1	5	222	stable	8	200	22	vs	blue	red	red	blue	right	left	0.30000000000000004	0.7	10	2	3.0000000000000004	1.4	1	0	0.7	0.30000000000000004	2	10	1.4	3.0000000000000004	invalid	0.5831918500007305	51200.0	0	0.0	2.0	53248	0	51200	1	53248	0	0.7	51200	blue	red	0	0	ml	2.7.2	bip	sub-01_ses-01_task-ml_proj-bip_2020-09-25-11-15-38.219970
222	1	1	5	223	stable	8	200	23	vs	blue	red	red	blue	right	left	0.30000000000000004	0.7	4	2	1.2000000000000002	1.4	1	0	0.7	0.30000000000000004	2	4	1.4	1.2000000000000002	invalid	0.4499088249995111	53248.0	0	1.0	1.0	51200	0	51200	0	53248	1	0.7	51200	blue	red	0	4	ml	2.7.2	bip	sub-01_ses-01_task-ml_proj-bip_2020-09-25-11-15-38.219970
223	1	1	5	224	stable	8	200	24	vs	blue	red	red	blue	right	left	0.30000000000000004	0.7	4	2	1.2000000000000002	1.4	0	1	0.7	0.30000000000000004	2	4	1.4	1.2000000000000002	valid	0.5831946340003924	53248.0	0	1.0	1.0	51200	0	51200	0	53248	1	0.7	51200	blue	red	0	0	ml	2.7.2	bip	sub-01_ses-01_task-ml_proj-bip_2020-09-25-11-15-38.219970
224	1	1	5	225	stable	8	200	25	vs	red	blue	red	blue	left	right	0.30000000000000004	0.7	2	10	0.6000000000000001	7.0	0	1	0.30000000000000004	0.7	2	10	0.6000000000000001	7.0	valid	0.9830748149997816	53248.0	0	1.0	2.0	53248	1	53248	1	53248	1	0.7	53248	blue	red	1	10	ml	2.7.2	bip	sub-01_ses-01_task-ml_proj-bip_2020-09-25-11-15-38.219970
225	1	1	5	226	stable	8	200	26	vs	red	blue	red	blue	left	right	0.30000000000000004	0.7	2	2	0.6000000000000001	1.4	1	0	0.30000000000000004	0.7	2	2	0.6000000000000001	1.4	invalid	0.7831224209985521	51200.0	0	0.0	1.0	53248	0	53248	0	53248	0	0.7	53248	blue	red	0	2	ml	2.7.2	bip	sub-01_ses-01_task-ml_proj-bip_2020-09-25-11-15-38.219970
226	1	1	5	227	stable	8	200	27	vs	blue	red	red	blue	right	left	0.30000000000000004	0.7	6	2	1.8000000000000005	1.4	0	1	0.7	0.30000000000000004	2	6	1.4	1.8000000000000005	valid	0.4665667610006494	53248.0	0	1.0	1.0	53248	1	51200	0	53248	1	0.7	51200	blue	red	0	0	ml	2.7.2	bip	sub-01_ses-01_task-ml_proj-bip_2020-09-25-11-15-38.219970
227	1	1	5	228	stable	8	200	28	vs	red	blue	red	blue	left	right	0.30000000000000004	0.7	4	6	1.2000000000000002	4.199999999999998	0	1	0.30000000000000004	0.7	4	6	1.2000000000000002	4.199999999999998	valid	0.4499031609993835	53248.0	0	1.0	2.0	53248	1	53248	1	53248	1	0.7	53248	blue	red	1	6	ml	2.7.2	bip	sub-01_ses-01_task-ml_proj-bip_2020-09-25-11-15-38.219970
228	1	1	5	229	stable	8	200	29	vs	blue	red	red	blue	right	left	0.30000000000000004	0.7	2	6	0.6000000000000001	4.199999999999998	0	1	0.7	0.30000000000000004	6	2	4.199999999999998	0.6000000000000001	valid	0.6831544739998208	51200.0	0	0.0	2.0	51200	1	51200	1	51200	1	0.7	51200	blue	red	1	6	ml	2.7.2	bip	sub-01_ses-01_task-ml_proj-bip_2020-09-25-11-15-38.219970
229	1	1	5	230	stable	8	200	30	vs	blue	red	red	blue	right	left	0.30000000000000004	0.7	6	6	1.8000000000000005	4.199999999999998	1	0	0.7	0.30000000000000004	6	6	4.199999999999998	1.8000000000000005	invalid	0.5831909699991229	51200.0	0	0.0	2.0	51200	1	51200	1	53248	0	0.7	51200	blue	red	1	0	ml	2.7.2	bip	sub-01_ses-01_task-ml_proj-bip_2020-09-25-11-15-38.219970
230	1	1	5	231	stable	8	200	31	vs	red	blue	red	blue	left	right	0.30000000000000004	0.7	6	6	1.8000000000000005	4.199999999999998	0	1	0.30000000000000004	0.7	6	6	1.8000000000000005	4.199999999999998	valid	0.3999138130002393	53248.0	0	1.0	2.0	53248	1	53248	1	53248	1	0.7	53248	blue	red	0	6	ml	2.7.2	bip	sub-01_ses-01_task-ml_proj-bip_2020-09-25-11-15-38.219970
231	1	1	5	232	stable	8	200	32	vs	blue	red	red	blue	right	left	0.30000000000000004	0.7	2	6	0.6000000000000001	4.199999999999998	0	1	0.7	0.30000000000000004	6	2	4.199999999999998	0.6000000000000001	valid	0.5331996629993228	51200.0	0	0.0	2.0	51200	1	51200	1	51200	1	0.7	51200	blue	red	1	6	ml	2.7.2	bip	sub-01_ses-01_task-ml_proj-bip_2020-09-25-11-15-38.219970
232	1	1	5	233	stable	8	200	33	vs	red	blue	red	blue	left	right	0.30000000000000004	0.7	2	6	0.6000000000000001	4.199999999999998	0	1	0.30000000000000004	0.7	2	6	0.6000000000000001	4.199999999999998	valid	0.5998594880002202	53248.0	0	1.0	2.0	53248	1	53248	1	53248	1	0.7	53248	blue	red	1	6	ml	2.7.2	bip	sub-01_ses-01_task-ml_proj-bip_2020-09-25-11-15-38.219970
233	1	1	5	234	stable	8	200	34	vs	red	blue	red	blue	left	right	0.30000000000000004	0.7	10	2	3.0000000000000004	1.4	0	1	0.30000000000000004	0.7	10	2	3.0000000000000004	1.4	valid	0.999728300001152	51200.0	0	0.0	1.0	51200	1	53248	0	51200	1	0.7	53248	blue	red	0	0	ml	2.7.2	bip	sub-01_ses-01_task-ml_proj-bip_2020-09-25-11-15-38.219970
234	1	1	5	235	stable	8	200	35	vs	red	blue	red	blue	left	right	0.30000000000000004	0.7	10	2	3.0000000000000004	1.4	0	1	0.30000000000000004	0.7	10	2	3.0000000000000004	1.4	valid	1.482923583000229	53248.0	0	1.0	2.0	51200	0	53248	1	51200	0	0.7	53248	blue	red	0	2	ml	2.7.2	bip	sub-01_ses-01_task-ml_proj-bip_2020-09-25-11-15-38.219970
235	1	1	5	236	stable	8	200	36	vs	red	blue	red	blue	left	right	0.30000000000000004	0.7	6	2	1.8000000000000005	1.4	0	1	0.30000000000000004	0.7	6	2	1.8000000000000005	1.4	valid	1.7828377929999988	53248.0	0	1.0	2.0	51200	0	53248	1	51200	0	0.7	53248	blue	red	0	2	ml	2.7.2	bip	sub-01_ses-01_task-ml_proj-bip_2020-09-25-11-15-38.219970
236	1	1	5	237	stable	8	200	37	vs	blue	red	red	blue	right	left	0.30000000000000004	0.7	4	2	1.2000000000000002	1.4	0	1	0.7	0.30000000000000004	2	4	1.4	1.2000000000000002	valid	1.466263946998879	53248.0	0	1.0	1.0	51200	0	51200	0	53248	1	0.7	51200	blue	red	0	0	ml	2.7.2	bip	sub-01_ses-01_task-ml_proj-bip_2020-09-25-11-15-38.219970
237	1	1	5	238	stable	8	200	38	vs	red	blue	red	blue	left	right	0.30000000000000004	0.7	6	6	1.8000000000000005	4.199999999999998	0	1	0.30000000000000004	0.7	6	6	1.8000000000000005	4.199999999999998	valid	0.8664495100001659	53248.0	0	1.0	2.0	53248	1	53248	1	53248	1	0.7	53248	blue	red	0	6	ml	2.7.2	bip	sub-01_ses-01_task-ml_proj-bip_2020-09-25-11-15-38.219970
238	1	1	5	239	stable	8	200	39	vs	blue	red	red	blue	right	left	0.30000000000000004	0.7	2	2	0.6000000000000001	1.4	0	1	0.7	0.30000000000000004	2	2	1.4	0.6000000000000001	valid	0.39989987699846097	51200.0	0	0.0	2.0	51200	1	51200	1	53248	0	0.7	51200	blue	red	1	2	ml	2.7.2	bip	sub-01_ses-01_task-ml_proj-bip_2020-09-25-11-15-38.219970
239	1	1	5	240	stable	8	200	40	vs	blue	red	red	blue	right	left	0.30000000000000004	0.7	2	2	0.6000000000000001	1.4	0	1	0.7	0.30000000000000004	2	2	1.4	0.6000000000000001	valid	1.8661335320011856	51200.0	0	0.0	2.0	51200	1	51200	1	53248	0	0.7	51200	blue	red	1	2	ml	2.7.2	bip	sub-01_ses-01_task-ml_proj-bip_2020-09-25-11-15-38.219970
240	1	1	5	241	stable	8	200	41	vs	red	blue	red	blue	left	right	0.30000000000000004	0.7	4	2	1.2000000000000002	1.4	0	1	0.30000000000000004	0.7	4	2	1.2000000000000002	1.4	valid	0.6498339789995953	51200.0	0	0.0	1.0	53248	0	53248	0	51200	1	0.7	53248	blue	red	0	0	ml	2.7.2	bip	sub-01_ses-01_task-ml_proj-bip_2020-09-25-11-15-38.219970
241	1	1	5	242	stable	8	200	42	vs	red	blue	red	blue	left	right	0.30000000000000004	0.7	4	2	1.2000000000000002	1.4	1	0	0.30000000000000004	0.7	4	2	1.2000000000000002	1.4	invalid	0.39991847499913996	53248.0	0	1.0	2.0	53248	1	53248	1	51200	0	0.7	53248	blue	red	0	0	ml	2.7.2	bip	sub-01_ses-01_task-ml_proj-bip_2020-09-25-11-15-38.219970
242	1	1	5	243	stable	8	200	43	vs	blue	red	red	blue	right	left	0.30000000000000004	0.7	6	6	1.8000000000000005	4.199999999999998	0	1	0.7	0.30000000000000004	6	6	4.199999999999998	1.8000000000000005	valid	1.349622427000213	51200.0	0	0.0	2.0	51200	1	51200	1	53248	0	0.7	51200	blue	red	1	6	ml	2.7.2	bip	sub-01_ses-01_task-ml_proj-bip_2020-09-25-11-15-38.219970
243	1	1	5	244	stable	8	200	44	vs	red	blue	red	blue	left	right	0.30000000000000004	0.7	10	2	3.0000000000000004	1.4	0	1	0.30000000000000004	0.7	10	2	3.0000000000000004	1.4	valid	0.7997949450000306	51200.0	0	0.0	1.0	51200	1	53248	0	51200	1	0.7	53248	blue	red	0	0	ml	2.7.2	bip	sub-01_ses-01_task-ml_proj-bip_2020-09-25-11-15-38.219970
244	1	1	5	245	stable	8	200	45	vs	blue	red	red	blue	right	left	0.30000000000000004	0.7	10	2	3.0000000000000004	1.4	0	1	0.7	0.30000000000000004	2	10	1.4	3.0000000000000004	valid	0.5498553960005665	51200.0	0	0.0	2.0	53248	0	51200	1	53248	0	0.7	51200	blue	red	0	2	ml	2.7.2	bip	sub-01_ses-01_task-ml_proj-bip_2020-09-25-11-15-38.219970
245	1	1	5	246	stable	8	200	46	vs	red	blue	red	blue	left	right	0.30000000000000004	0.7	6	2	1.8000000000000005	1.4	0	1	0.30000000000000004	0.7	6	2	1.8000000000000005	1.4	valid	0.41659068500121066	53248.0	0	1.0	2.0	51200	0	53248	1	51200	0	0.7	53248	blue	red	0	2	ml	2.7.2	bip	sub-01_ses-01_task-ml_proj-bip_2020-09-25-11-15-38.219970
246	1	1	5	247	stable	8	200	47	vs	blue	red	red	blue	right	left	0.30000000000000004	0.7	6	2	1.8000000000000005	1.4	1	0	0.7	0.30000000000000004	2	6	1.4	1.8000000000000005	invalid	0.3665819279995048	51200.0	0	0.0	2.0	53248	0	51200	1	53248	0	0.7	51200	blue	red	0	0	ml	2.7.2	bip	sub-01_ses-01_task-ml_proj-bip_2020-09-25-11-15-38.219970
247	1	1	5	248	stable	8	200	48	vs	red	blue	red	blue	left	right	0.30000000000000004	0.7	6	2	1.8000000000000005	1.4	0	1	0.30000000000000004	0.7	6	2	1.8000000000000005	1.4	valid	0.4165785579989461	53248.0	0	1.0	2.0	51200	0	53248	1	51200	0	0.7	53248	blue	red	0	2	ml	2.7.2	bip	sub-01_ses-01_task-ml_proj-bip_2020-09-25-11-15-38.219970
248	1	1	5	249	stable	8	200	49	vs	blue	red	red	blue	right	left	0.30000000000000004	0.7	2	10	0.6000000000000001	7.0	0	1	0.7	0.30000000000000004	10	2	7.0	0.6000000000000001	valid	0.4832115669996711	51200.0	0	0.0	2.0	51200	1	51200	1	51200	1	0.7	51200	blue	red	1	10	ml	2.7.2	bip	sub-01_ses-01_task-ml_proj-bip_2020-09-25-11-15-38.219970
249	1	1	5	250	stable	8	200	50	vs	red	blue	red	blue	left	right	0.30000000000000004	0.7	6	6	1.8000000000000005	4.199999999999998	0	1	0.30000000000000004	0.7	6	6	1.8000000000000005	4.199999999999998	valid	0.4165807879999193	53248.0	0	1.0	2.0	53248	1	53248	1	53248	1	0.7	53248	blue	red	0	6	ml	2.7.2	bip	sub-01_ses-01_task-ml_proj-bip_2020-09-25-11-15-38.219970
250	1	1	6	251	stable	8	200	51	vs	blue	red	red	blue	right	left	0.30000000000000004	0.7	6	2	1.8000000000000005	1.4	0	1	0.7	0.30000000000000004	2	6	1.4	1.8000000000000005	valid	0.5498695690002933	53248.0	0	1.0	1.0	53248	1	51200	0	53248	1	0.7	51200	blue	red	0	0	ml	2.7.2	bip	sub-01_ses-01_task-ml_proj-bip_2020-09-25-11-15-38.219970
251	1	1	6	252	stable	8	200	52	vs	blue	red	red	blue	right	left	0.30000000000000004	0.7	2	2	0.6000000000000001	1.4	0	1	0.7	0.30000000000000004	2	2	1.4	0.6000000000000001	valid	0.34992381800111616	51200.0	0	0.0	2.0	51200	1	51200	1	53248	0	0.7	51200	blue	red	1	2	ml	2.7.2	bip	sub-01_ses-01_task-ml_proj-bip_2020-09-25-11-15-38.219970
252	1	1	6	253	stable	8	200	53	vs	red	blue	red	blue	left	right	0.30000000000000004	0.7	10	2	3.0000000000000004	1.4	0	1	0.30000000000000004	0.7	10	2	3.0000000000000004	1.4	valid	0.38325497299956623	53248.0	0	1.0	2.0	51200	0	53248	1	51200	0	0.7	53248	blue	red	0	2	ml	2.7.2	bip	sub-01_ses-01_task-ml_proj-bip_2020-09-25-11-15-38.219970
253	1	1	6	254	stable	8	200	54	vs	red	blue	red	blue	left	right	0.30000000000000004	0.7	2	6	0.6000000000000001	4.199999999999998	0	1	0.30000000000000004	0.7	2	6	0.6000000000000001	4.199999999999998	valid	0.7164918340004078	53248.0	0	1.0	2.0	53248	1	53248	1	53248	1	0.7	53248	blue	red	1	6	ml	2.7.2	bip	sub-01_ses-01_task-ml_proj-bip_2020-09-25-11-15-38.219970
254	1	1	6	255	stable	8	200	55	vs	blue	red	red	blue	right	left	0.30000000000000004	0.7	4	2	1.2000000000000002	1.4	0	1	0.7	0.30000000000000004	2	4	1.4	1.2000000000000002	valid	0.4498923339997418	51200.0	0	0.0	2.0	51200	1	51200	1	53248	0	0.7	51200	blue	red	0	2	ml	2.7.2	bip	sub-01_ses-01_task-ml_proj-bip_2020-09-25-11-15-38.219970
255	1	1	6	256	stable	8	200	56	vs	red	blue	red	blue	left	right	0.30000000000000004	0.7	6	4	1.8000000000000005	2.8	0	1	0.30000000000000004	0.7	6	4	1.8000000000000005	2.8	valid	0.3832574089992704	53248.0	0	1.0	2.0	53248	1	53248	1	51200	0	0.7	53248	blue	red	0	4	ml	2.7.2	bip	sub-01_ses-01_task-ml_proj-bip_2020-09-25-11-15-38.219970
256	1	1	6	257	stable	8	200	57	vs	blue	red	red	blue	right	left	0.30000000000000004	0.7	6	6	1.8000000000000005	4.199999999999998	0	1	0.7	0.30000000000000004	6	6	4.199999999999998	1.8000000000000005	valid	1.1496813189987731	51200.0	0	0.0	2.0	51200	1	51200	1	53248	0	0.7	51200	blue	red	1	6	ml	2.7.2	bip	sub-01_ses-01_task-ml_proj-bip_2020-09-25-11-15-38.219970
257	1	1	6	258	stable	8	200	58	vs	red	blue	red	blue	left	right	0.30000000000000004	0.7	6	6	1.8000000000000005	4.199999999999998	1	0	0.30000000000000004	0.7	6	6	1.8000000000000005	4.199999999999998	invalid	0.5332126920002338	53248.0	0	1.0	2.0	53248	1	53248	1	53248	1	0.7	53248	blue	red	0	0	ml	2.7.2	bip	sub-01_ses-01_task-ml_proj-bip_2020-09-25-11-15-38.219970
258	1	1	6	259	stable	8	200	59	vs	blue	red	red	blue	right	left	0.30000000000000004	0.7	2	6	0.6000000000000001	4.199999999999998	0	1	0.7	0.30000000000000004	6	2	4.199999999999998	0.6000000000000001	valid	0.05002504299955035	51200.0	0	0.0	2.0	51200	1	51200	1	51200	1	0.7	51200	blue	red	1	6	ml	2.7.2	bip	sub-01_ses-01_task-ml_proj-bip_2020-09-25-11-15-38.219970
259	1	1	6	260	stable	8	200	60	vs	red	blue	red	blue	left	right	0.30000000000000004	0.7	4	2	1.2000000000000002	1.4	0	1	0.30000000000000004	0.7	4	2	1.2000000000000002	1.4	valid	0.38326183299977856	53248.0	0	1.0	2.0	53248	1	53248	1	51200	0	0.7	53248	blue	red	0	2	ml	2.7.2	bip	sub-01_ses-01_task-ml_proj-bip_2020-09-25-11-15-38.219970
260	1	1	6	261	stable	8	200	61	vs	red	blue	red	blue	left	right	0.30000000000000004	0.7	6	4	1.8000000000000005	2.8	0	1	0.30000000000000004	0.7	6	4	1.8000000000000005	2.8	valid	2.4159726729994877	53248.0	0	1.0	2.0	53248	1	53248	1	51200	0	0.7	53248	blue	red	0	4	ml	2.7.2	bip	sub-01_ses-01_task-ml_proj-bip_2020-09-25-11-15-38.219970
261	1	1	6	262	stable	8	200	62	vs	red	blue	red	blue	left	right	0.30000000000000004	0.7	4	6	1.2000000000000002	4.199999999999998	0	1	0.30000000000000004	0.7	4	6	1.2000000000000002	4.199999999999998	valid	0.3999194160005573	53248.0	0	1.0	2.0	53248	1	53248	1	53248	1	0.7	53248	blue	red	1	6	ml	2.7.2	bip	sub-01_ses-01_task-ml_proj-bip_2020-09-25-11-15-38.219970
262	1	1	6	263	stable	8	200	63	vs	blue	red	red	blue	right	left	0.30000000000000004	0.7	6	6	1.8000000000000005	4.199999999999998	1	0	0.7	0.30000000000000004	6	6	4.199999999999998	1.8000000000000005	invalid	1.9494524889996685	53248.0	0	1.0	1.0	51200	0	51200	0	53248	1	0.7	51200	blue	red	1	6	ml	2.7.2	bip	sub-01_ses-01_task-ml_proj-bip_2020-09-25-11-15-38.219970
263	1	1	6	264	stable	8	200	64	vs	blue	red	red	blue	right	left	0.30000000000000004	0.7	2	2	0.6000000000000001	1.4	0	1	0.7	0.30000000000000004	2	2	1.4	0.6000000000000001	valid	0.4832340680004563	53248.0	0	1.0	1.0	51200	0	51200	0	53248	1	0.7	51200	blue	red	1	0	ml	2.7.2	bip	sub-01_ses-01_task-ml_proj-bip_2020-09-25-11-15-38.219970
264	1	1	6	265	stable	8	200	65	vs	blue	red	red	blue	right	left	0.30000000000000004	0.7	2	4	0.6000000000000001	2.8	0	1	0.7	0.30000000000000004	4	2	2.8	0.6000000000000001	valid	0.3832427690012992	51200.0	0	0.0	2.0	51200	1	51200	1	51200	1	0.7	51200	blue	red	1	4	ml	2.7.2	bip	sub-01_ses-01_task-ml_proj-bip_2020-09-25-11-15-38.219970
265	1	1	6	266	stable	8	200	66	vs	red	blue	red	blue	left	right	0.30000000000000004	0.7	2	4	0.6000000000000001	2.8	0	1	0.30000000000000004	0.7	2	4	0.6000000000000001	2.8	valid	0.8664370269998471	53248.0	0	1.0	2.0	53248	1	53248	1	53248	1	0.7	53248	blue	red	1	4	ml	2.7.2	bip	sub-01_ses-01_task-ml_proj-bip_2020-09-25-11-15-38.219970
266	1	1	6	267	stable	8	200	67	vs	red	blue	red	blue	left	right	0.30000000000000004	0.7	6	2	1.8000000000000005	1.4	1	0	0.30000000000000004	0.7	6	2	1.8000000000000005	1.4	invalid	0.5831948800005193	53248.0	0	1.0	2.0	51200	0	53248	1	51200	0	0.7	53248	blue	red	0	0	ml	2.7.2	bip	sub-01_ses-01_task-ml_proj-bip_2020-09-25-11-15-38.219970
267	1	1	6	268	stable	8	200	68	vs	blue	red	red	blue	right	left	0.30000000000000004	0.7	6	4	1.8000000000000005	2.8	0	1	0.7	0.30000000000000004	4	6	2.8	1.8000000000000005	valid	2.899202831000366	53248.0	0	1.0	1.0	51200	0	51200	0	53248	1	0.7	51200	blue	red	0	0	ml	2.7.2	bip	sub-01_ses-01_task-ml_proj-bip_2020-09-25-11-15-38.219970
268	1	1	6	269	stable	8	200	69	vs	blue	red	red	blue	right	left	0.30000000000000004	0.7	6	2	1.8000000000000005	1.4	0	1	0.7	0.30000000000000004	2	6	1.4	1.8000000000000005	valid	0.6665096249998896	53248.0	0	1.0	1.0	53248	1	51200	0	53248	1	0.7	51200	blue	red	0	0	ml	2.7.2	bip	sub-01_ses-01_task-ml_proj-bip_2020-09-25-11-15-38.219970
269	1	1	6	270	stable	8	200	70	vs	red	blue	red	blue	left	right	0.30000000000000004	0.7	6	4	1.8000000000000005	2.8	0	1	0.30000000000000004	0.7	6	4	1.8000000000000005	2.8	valid	0.4498914449995937	51200.0	0	0.0	1.0	53248	0	53248	0	51200	1	0.7	53248	blue	red	0	0	ml	2.7.2	bip	sub-01_ses-01_task-ml_proj-bip_2020-09-25-11-15-38.219970
270	1	1	6	271	stable	8	200	71	vs	blue	red	red	blue	right	left	0.30000000000000004	0.7	6	6	1.8000000000000005	4.199999999999998	0	1	0.7	0.30000000000000004	6	6	4.199999999999998	1.8000000000000005	valid	0.43322725299913145	51200.0	0	0.0	2.0	51200	1	51200	1	53248	0	0.7	51200	blue	red	1	6	ml	2.7.2	bip	sub-01_ses-01_task-ml_proj-bip_2020-09-25-11-15-38.219970
271	1	1	6	272	stable	8	200	72	vs	red	blue	red	blue	left	right	0.30000000000000004	0.7	6	2	1.8000000000000005	1.4	0	1	0.30000000000000004	0.7	6	2	1.8000000000000005	1.4	valid	0.6165203580003435	53248.0	0	1.0	2.0	51200	0	53248	1	51200	0	0.7	53248	blue	red	0	2	ml	2.7.2	bip	sub-01_ses-01_task-ml_proj-bip_2020-09-25-11-15-38.219970
272	1	1	6	273	stable	8	200	73	vs	red	blue	red	blue	left	right	0.30000000000000004	0.7	4	2	1.2000000000000002	1.4	1	0	0.30000000000000004	0.7	4	2	1.2000000000000002	1.4	invalid	0.5332093190008891	53248.0	0	1.0	2.0	53248	1	53248	1	51200	0	0.7	53248	blue	red	0	0	ml	2.7.2	bip	sub-01_ses-01_task-ml_proj-bip_2020-09-25-11-15-38.219970
273	1	1	6	274	stable	8	200	74	vs	blue	red	red	blue	right	left	0.30000000000000004	0.7	4	6	1.2000000000000002	4.199999999999998	1	0	0.7	0.30000000000000004	6	4	4.199999999999998	1.2000000000000002	invalid	0.366579826000816	51200.0	0	0.0	2.0	51200	1	51200	1	51200	1	0.7	51200	blue	red	1	0	ml	2.7.2	bip	sub-01_ses-01_task-ml_proj-bip_2020-09-25-11-15-38.219970
274	1	1	6	275	stable	8	200	75	vs	blue	red	red	blue	right	left	0.30000000000000004	0.7	4	6	1.2000000000000002	4.199999999999998	1	0	0.7	0.30000000000000004	6	4	4.199999999999998	1.2000000000000002	invalid	0.3832525400011946	53248.0	0	1.0	1.0	51200	0	51200	0	51200	0	0.7	51200	blue	red	1	4	ml	2.7.2	bip	sub-01_ses-01_task-ml_proj-bip_2020-09-25-11-15-38.219970
275	1	1	6	276	stable	8	200	76	vs	blue	red	red	blue	right	left	0.30000000000000004	0.7	10	2	3.0000000000000004	1.4	0	1	0.7	0.30000000000000004	2	10	1.4	3.0000000000000004	valid	0.3665898199997173	53248.0	0	1.0	1.0	53248	1	51200	0	53248	1	0.7	51200	blue	red	0	0	ml	2.7.2	bip	sub-01_ses-01_task-ml_proj-bip_2020-09-25-11-15-38.219970
276	1	1	6	277	stable	8	200	77	vs	red	blue	red	blue	left	right	0.30000000000000004	0.7	2	6	0.6000000000000001	4.199999999999998	0	1	0.30000000000000004	0.7	2	6	0.6000000000000001	4.199999999999998	valid	0.5498591649993614	51200.0	0	0.0	1.0	53248	0	53248	0	53248	0	0.7	53248	blue	red	1	0	ml	2.7.2	bip	sub-01_ses-01_task-ml_proj-bip_2020-09-25-11-15-38.219970
277	1	1	6	278	stable	8	200	78	vs	red	blue	red	blue	left	right	0.30000000000000004	0.7	2	4	0.6000000000000001	2.8	0	1	0.30000000000000004	0.7	2	4	0.6000000000000001	2.8	valid	0.3832425340006012	51200.0	0	0.0	1.0	53248	0	53248	0	53248	0	0.7	53248	blue	red	1	0	ml	2.7.2	bip	sub-01_ses-01_task-ml_proj-bip_2020-09-25-11-15-38.219970
278	1	1	6	279	stable	8	200	79	vs	red	blue	red	blue	left	right	0.30000000000000004	0.7	6	6	1.8000000000000005	4.199999999999998	0	1	0.30000000000000004	0.7	6	6	1.8000000000000005	4.199999999999998	valid	0.3832565590000741	53248.0	0	1.0	2.0	53248	1	53248	1	53248	1	0.7	53248	blue	red	0	6	ml	2.7.2	bip	sub-01_ses-01_task-ml_proj-bip_2020-09-25-11-15-38.219970
279	1	1	6	280	stable	8	200	80	vs	red	blue	red	blue	left	right	0.30000000000000004	0.7	6	4	1.8000000000000005	2.8	1	0	0.30000000000000004	0.7	6	4	1.8000000000000005	2.8	invalid	0.3832539480008563	53248.0	0	1.0	2.0	53248	1	53248	1	51200	0	0.7	53248	blue	red	0	0	ml	2.7.2	bip	sub-01_ses-01_task-ml_proj-bip_2020-09-25-11-15-38.219970
280	1	1	6	281	stable	8	200	81	vs	red	blue	red	blue	left	right	0.30000000000000004	0.7	4	2	1.2000000000000002	1.4	0	1	0.30000000000000004	0.7	4	2	1.2000000000000002	1.4	valid	1.1496955020011228	53248.0	0	1.0	2.0	53248	1	53248	1	51200	0	0.7	53248	blue	red	0	2	ml	2.7.2	bip	sub-01_ses-01_task-ml_proj-bip_2020-09-25-11-15-38.219970
281	1	1	6	282	stable	8	200	82	vs	blue	red	red	blue	right	left	0.30000000000000004	0.7	4	6	1.2000000000000002	4.199999999999998	1	0	0.7	0.30000000000000004	6	4	4.199999999999998	1.2000000000000002	invalid	0.499878737000472	51200.0	0	0.0	2.0	51200	1	51200	1	51200	1	0.7	51200	blue	red	1	0	ml	2.7.2	bip	sub-01_ses-01_task-ml_proj-bip_2020-09-25-11-15-38.219970
282	1	1	6	283	stable	8	200	83	vs	red	blue	red	blue	left	right	0.30000000000000004	0.7	6	6	1.8000000000000005	4.199999999999998	1	0	0.30000000000000004	0.7	6	6	1.8000000000000005	4.199999999999998	invalid	0.3999159390004934	53248.0	0	1.0	2.0	53248	1	53248	1	53248	1	0.7	53248	blue	red	0	0	ml	2.7.2	bip	sub-01_ses-01_task-ml_proj-bip_2020-09-25-11-15-38.219970
283	1	1	6	284	stable	8	200	84	vs	blue	red	red	blue	right	left	0.30000000000000004	0.7	6	4	1.8000000000000005	2.8	1	0	0.7	0.30000000000000004	4	6	2.8	1.8000000000000005	invalid	1.5328993500006618	51200.0	0	0.0	2.0	51200	1	51200	1	53248	0	0.7	51200	blue	red	0	0	ml	2.7.2	bip	sub-01_ses-01_task-ml_proj-bip_2020-09-25-11-15-38.219970
284	1	1	6	285	stable	8	200	85	vs	red	blue	red	blue	left	right	0.30000000000000004	0.7	2	2	0.6000000000000001	1.4	1	0	0.30000000000000004	0.7	2	2	0.6000000000000001	1.4	invalid	0.3499226690000796	51200.0	0	0.0	1.0	53248	0	53248	0	53248	0	0.7	53248	blue	red	0	2	ml	2.7.2	bip	sub-01_ses-01_task-ml_proj-bip_2020-09-25-11-15-38.219970
285	1	1	6	286	stable	8	200	86	vs	blue	red	red	blue	right	left	0.30000000000000004	0.7	6	4	1.8000000000000005	2.8	0	1	0.7	0.30000000000000004	4	6	2.8	1.8000000000000005	valid	0.3832626330004132	53248.0	0	1.0	1.0	51200	0	51200	0	53248	1	0.7	51200	blue	red	0	0	ml	2.7.2	bip	sub-01_ses-01_task-ml_proj-bip_2020-09-25-11-15-38.219970
286	1	1	6	287	stable	8	200	87	vs	blue	red	red	blue	right	left	0.30000000000000004	0.7	2	6	0.6000000000000001	4.199999999999998	0	1	0.7	0.30000000000000004	6	2	4.199999999999998	0.6000000000000001	valid	1.4662747279999166	53248.0	0	1.0	1.0	51200	0	51200	0	51200	0	0.7	51200	blue	red	1	0	ml	2.7.2	bip	sub-01_ses-01_task-ml_proj-bip_2020-09-25-11-15-38.219970
287	1	1	6	288	stable	8	200	88	vs	red	blue	red	blue	left	right	0.30000000000000004	0.7	10	2	3.0000000000000004	1.4	0	1	0.30000000000000004	0.7	10	2	3.0000000000000004	1.4	valid	0.6331753560007201	53248.0	0	1.0	2.0	51200	0	53248	1	51200	0	0.7	53248	blue	red	0	2	ml	2.7.2	bip	sub-01_ses-01_task-ml_proj-bip_2020-09-25-11-15-38.219970
288	1	1	6	289	stable	8	200	89	vs	blue	red	red	blue	right	left	0.30000000000000004	0.7	2	2	0.6000000000000001	1.4	1	0	0.7	0.30000000000000004	2	2	1.4	0.6000000000000001	invalid	0.3832459029999882	51200.0	0	0.0	2.0	51200	1	51200	1	53248	0	0.7	51200	blue	red	1	0	ml	2.7.2	bip	sub-01_ses-01_task-ml_proj-bip_2020-09-25-11-15-38.219970
289	1	1	6	290	stable	8	200	90	vs	red	blue	red	blue	left	right	0.30000000000000004	0.7	6	4	1.8000000000000005	2.8	0	1	0.30000000000000004	0.7	6	4	1.8000000000000005	2.8	valid	0.4499033060001239	53248.0	0	1.0	2.0	53248	1	53248	1	51200	0	0.7	53248	blue	red	0	4	ml	2.7.2	bip	sub-01_ses-01_task-ml_proj-bip_2020-09-25-11-15-38.219970
290	1	1	6	291	stable	8	200	91	vs	blue	red	red	blue	right	left	0.30000000000000004	0.7	6	6	1.8000000000000005	4.199999999999998	0	1	0.7	0.30000000000000004	6	6	4.199999999999998	1.8000000000000005	valid	1.0830349120005849	51200.0	0	0.0	2.0	51200	1	51200	1	53248	0	0.7	51200	blue	red	1	6	ml	2.7.2	bip	sub-01_ses-01_task-ml_proj-bip_2020-09-25-11-15-38.219970
291	1	1	6	292	stable	8	200	92	vs	red	blue	red	blue	left	right	0.30000000000000004	0.7	2	4	0.6000000000000001	2.8	0	1	0.30000000000000004	0.7	2	4	0.6000000000000001	2.8	valid	0.5665364550004597	53248.0	0	1.0	2.0	53248	1	53248	1	53248	1	0.7	53248	blue	red	1	4	ml	2.7.2	bip	sub-01_ses-01_task-ml_proj-bip_2020-09-25-11-15-38.219970
292	1	1	6	293	stable	8	200	93	vs	red	blue	red	blue	left	right	0.30000000000000004	0.7	2	6	0.6000000000000001	4.199999999999998	1	0	0.30000000000000004	0.7	2	6	0.6000000000000001	4.199999999999998	invalid	2.982470356999329	nan	1	nan	nan	53248	0	53248	0	53248	0	0.7	53248	blue	red	1	0	ml	2.7.2	bip	sub-01_ses-01_task-ml_proj-bip_2020-09-25-11-15-38.219970
