Unnamed: 0	sub_id	ses_id	block_no	trial_no	phase_type	phase_no	phase_length	trialInPhase_no	phase_type_order	color_left	color_right	color1	color2	position1	position2	prob1	prob2	mag1	mag2	ev1	ev2	outcome1	outcome2	prob_left	prob_right	mag_left	mag_right	ev_left	ev_right	reward_validity	resp_time	resp_key	timeout	choice_side	choice	ev_corr_resp	ev_correct	prob_corr_resp	prob_correct	mag_corr_resp	mag_correct	high_prob	high_prob_side	high_prob_color	low_prob_color	no_brain	reward	name	version	proj_id	logFileID
0	13	2	1	1	volatile	1	40	1	vs	turquoise	purple	purple	turquoise	right	left	0.7	0.30000000000000004	4	6	2.8	1.8000000000000005	1	0	0.30000000000000004	0.7	6	4	1.8000000000000005	2.8	valid	1.2330110729999433	51200	0	0	2	53248	0	53248	0	51200	1	0.7	53248	purple	turquoise	0	0	ml	2.7.3	bip	sub-13_ses-02_task-ml_proj-bip_2021-01-20-10-20-42.861109
1	13	2	1	2	volatile	1	40	2	vs	turquoise	purple	purple	turquoise	right	left	0.7	0.30000000000000004	4	2	2.8	0.6000000000000001	1	0	0.30000000000000004	0.7	2	4	0.6000000000000001	2.8	valid	0.6498503279999568	53248	0	1	1	53248	1	53248	1	53248	1	0.7	53248	purple	turquoise	1	4	ml	2.7.3	bip	sub-13_ses-02_task-ml_proj-bip_2021-01-20-10-20-42.861109
2	13	2	1	3	volatile	1	40	3	vs	turquoise	purple	purple	turquoise	right	left	0.7	0.30000000000000004	2	6	1.4	1.8000000000000005	1	0	0.30000000000000004	0.7	6	2	1.8000000000000005	1.4	valid	0.7664981119996809	51200	0	0	2	51200	1	53248	0	51200	1	0.7	53248	purple	turquoise	0	0	ml	2.7.3	bip	sub-13_ses-02_task-ml_proj-bip_2021-01-20-10-20-42.861109
3	13	2	1	4	volatile	1	40	4	vs	purple	turquoise	purple	turquoise	left	right	0.7	0.30000000000000004	4	6	2.8	1.8000000000000005	1	0	0.7	0.30000000000000004	4	6	2.8	1.8000000000000005	valid	0.7997935120001785	51200	0	0	1	51200	1	51200	1	53248	0	0.7	51200	purple	turquoise	0	4	ml	2.7.3	bip	sub-13_ses-02_task-ml_proj-bip_2021-01-20-10-20-42.861109
4	13	2	1	5	volatile	1	40	5	vs	turquoise	purple	purple	turquoise	right	left	0.7	0.30000000000000004	2	4	1.4	1.2000000000000002	1	0	0.30000000000000004	0.7	4	2	1.2000000000000002	1.4	valid	0.6665124499995727	53248	0	1	1	53248	1	53248	1	51200	0	0.7	53248	purple	turquoise	0	2	ml	2.7.3	bip	sub-13_ses-02_task-ml_proj-bip_2021-01-20-10-20-42.861109
5	13	2	1	6	volatile	1	40	6	vs	purple	turquoise	purple	turquoise	left	right	0.7	0.30000000000000004	10	2	7.0	0.6000000000000001	1	0	0.7	0.30000000000000004	10	2	7.0	0.6000000000000001	valid	0.48322921900034993	51200	0	0	1	51200	1	51200	1	51200	1	0.7	51200	purple	turquoise	1	10	ml	2.7.3	bip	sub-13_ses-02_task-ml_proj-bip_2021-01-20-10-20-42.861109
6	13	2	1	7	volatile	1	40	7	vs	turquoise	purple	purple	turquoise	right	left	0.7	0.30000000000000004	10	2	7.0	0.6000000000000001	0	1	0.30000000000000004	0.7	2	10	0.6000000000000001	7.0	invalid	0.5498768950001249	53248	0	1	1	53248	1	53248	1	53248	1	0.7	53248	purple	turquoise	1	0	ml	2.7.3	bip	sub-13_ses-02_task-ml_proj-bip_2021-01-20-10-20-42.861109
7	13	2	1	8	volatile	1	40	8	vs	purple	turquoise	purple	turquoise	left	right	0.7	0.30000000000000004	2	4	1.4	1.2000000000000002	1	0	0.7	0.30000000000000004	2	4	1.4	1.2000000000000002	valid	0.5498681459994259	51200	0	0	1	51200	1	51200	1	53248	0	0.7	51200	purple	turquoise	0	2	ml	2.7.3	bip	sub-13_ses-02_task-ml_proj-bip_2021-01-20-10-20-42.861109
8	13	2	1	9	volatile	1	40	9	vs	purple	turquoise	purple	turquoise	left	right	0.7	0.30000000000000004	6	2	4.199999999999998	0.6000000000000001	1	0	0.7	0.30000000000000004	6	2	4.199999999999998	0.6000000000000001	valid	0.4832237910013646	51200	0	0	1	51200	1	51200	1	51200	1	0.7	51200	purple	turquoise	1	6	ml	2.7.3	bip	sub-13_ses-02_task-ml_proj-bip_2021-01-20-10-20-42.861109
9	13	2	1	10	volatile	1	40	10	vs	turquoise	purple	purple	turquoise	right	left	0.7	0.30000000000000004	2	10	1.4	3.0000000000000004	1	0	0.30000000000000004	0.7	10	2	3.0000000000000004	1.4	valid	0.8997654590002641	51200	0	0	2	51200	1	53248	0	51200	1	0.7	53248	purple	turquoise	0	0	ml	2.7.3	bip	sub-13_ses-02_task-ml_proj-bip_2021-01-20-10-20-42.861109
10	13	2	1	11	volatile	1	40	11	vs	turquoise	purple	purple	turquoise	right	left	0.7	0.30000000000000004	4	6	2.8	1.8000000000000005	1	0	0.30000000000000004	0.7	6	4	1.8000000000000005	2.8	valid	0.9997546180002246	53248	0	1	1	53248	1	53248	1	51200	0	0.7	53248	purple	turquoise	0	4	ml	2.7.3	bip	sub-13_ses-02_task-ml_proj-bip_2021-01-20-10-20-42.861109
11	13	2	1	12	volatile	1	40	12	vs	purple	turquoise	purple	turquoise	left	right	0.7	0.30000000000000004	2	6	1.4	1.8000000000000005	1	0	0.7	0.30000000000000004	2	6	1.4	1.8000000000000005	valid	0.6331702030001907	51200	0	0	1	53248	0	51200	1	53248	0	0.7	51200	purple	turquoise	0	2	ml	2.7.3	bip	sub-13_ses-02_task-ml_proj-bip_2021-01-20-10-20-42.861109
12	13	2	1	13	volatile	1	40	13	vs	turquoise	purple	purple	turquoise	right	left	0.7	0.30000000000000004	2	2	1.4	0.6000000000000001	0	1	0.30000000000000004	0.7	2	2	0.6000000000000001	1.4	invalid	0.4499066829994263	53248	0	1	1	53248	1	53248	1	53248	1	0.7	53248	purple	turquoise	0	0	ml	2.7.3	bip	sub-13_ses-02_task-ml_proj-bip_2021-01-20-10-20-42.861109
13	13	2	1	14	volatile	1	40	14	vs	purple	turquoise	purple	turquoise	left	right	0.7	0.30000000000000004	6	2	4.199999999999998	0.6000000000000001	0	1	0.7	0.30000000000000004	6	2	4.199999999999998	0.6000000000000001	invalid	0.48322102600104705	51200	0	0	1	51200	1	51200	1	51200	1	0.7	51200	purple	turquoise	1	0	ml	2.7.3	bip	sub-13_ses-02_task-ml_proj-bip_2021-01-20-10-20-42.861109
14	13	2	1	15	volatile	1	40	15	vs	turquoise	purple	purple	turquoise	right	left	0.7	0.30000000000000004	6	6	4.199999999999998	1.8000000000000005	1	0	0.30000000000000004	0.7	6	6	1.8000000000000005	4.199999999999998	valid	0.4832208179996087	51200	0	0	2	53248	0	53248	0	53248	0	0.7	53248	purple	turquoise	0	0	ml	2.7.3	bip	sub-13_ses-02_task-ml_proj-bip_2021-01-20-10-20-42.861109
15	13	2	1	16	volatile	1	40	16	vs	turquoise	purple	purple	turquoise	right	left	0.7	0.30000000000000004	6	6	4.199999999999998	1.8000000000000005	0	1	0.30000000000000004	0.7	6	6	1.8000000000000005	4.199999999999998	invalid	0.6165132810001523	51200	0	0	2	53248	0	53248	0	53248	0	0.7	53248	purple	turquoise	0	6	ml	2.7.3	bip	sub-13_ses-02_task-ml_proj-bip_2021-01-20-10-20-42.861109
16	13	2	1	17	volatile	1	40	17	vs	turquoise	purple	purple	turquoise	right	left	0.7	0.30000000000000004	2	4	1.4	1.2000000000000002	1	0	0.30000000000000004	0.7	4	2	1.2000000000000002	1.4	valid	0.4998788989996683	51200	0	0	2	53248	0	53248	0	51200	1	0.7	53248	purple	turquoise	0	0	ml	2.7.3	bip	sub-13_ses-02_task-ml_proj-bip_2021-01-20-10-20-42.861109
17	13	2	1	18	volatile	1	40	18	vs	turquoise	purple	purple	turquoise	right	left	0.7	0.30000000000000004	6	2	4.199999999999998	0.6000000000000001	1	0	0.30000000000000004	0.7	2	6	0.6000000000000001	4.199999999999998	valid	0.46656995000012097	53248	0	1	1	53248	1	53248	1	53248	1	0.7	53248	purple	turquoise	1	6	ml	2.7.3	bip	sub-13_ses-02_task-ml_proj-bip_2021-01-20-10-20-42.861109
18	13	2	1	19	volatile	1	40	19	vs	turquoise	purple	purple	turquoise	right	left	0.7	0.30000000000000004	2	10	1.4	3.0000000000000004	0	1	0.30000000000000004	0.7	10	2	3.0000000000000004	1.4	invalid	0.8997725110002648	51200	0	0	2	51200	1	53248	0	51200	1	0.7	53248	purple	turquoise	0	10	ml	2.7.3	bip	sub-13_ses-02_task-ml_proj-bip_2021-01-20-10-20-42.861109
19	13	2	1	20	volatile	1	40	20	vs	purple	turquoise	purple	turquoise	left	right	0.7	0.30000000000000004	2	4	1.4	1.2000000000000002	1	0	0.7	0.30000000000000004	2	4	1.4	1.2000000000000002	valid	0.6331810330011649	53248	0	1	2	51200	0	51200	0	53248	1	0.7	51200	purple	turquoise	0	0	ml	2.7.3	bip	sub-13_ses-02_task-ml_proj-bip_2021-01-20-10-20-42.861109
20	13	2	1	21	volatile	1	40	21	vs	turquoise	purple	purple	turquoise	right	left	0.7	0.30000000000000004	2	2	1.4	0.6000000000000001	1	0	0.30000000000000004	0.7	2	2	0.6000000000000001	1.4	valid	0.6331856559991138	53248	0	1	1	53248	1	53248	1	53248	1	0.7	53248	purple	turquoise	0	2	ml	2.7.3	bip	sub-13_ses-02_task-ml_proj-bip_2021-01-20-10-20-42.861109
21	13	2	1	22	volatile	1	40	22	vs	purple	turquoise	purple	turquoise	left	right	0.7	0.30000000000000004	2	10	1.4	3.0000000000000004	1	0	0.7	0.30000000000000004	2	10	1.4	3.0000000000000004	valid	0.8497915709995141	53248	0	1	2	53248	1	51200	0	53248	1	0.7	51200	purple	turquoise	0	0	ml	2.7.3	bip	sub-13_ses-02_task-ml_proj-bip_2021-01-20-10-20-42.861109
22	13	2	1	23	volatile	1	40	23	vs	purple	turquoise	purple	turquoise	left	right	0.7	0.30000000000000004	6	6	4.199999999999998	1.8000000000000005	1	0	0.7	0.30000000000000004	6	6	4.199999999999998	1.8000000000000005	valid	0.9497520929999156	51200	0	0	1	51200	1	51200	1	53248	0	0.7	51200	purple	turquoise	1	6	ml	2.7.3	bip	sub-13_ses-02_task-ml_proj-bip_2021-01-20-10-20-42.861109
23	13	2	1	24	volatile	1	40	24	vs	purple	turquoise	purple	turquoise	left	right	0.7	0.30000000000000004	2	6	1.4	1.8000000000000005	0	1	0.7	0.30000000000000004	2	6	1.4	1.8000000000000005	invalid	0.8997652610014484	51200	0	0	1	53248	0	51200	1	53248	0	0.7	51200	purple	turquoise	0	0	ml	2.7.3	bip	sub-13_ses-02_task-ml_proj-bip_2021-01-20-10-20-42.861109
24	13	2	1	25	volatile	1	40	25	vs	purple	turquoise	purple	turquoise	left	right	0.7	0.30000000000000004	10	2	7.0	0.6000000000000001	0	1	0.7	0.30000000000000004	10	2	7.0	0.6000000000000001	invalid	0.549868289999722	51200	0	0	1	51200	1	51200	1	51200	1	0.7	51200	purple	turquoise	1	0	ml	2.7.3	bip	sub-13_ses-02_task-ml_proj-bip_2021-01-20-10-20-42.861109
25	13	2	1	26	volatile	1	40	26	vs	purple	turquoise	purple	turquoise	left	right	0.7	0.30000000000000004	2	4	1.4	1.2000000000000002	1	0	0.7	0.30000000000000004	2	4	1.4	1.2000000000000002	valid	0.4998934430004738	53248	0	1	2	51200	0	51200	0	53248	1	0.7	51200	purple	turquoise	0	0	ml	2.7.3	bip	sub-13_ses-02_task-ml_proj-bip_2021-01-20-10-20-42.861109
26	13	2	1	27	volatile	1	40	27	vs	purple	turquoise	purple	turquoise	left	right	0.7	0.30000000000000004	6	2	4.199999999999998	0.6000000000000001	1	0	0.7	0.30000000000000004	6	2	4.199999999999998	0.6000000000000001	valid	0.8497912339989853	53248	0	1	2	51200	0	51200	0	51200	0	0.7	51200	purple	turquoise	1	0	ml	2.7.3	bip	sub-13_ses-02_task-ml_proj-bip_2021-01-20-10-20-42.861109
27	13	2	1	28	volatile	1	40	28	vs	turquoise	purple	purple	turquoise	right	left	0.7	0.30000000000000004	10	2	7.0	0.6000000000000001	1	0	0.30000000000000004	0.7	2	10	0.6000000000000001	7.0	valid	0.966430014001162	53248	0	1	1	53248	1	53248	1	53248	1	0.7	53248	purple	turquoise	1	10	ml	2.7.3	bip	sub-13_ses-02_task-ml_proj-bip_2021-01-20-10-20-42.861109
28	13	2	1	29	volatile	1	40	29	vs	turquoise	purple	purple	turquoise	right	left	0.7	0.30000000000000004	6	4	4.199999999999998	1.2000000000000002	1	0	0.30000000000000004	0.7	4	6	1.2000000000000002	4.199999999999998	valid	0.5498792349990254	53248	0	1	1	53248	1	53248	1	53248	1	0.7	53248	purple	turquoise	1	6	ml	2.7.3	bip	sub-13_ses-02_task-ml_proj-bip_2021-01-20-10-20-42.861109
29	13	2	1	30	volatile	1	40	30	vs	purple	turquoise	purple	turquoise	left	right	0.7	0.30000000000000004	2	2	1.4	0.6000000000000001	1	0	0.7	0.30000000000000004	2	2	1.4	0.6000000000000001	valid	0.5332059419997677	51200	0	0	1	51200	1	51200	1	53248	0	0.7	51200	purple	turquoise	1	2	ml	2.7.3	bip	sub-13_ses-02_task-ml_proj-bip_2021-01-20-10-20-42.861109
30	13	2	1	31	volatile	1	40	31	vs	purple	turquoise	purple	turquoise	left	right	0.7	0.30000000000000004	4	6	2.8	1.8000000000000005	0	1	0.7	0.30000000000000004	4	6	2.8	1.8000000000000005	invalid	0.6831680619998224	51200	0	0	1	51200	1	51200	1	53248	0	0.7	51200	purple	turquoise	0	0	ml	2.7.3	bip	sub-13_ses-02_task-ml_proj-bip_2021-01-20-10-20-42.861109
31	13	2	1	32	volatile	1	40	32	vs	purple	turquoise	purple	turquoise	left	right	0.7	0.30000000000000004	4	6	2.8	1.8000000000000005	0	1	0.7	0.30000000000000004	4	6	2.8	1.8000000000000005	invalid	0.7331593480012089	53248	0	1	2	51200	0	51200	0	53248	1	0.7	51200	purple	turquoise	0	6	ml	2.7.3	bip	sub-13_ses-02_task-ml_proj-bip_2021-01-20-10-20-42.861109
32	13	2	1	33	volatile	1	40	33	vs	turquoise	purple	purple	turquoise	right	left	0.7	0.30000000000000004	4	6	2.8	1.8000000000000005	1	0	0.30000000000000004	0.7	6	4	1.8000000000000005	2.8	valid	0.5332357170009345	51200	0	0	2	53248	0	53248	0	51200	1	0.7	53248	purple	turquoise	0	0	ml	2.7.3	bip	sub-13_ses-02_task-ml_proj-bip_2021-01-20-10-20-42.861109
33	13	2	1	34	volatile	1	40	34	vs	turquoise	purple	purple	turquoise	right	left	0.7	0.30000000000000004	2	4	1.4	1.2000000000000002	0	1	0.30000000000000004	0.7	4	2	1.2000000000000002	1.4	invalid	0.5831917190007516	51200	0	0	2	53248	0	53248	0	51200	1	0.7	53248	purple	turquoise	0	4	ml	2.7.3	bip	sub-13_ses-02_task-ml_proj-bip_2021-01-20-10-20-42.861109
34	13	2	1	35	volatile	1	40	35	vs	purple	turquoise	purple	turquoise	left	right	0.7	0.30000000000000004	4	2	2.8	0.6000000000000001	1	0	0.7	0.30000000000000004	4	2	2.8	0.6000000000000001	valid	1.099707209999906	51200	0	0	1	51200	1	51200	1	51200	1	0.7	51200	purple	turquoise	1	4	ml	2.7.3	bip	sub-13_ses-02_task-ml_proj-bip_2021-01-20-10-20-42.861109
35	13	2	1	36	volatile	1	40	36	vs	turquoise	purple	purple	turquoise	right	left	0.7	0.30000000000000004	10	2	7.0	0.6000000000000001	0	1	0.30000000000000004	0.7	2	10	0.6000000000000001	7.0	invalid	0.4665693349998037	53248	0	1	1	53248	1	53248	1	53248	1	0.7	53248	purple	turquoise	1	0	ml	2.7.3	bip	sub-13_ses-02_task-ml_proj-bip_2021-01-20-10-20-42.861109
36	13	2	1	37	volatile	1	40	37	vs	turquoise	purple	purple	turquoise	right	left	0.7	0.30000000000000004	6	6	4.199999999999998	1.8000000000000005	1	0	0.30000000000000004	0.7	6	6	1.8000000000000005	4.199999999999998	valid	0.6665109679997839	53248	0	1	1	53248	1	53248	1	53248	1	0.7	53248	purple	turquoise	0	6	ml	2.7.3	bip	sub-13_ses-02_task-ml_proj-bip_2021-01-20-10-20-42.861109
37	13	2	1	38	volatile	1	40	38	vs	purple	turquoise	purple	turquoise	left	right	0.7	0.30000000000000004	6	4	4.199999999999998	1.2000000000000002	0	1	0.7	0.30000000000000004	6	4	4.199999999999998	1.2000000000000002	invalid	0.6331802179993247	51200	0	0	1	51200	1	51200	1	51200	1	0.7	51200	purple	turquoise	1	0	ml	2.7.3	bip	sub-13_ses-02_task-ml_proj-bip_2021-01-20-10-20-42.861109
38	13	2	1	39	volatile	1	40	39	vs	purple	turquoise	purple	turquoise	left	right	0.7	0.30000000000000004	2	6	1.4	1.8000000000000005	1	0	0.7	0.30000000000000004	2	6	1.4	1.8000000000000005	valid	0.5998714209999889	53248	0	1	2	53248	1	51200	0	53248	1	0.7	51200	purple	turquoise	0	0	ml	2.7.3	bip	sub-13_ses-02_task-ml_proj-bip_2021-01-20-10-20-42.861109
39	13	2	1	40	volatile	1	40	40	vs	purple	turquoise	purple	turquoise	left	right	0.7	0.30000000000000004	2	2	1.4	0.6000000000000001	1	0	0.7	0.30000000000000004	2	2	1.4	0.6000000000000001	valid	0.6331759719996626	51200	0	0	1	51200	1	51200	1	53248	0	0.7	51200	purple	turquoise	1	2	ml	2.7.3	bip	sub-13_ses-02_task-ml_proj-bip_2021-01-20-10-20-42.861109
40	13	2	1	41	volatile	2	40	1	vs	purple	turquoise	purple	turquoise	left	right	0.30000000000000004	0.7	4	6	1.2000000000000002	4.199999999999998	0	1	0.30000000000000004	0.7	4	6	1.2000000000000002	4.199999999999998	valid	0.7164859029999207	51200	0	0	1	53248	0	53248	0	53248	0	0.7	53248	turquoise	purple	1	0	ml	2.7.3	bip	sub-13_ses-02_task-ml_proj-bip_2021-01-20-10-20-42.861109
41	13	2	1	42	volatile	2	40	2	vs	turquoise	purple	purple	turquoise	right	left	0.30000000000000004	0.7	4	2	1.2000000000000002	1.4	1	0	0.7	0.30000000000000004	2	4	1.4	1.2000000000000002	invalid	1.033072934998927	53248	0	1	1	51200	0	51200	0	53248	1	0.7	51200	turquoise	purple	0	4	ml	2.7.3	bip	sub-13_ses-02_task-ml_proj-bip_2021-01-20-10-20-42.861109
42	13	2	1	43	volatile	2	40	3	vs	turquoise	purple	purple	turquoise	right	left	0.30000000000000004	0.7	6	6	1.8000000000000005	4.199999999999998	1	0	0.7	0.30000000000000004	6	6	4.199999999999998	1.8000000000000005	invalid	0.6331785160000436	51200	0	0	2	51200	1	51200	1	53248	0	0.7	51200	turquoise	purple	1	0	ml	2.7.3	bip	sub-13_ses-02_task-ml_proj-bip_2021-01-20-10-20-42.861109
43	13	2	1	44	volatile	2	40	4	vs	turquoise	purple	purple	turquoise	right	left	0.30000000000000004	0.7	2	4	0.6000000000000001	2.8	0	1	0.7	0.30000000000000004	4	2	2.8	0.6000000000000001	valid	0.6331764890001068	51200	0	0	2	51200	1	51200	1	51200	1	0.7	51200	turquoise	purple	1	4	ml	2.7.3	bip	sub-13_ses-02_task-ml_proj-bip_2021-01-20-10-20-42.861109
44	13	2	1	45	volatile	2	40	5	vs	purple	turquoise	purple	turquoise	left	right	0.30000000000000004	0.7	6	4	1.8000000000000005	2.8	1	0	0.30000000000000004	0.7	6	4	1.8000000000000005	2.8	invalid	0.5998654390004958	53248	0	1	2	53248	1	53248	1	51200	0	0.7	53248	turquoise	purple	0	0	ml	2.7.3	bip	sub-13_ses-02_task-ml_proj-bip_2021-01-20-10-20-42.861109
45	13	2	1	46	volatile	2	40	6	vs	turquoise	purple	purple	turquoise	right	left	0.30000000000000004	0.7	6	2	1.8000000000000005	1.4	0	1	0.7	0.30000000000000004	2	6	1.4	1.8000000000000005	valid	0.5332163009989017	53248	0	1	1	53248	1	51200	0	53248	1	0.7	51200	turquoise	purple	0	0	ml	2.7.3	bip	sub-13_ses-02_task-ml_proj-bip_2021-01-20-10-20-42.861109
46	13	2	1	47	volatile	2	40	7	vs	purple	turquoise	purple	turquoise	left	right	0.30000000000000004	0.7	4	6	1.2000000000000002	4.199999999999998	0	1	0.30000000000000004	0.7	4	6	1.2000000000000002	4.199999999999998	valid	0.7331573929986916	53248	0	1	2	53248	1	53248	1	53248	1	0.7	53248	turquoise	purple	1	6	ml	2.7.3	bip	sub-13_ses-02_task-ml_proj-bip_2021-01-20-10-20-42.861109
47	13	2	1	48	volatile	2	40	8	vs	turquoise	purple	purple	turquoise	right	left	0.30000000000000004	0.7	6	4	1.8000000000000005	2.8	0	1	0.7	0.30000000000000004	4	6	2.8	1.8000000000000005	valid	0.9830773600006067	51200	0	0	2	51200	1	51200	1	53248	0	0.7	51200	turquoise	purple	0	4	ml	2.7.3	bip	sub-13_ses-02_task-ml_proj-bip_2021-01-20-10-20-42.861109
48	13	2	1	49	volatile	2	40	9	vs	purple	turquoise	purple	turquoise	left	right	0.30000000000000004	0.7	6	6	1.8000000000000005	4.199999999999998	0	1	0.30000000000000004	0.7	6	6	1.8000000000000005	4.199999999999998	valid	0.5665395590003754	53248	0	1	2	53248	1	53248	1	53248	1	0.7	53248	turquoise	purple	0	6	ml	2.7.3	bip	sub-13_ses-02_task-ml_proj-bip_2021-01-20-10-20-42.861109
49	13	2	1	50	volatile	2	40	10	vs	turquoise	purple	purple	turquoise	right	left	0.30000000000000004	0.7	6	2	1.8000000000000005	1.4	0	1	0.7	0.30000000000000004	2	6	1.4	1.8000000000000005	valid	0.8997682919998624	51200	0	0	2	53248	0	51200	1	53248	0	0.7	51200	turquoise	purple	0	2	ml	2.7.3	bip	sub-13_ses-02_task-ml_proj-bip_2021-01-20-10-20-42.861109
50	13	2	2	51	volatile	2	40	11	vs	purple	turquoise	purple	turquoise	left	right	0.30000000000000004	0.7	10	2	3.0000000000000004	1.4	0	1	0.30000000000000004	0.7	10	2	3.0000000000000004	1.4	valid	0.549867064000864	51200	0	0	1	51200	1	53248	0	51200	1	0.7	53248	turquoise	purple	0	0	ml	2.7.3	bip	sub-13_ses-02_task-ml_proj-bip_2021-01-20-10-20-42.861109
51	13	2	2	52	volatile	2	40	12	vs	turquoise	purple	purple	turquoise	right	left	0.30000000000000004	0.7	6	4	1.8000000000000005	2.8	1	0	0.7	0.30000000000000004	4	6	2.8	1.8000000000000005	invalid	0.6831809670002258	53248	0	1	1	51200	0	51200	0	53248	1	0.7	51200	turquoise	purple	0	6	ml	2.7.3	bip	sub-13_ses-02_task-ml_proj-bip_2021-01-20-10-20-42.861109
52	13	2	2	53	volatile	2	40	13	vs	purple	turquoise	purple	turquoise	left	right	0.30000000000000004	0.7	2	2	0.6000000000000001	1.4	0	1	0.30000000000000004	0.7	2	2	0.6000000000000001	1.4	valid	0.7164872550001746	51200	0	0	1	53248	0	53248	0	53248	0	0.7	53248	turquoise	purple	0	0	ml	2.7.3	bip	sub-13_ses-02_task-ml_proj-bip_2021-01-20-10-20-42.861109
53	13	2	2	54	volatile	2	40	14	vs	turquoise	purple	purple	turquoise	right	left	0.30000000000000004	0.7	10	2	3.0000000000000004	1.4	1	0	0.7	0.30000000000000004	2	10	1.4	3.0000000000000004	invalid	0.7998069219993341	53248	0	1	1	53248	1	51200	0	53248	1	0.7	51200	turquoise	purple	0	10	ml	2.7.3	bip	sub-13_ses-02_task-ml_proj-bip_2021-01-20-10-20-42.861109
54	13	2	2	55	volatile	2	40	15	vs	purple	turquoise	purple	turquoise	left	right	0.30000000000000004	0.7	2	6	0.6000000000000001	4.199999999999998	0	1	0.30000000000000004	0.7	2	6	0.6000000000000001	4.199999999999998	valid	0.5165503259995603	53248	0	1	2	53248	1	53248	1	53248	1	0.7	53248	turquoise	purple	1	6	ml	2.7.3	bip	sub-13_ses-02_task-ml_proj-bip_2021-01-20-10-20-42.861109
55	13	2	2	56	volatile	2	40	16	vs	turquoise	purple	purple	turquoise	right	left	0.30000000000000004	0.7	4	2	1.2000000000000002	1.4	0	1	0.7	0.30000000000000004	2	4	1.4	1.2000000000000002	valid	0.583194098999229	51200	0	0	2	51200	1	51200	1	53248	0	0.7	51200	turquoise	purple	0	2	ml	2.7.3	bip	sub-13_ses-02_task-ml_proj-bip_2021-01-20-10-20-42.861109
56	13	2	2	57	volatile	2	40	17	vs	turquoise	purple	purple	turquoise	right	left	0.30000000000000004	0.7	2	6	0.6000000000000001	4.199999999999998	0	1	0.7	0.30000000000000004	6	2	4.199999999999998	0.6000000000000001	valid	0.4998845099999016	51200	0	0	2	51200	1	51200	1	51200	1	0.7	51200	turquoise	purple	1	6	ml	2.7.3	bip	sub-13_ses-02_task-ml_proj-bip_2021-01-20-10-20-42.861109
57	13	2	2	58	volatile	2	40	18	vs	purple	turquoise	purple	turquoise	left	right	0.30000000000000004	0.7	6	6	1.8000000000000005	4.199999999999998	0	1	0.30000000000000004	0.7	6	6	1.8000000000000005	4.199999999999998	valid	0.5998632069986343	53248	0	1	2	53248	1	53248	1	53248	1	0.7	53248	turquoise	purple	0	6	ml	2.7.3	bip	sub-13_ses-02_task-ml_proj-bip_2021-01-20-10-20-42.861109
58	13	2	2	59	volatile	2	40	19	vs	turquoise	purple	purple	turquoise	right	left	0.30000000000000004	0.7	2	2	0.6000000000000001	1.4	1	0	0.7	0.30000000000000004	2	2	1.4	0.6000000000000001	invalid	0.6498375909995957	51200	0	0	2	51200	1	51200	1	53248	0	0.7	51200	turquoise	purple	1	0	ml	2.7.3	bip	sub-13_ses-02_task-ml_proj-bip_2021-01-20-10-20-42.861109
59	13	2	2	60	volatile	2	40	20	vs	turquoise	purple	purple	turquoise	right	left	0.30000000000000004	0.7	2	4	0.6000000000000001	2.8	0	1	0.7	0.30000000000000004	4	2	2.8	0.6000000000000001	valid	0.516542395000215	51200	0	0	2	51200	1	51200	1	51200	1	0.7	51200	turquoise	purple	1	4	ml	2.7.3	bip	sub-13_ses-02_task-ml_proj-bip_2021-01-20-10-20-42.861109
60	13	2	2	61	volatile	2	40	21	vs	turquoise	purple	purple	turquoise	right	left	0.30000000000000004	0.7	4	6	1.2000000000000002	4.199999999999998	0	1	0.7	0.30000000000000004	6	4	4.199999999999998	1.2000000000000002	valid	0.7331477240004459	51200	0	0	2	51200	1	51200	1	51200	1	0.7	51200	turquoise	purple	1	6	ml	2.7.3	bip	sub-13_ses-02_task-ml_proj-bip_2021-01-20-10-20-42.861109
61	13	2	2	62	volatile	2	40	22	vs	purple	turquoise	purple	turquoise	left	right	0.30000000000000004	0.7	6	6	1.8000000000000005	4.199999999999998	0	1	0.30000000000000004	0.7	6	6	1.8000000000000005	4.199999999999998	valid	0.6165250289996038	53248	0	1	2	53248	1	53248	1	53248	1	0.7	53248	turquoise	purple	0	6	ml	2.7.3	bip	sub-13_ses-02_task-ml_proj-bip_2021-01-20-10-20-42.861109
62	13	2	2	63	volatile	2	40	23	vs	purple	turquoise	purple	turquoise	left	right	0.30000000000000004	0.7	2	6	0.6000000000000001	4.199999999999998	1	0	0.30000000000000004	0.7	2	6	0.6000000000000001	4.199999999999998	invalid	0.5832024139999703	53248	0	1	2	53248	1	53248	1	53248	1	0.7	53248	turquoise	purple	1	0	ml	2.7.3	bip	sub-13_ses-02_task-ml_proj-bip_2021-01-20-10-20-42.861109
63	13	2	2	64	volatile	2	40	24	vs	purple	turquoise	purple	turquoise	left	right	0.30000000000000004	0.7	2	10	0.6000000000000001	7.0	0	1	0.30000000000000004	0.7	2	10	0.6000000000000001	7.0	valid	0.5332181470002979	53248	0	1	2	53248	1	53248	1	53248	1	0.7	53248	turquoise	purple	1	10	ml	2.7.3	bip	sub-13_ses-02_task-ml_proj-bip_2021-01-20-10-20-42.861109
64	13	2	2	65	volatile	2	40	25	vs	purple	turquoise	purple	turquoise	left	right	0.30000000000000004	0.7	6	4	1.8000000000000005	2.8	0	1	0.30000000000000004	0.7	6	4	1.8000000000000005	2.8	valid	0.4499080989990034	53248	0	1	2	53248	1	53248	1	51200	0	0.7	53248	turquoise	purple	0	4	ml	2.7.3	bip	sub-13_ses-02_task-ml_proj-bip_2021-01-20-10-20-42.861109
65	13	2	2	66	volatile	2	40	26	vs	purple	turquoise	purple	turquoise	left	right	0.30000000000000004	0.7	6	4	1.8000000000000005	2.8	0	1	0.30000000000000004	0.7	6	4	1.8000000000000005	2.8	valid	0.5832032719990821	53248	0	1	2	53248	1	53248	1	51200	0	0.7	53248	turquoise	purple	0	4	ml	2.7.3	bip	sub-13_ses-02_task-ml_proj-bip_2021-01-20-10-20-42.861109
66	13	2	2	67	volatile	2	40	27	vs	turquoise	purple	purple	turquoise	right	left	0.30000000000000004	0.7	2	10	0.6000000000000001	7.0	0	1	0.7	0.30000000000000004	10	2	7.0	0.6000000000000001	valid	0.4832215099995665	51200	0	0	2	51200	1	51200	1	51200	1	0.7	51200	turquoise	purple	1	10	ml	2.7.3	bip	sub-13_ses-02_task-ml_proj-bip_2021-01-20-10-20-42.861109
67	13	2	2	68	volatile	2	40	28	vs	purple	turquoise	purple	turquoise	left	right	0.30000000000000004	0.7	2	10	0.6000000000000001	7.0	1	0	0.30000000000000004	0.7	2	10	0.6000000000000001	7.0	invalid	0.4665685550007765	53248	0	1	2	53248	1	53248	1	53248	1	0.7	53248	turquoise	purple	1	0	ml	2.7.3	bip	sub-13_ses-02_task-ml_proj-bip_2021-01-20-10-20-42.861109
68	13	2	2	69	volatile	2	40	29	vs	purple	turquoise	purple	turquoise	left	right	0.30000000000000004	0.7	6	2	1.8000000000000005	1.4	1	0	0.30000000000000004	0.7	6	2	1.8000000000000005	1.4	invalid	0.69982044200151	51200	0	0	1	51200	1	53248	0	51200	1	0.7	53248	turquoise	purple	0	6	ml	2.7.3	bip	sub-13_ses-02_task-ml_proj-bip_2021-01-20-10-20-42.861109
69	13	2	2	70	volatile	2	40	30	vs	purple	turquoise	purple	turquoise	left	right	0.30000000000000004	0.7	2	2	0.6000000000000001	1.4	1	0	0.30000000000000004	0.7	2	2	0.6000000000000001	1.4	invalid	0.7664701569992758	51200	0	0	1	53248	0	53248	0	53248	0	0.7	53248	turquoise	purple	0	2	ml	2.7.3	bip	sub-13_ses-02_task-ml_proj-bip_2021-01-20-10-20-42.861109
70	13	2	2	71	volatile	2	40	31	vs	purple	turquoise	purple	turquoise	left	right	0.30000000000000004	0.7	2	4	0.6000000000000001	2.8	0	1	0.30000000000000004	0.7	2	4	0.6000000000000001	2.8	valid	0.6331945399997494	53248	0	1	2	53248	1	53248	1	53248	1	0.7	53248	turquoise	purple	1	4	ml	2.7.3	bip	sub-13_ses-02_task-ml_proj-bip_2021-01-20-10-20-42.861109
71	13	2	2	72	volatile	2	40	32	vs	turquoise	purple	purple	turquoise	right	left	0.30000000000000004	0.7	10	2	3.0000000000000004	1.4	0	1	0.7	0.30000000000000004	2	10	1.4	3.0000000000000004	valid	0.6331869860005099	53248	0	1	1	53248	1	51200	0	53248	1	0.7	51200	turquoise	purple	0	0	ml	2.7.3	bip	sub-13_ses-02_task-ml_proj-bip_2021-01-20-10-20-42.861109
72	13	2	2	73	volatile	2	40	33	vs	purple	turquoise	purple	turquoise	left	right	0.30000000000000004	0.7	2	2	0.6000000000000001	1.4	0	1	0.30000000000000004	0.7	2	2	0.6000000000000001	1.4	valid	0.5332061600001907	51200	0	0	1	53248	0	53248	0	53248	0	0.7	53248	turquoise	purple	0	0	ml	2.7.3	bip	sub-13_ses-02_task-ml_proj-bip_2021-01-20-10-20-42.861109
73	13	2	2	74	volatile	2	40	34	vs	purple	turquoise	purple	turquoise	left	right	0.30000000000000004	0.7	6	2	1.8000000000000005	1.4	1	0	0.30000000000000004	0.7	6	2	1.8000000000000005	1.4	invalid	0.5831944479996309	53248	0	1	2	51200	0	53248	1	51200	0	0.7	53248	turquoise	purple	0	0	ml	2.7.3	bip	sub-13_ses-02_task-ml_proj-bip_2021-01-20-10-20-42.861109
74	13	2	2	75	volatile	2	40	35	vs	turquoise	purple	purple	turquoise	right	left	0.30000000000000004	0.7	4	2	1.2000000000000002	1.4	0	1	0.7	0.30000000000000004	2	4	1.4	1.2000000000000002	valid	0.5998653269998613	53248	0	1	1	51200	0	51200	0	53248	1	0.7	51200	turquoise	purple	0	0	ml	2.7.3	bip	sub-13_ses-02_task-ml_proj-bip_2021-01-20-10-20-42.861109
75	13	2	2	76	volatile	2	40	36	vs	purple	turquoise	purple	turquoise	left	right	0.30000000000000004	0.7	6	2	1.8000000000000005	1.4	0	1	0.30000000000000004	0.7	6	2	1.8000000000000005	1.4	valid	0.4665628830007336	51200	0	0	1	51200	1	53248	0	51200	1	0.7	53248	turquoise	purple	0	0	ml	2.7.3	bip	sub-13_ses-02_task-ml_proj-bip_2021-01-20-10-20-42.861109
76	13	2	2	77	volatile	2	40	37	vs	turquoise	purple	purple	turquoise	right	left	0.30000000000000004	0.7	2	4	0.6000000000000001	2.8	0	1	0.7	0.30000000000000004	4	2	2.8	0.6000000000000001	valid	0.6165129210003215	51200	0	0	2	51200	1	51200	1	51200	1	0.7	51200	turquoise	purple	1	4	ml	2.7.3	bip	sub-13_ses-02_task-ml_proj-bip_2021-01-20-10-20-42.861109
77	13	2	2	78	volatile	2	40	38	vs	turquoise	purple	purple	turquoise	right	left	0.30000000000000004	0.7	2	10	0.6000000000000001	7.0	0	1	0.7	0.30000000000000004	10	2	7.0	0.6000000000000001	valid	0.4665507830013666	51200	0	0	2	51200	1	51200	1	51200	1	0.7	51200	turquoise	purple	1	10	ml	2.7.3	bip	sub-13_ses-02_task-ml_proj-bip_2021-01-20-10-20-42.861109
78	13	2	2	79	volatile	2	40	39	vs	turquoise	purple	purple	turquoise	right	left	0.30000000000000004	0.7	2	10	0.6000000000000001	7.0	0	1	0.7	0.30000000000000004	10	2	7.0	0.6000000000000001	valid	0.4332276320001256	51200	0	0	2	51200	1	51200	1	51200	1	0.7	51200	turquoise	purple	1	10	ml	2.7.3	bip	sub-13_ses-02_task-ml_proj-bip_2021-01-20-10-20-42.861109
79	13	2	2	80	volatile	2	40	40	vs	turquoise	purple	purple	turquoise	right	left	0.30000000000000004	0.7	2	4	0.6000000000000001	2.8	1	0	0.7	0.30000000000000004	4	2	2.8	0.6000000000000001	invalid	0.5998545430011291	51200	0	0	2	51200	1	51200	1	51200	1	0.7	51200	turquoise	purple	1	0	ml	2.7.3	bip	sub-13_ses-02_task-ml_proj-bip_2021-01-20-10-20-42.861109
80	13	2	2	81	volatile	3	20	1	vs	purple	turquoise	purple	turquoise	left	right	0.7	0.30000000000000004	2	10	1.4	3.0000000000000004	1	0	0.7	0.30000000000000004	2	10	1.4	3.0000000000000004	valid	0.6665130609999323	53248	0	1	2	53248	1	51200	0	53248	1	0.7	51200	purple	turquoise	0	0	ml	2.7.3	bip	sub-13_ses-02_task-ml_proj-bip_2021-01-20-10-20-42.861109
81	13	2	2	82	volatile	3	20	2	vs	turquoise	purple	purple	turquoise	right	left	0.7	0.30000000000000004	2	2	1.4	0.6000000000000001	1	0	0.30000000000000004	0.7	2	2	0.6000000000000001	1.4	valid	0.9164375029995426	53248	0	1	1	53248	1	53248	1	53248	1	0.7	53248	purple	turquoise	0	2	ml	2.7.3	bip	sub-13_ses-02_task-ml_proj-bip_2021-01-20-10-20-42.861109
82	13	2	2	83	volatile	3	20	3	vs	purple	turquoise	purple	turquoise	left	right	0.7	0.30000000000000004	10	2	7.0	0.6000000000000001	0	1	0.7	0.30000000000000004	10	2	7.0	0.6000000000000001	invalid	0.4999012709995441	51200	0	0	1	51200	1	51200	1	51200	1	0.7	51200	purple	turquoise	1	0	ml	2.7.3	bip	sub-13_ses-02_task-ml_proj-bip_2021-01-20-10-20-42.861109
83	13	2	2	84	volatile	3	20	4	vs	turquoise	purple	purple	turquoise	right	left	0.7	0.30000000000000004	6	4	4.199999999999998	1.2000000000000002	0	1	0.30000000000000004	0.7	4	6	1.2000000000000002	4.199999999999998	invalid	0.6165246260006825	53248	0	1	1	53248	1	53248	1	53248	1	0.7	53248	purple	turquoise	1	0	ml	2.7.3	bip	sub-13_ses-02_task-ml_proj-bip_2021-01-20-10-20-42.861109
84	13	2	2	85	volatile	3	20	5	vs	turquoise	purple	purple	turquoise	right	left	0.7	0.30000000000000004	2	10	1.4	3.0000000000000004	1	0	0.30000000000000004	0.7	10	2	3.0000000000000004	1.4	valid	0.4165750639986072	51200	0	0	2	51200	1	53248	0	51200	1	0.7	53248	purple	turquoise	0	0	ml	2.7.3	bip	sub-13_ses-02_task-ml_proj-bip_2021-01-20-10-20-42.861109
85	13	2	2	86	volatile	3	20	6	vs	purple	turquoise	purple	turquoise	left	right	0.7	0.30000000000000004	2	2	1.4	0.6000000000000001	1	0	0.7	0.30000000000000004	2	2	1.4	0.6000000000000001	valid	0.6831760789991677	53248	0	1	2	51200	0	51200	0	53248	1	0.7	51200	purple	turquoise	1	0	ml	2.7.3	bip	sub-13_ses-02_task-ml_proj-bip_2021-01-20-10-20-42.861109
86	13	2	2	87	volatile	3	20	7	vs	purple	turquoise	purple	turquoise	left	right	0.7	0.30000000000000004	6	4	4.199999999999998	1.2000000000000002	1	0	0.7	0.30000000000000004	6	4	4.199999999999998	1.2000000000000002	valid	0.5332067729996197	51200	0	0	1	51200	1	51200	1	51200	1	0.7	51200	purple	turquoise	1	6	ml	2.7.3	bip	sub-13_ses-02_task-ml_proj-bip_2021-01-20-10-20-42.861109
87	13	2	2	88	volatile	3	20	8	vs	turquoise	purple	purple	turquoise	right	left	0.7	0.30000000000000004	2	4	1.4	1.2000000000000002	1	0	0.30000000000000004	0.7	4	2	1.2000000000000002	1.4	valid	1.399627091999719	51200	0	0	2	53248	0	53248	0	51200	1	0.7	53248	purple	turquoise	0	0	ml	2.7.3	bip	sub-13_ses-02_task-ml_proj-bip_2021-01-20-10-20-42.861109
88	13	2	2	89	volatile	3	20	9	vs	purple	turquoise	purple	turquoise	left	right	0.7	0.30000000000000004	4	6	2.8	1.8000000000000005	1	0	0.7	0.30000000000000004	4	6	2.8	1.8000000000000005	valid	1.1830203129993606	53248	0	1	2	51200	0	51200	0	53248	1	0.7	51200	purple	turquoise	0	0	ml	2.7.3	bip	sub-13_ses-02_task-ml_proj-bip_2021-01-20-10-20-42.861109
89	13	2	2	90	volatile	3	20	10	vs	purple	turquoise	purple	turquoise	left	right	0.7	0.30000000000000004	6	2	4.199999999999998	0.6000000000000001	1	0	0.7	0.30000000000000004	6	2	4.199999999999998	0.6000000000000001	valid	0.6831618239993986	51200	0	0	1	51200	1	51200	1	51200	1	0.7	51200	purple	turquoise	1	6	ml	2.7.3	bip	sub-13_ses-02_task-ml_proj-bip_2021-01-20-10-20-42.861109
90	13	2	2	91	volatile	3	20	11	vs	turquoise	purple	purple	turquoise	right	left	0.7	0.30000000000000004	4	6	2.8	1.8000000000000005	1	0	0.30000000000000004	0.7	6	4	1.8000000000000005	2.8	valid	0.7998044439991645	53248	0	1	1	53248	1	53248	1	51200	0	0.7	53248	purple	turquoise	0	4	ml	2.7.3	bip	sub-13_ses-02_task-ml_proj-bip_2021-01-20-10-20-42.861109
91	13	2	2	92	volatile	3	20	12	vs	turquoise	purple	purple	turquoise	right	left	0.7	0.30000000000000004	6	2	4.199999999999998	0.6000000000000001	0	1	0.30000000000000004	0.7	2	6	0.6000000000000001	4.199999999999998	invalid	0.5165524050007662	53248	0	1	1	53248	1	53248	1	53248	1	0.7	53248	purple	turquoise	1	0	ml	2.7.3	bip	sub-13_ses-02_task-ml_proj-bip_2021-01-20-10-20-42.861109
92	13	2	2	93	volatile	3	20	13	vs	turquoise	purple	purple	turquoise	right	left	0.7	0.30000000000000004	10	2	7.0	0.6000000000000001	0	1	0.30000000000000004	0.7	2	10	0.6000000000000001	7.0	invalid	0.5998624040003051	53248	0	1	1	53248	1	53248	1	53248	1	0.7	53248	purple	turquoise	1	0	ml	2.7.3	bip	sub-13_ses-02_task-ml_proj-bip_2021-01-20-10-20-42.861109
93	13	2	2	94	volatile	3	20	14	vs	purple	turquoise	purple	turquoise	left	right	0.7	0.30000000000000004	6	2	4.199999999999998	0.6000000000000001	1	0	0.7	0.30000000000000004	6	2	4.199999999999998	0.6000000000000001	valid	0.5332035040009941	51200	0	0	1	51200	1	51200	1	51200	1	0.7	51200	purple	turquoise	1	6	ml	2.7.3	bip	sub-13_ses-02_task-ml_proj-bip_2021-01-20-10-20-42.861109
94	13	2	2	95	volatile	3	20	15	vs	purple	turquoise	purple	turquoise	left	right	0.7	0.30000000000000004	2	4	1.4	1.2000000000000002	1	0	0.7	0.30000000000000004	2	4	1.4	1.2000000000000002	valid	1.6495597110006202	53248	0	1	2	51200	0	51200	0	53248	1	0.7	51200	purple	turquoise	0	0	ml	2.7.3	bip	sub-13_ses-02_task-ml_proj-bip_2021-01-20-10-20-42.861109
95	13	2	2	96	volatile	3	20	16	vs	purple	turquoise	purple	turquoise	left	right	0.7	0.30000000000000004	6	6	4.199999999999998	1.8000000000000005	0	1	0.7	0.30000000000000004	6	6	4.199999999999998	1.8000000000000005	invalid	0.5165417899988825	51200	0	0	1	51200	1	51200	1	53248	0	0.7	51200	purple	turquoise	1	0	ml	2.7.3	bip	sub-13_ses-02_task-ml_proj-bip_2021-01-20-10-20-42.861109
96	13	2	2	97	volatile	3	20	17	vs	turquoise	purple	purple	turquoise	right	left	0.7	0.30000000000000004	6	6	4.199999999999998	1.8000000000000005	1	0	0.30000000000000004	0.7	6	6	1.8000000000000005	4.199999999999998	valid	0.683168948000457	53248	0	1	1	53248	1	53248	1	53248	1	0.7	53248	purple	turquoise	0	6	ml	2.7.3	bip	sub-13_ses-02_task-ml_proj-bip_2021-01-20-10-20-42.861109
97	13	2	2	98	volatile	3	20	18	vs	turquoise	purple	purple	turquoise	right	left	0.7	0.30000000000000004	6	2	4.199999999999998	0.6000000000000001	1	0	0.30000000000000004	0.7	2	6	0.6000000000000001	4.199999999999998	valid	0.8331283059997077	53248	0	1	1	53248	1	53248	1	53248	1	0.7	53248	purple	turquoise	1	6	ml	2.7.3	bip	sub-13_ses-02_task-ml_proj-bip_2021-01-20-10-20-42.861109
98	13	2	2	99	volatile	3	20	19	vs	turquoise	purple	purple	turquoise	right	left	0.7	0.30000000000000004	2	4	1.4	1.2000000000000002	1	0	0.30000000000000004	0.7	4	2	1.2000000000000002	1.4	valid	0.7164877850009361	51200	0	0	2	53248	0	53248	0	51200	1	0.7	53248	purple	turquoise	0	0	ml	2.7.3	bip	sub-13_ses-02_task-ml_proj-bip_2021-01-20-10-20-42.861109
99	13	2	2	100	volatile	3	20	20	vs	purple	turquoise	purple	turquoise	left	right	0.7	0.30000000000000004	2	4	1.4	1.2000000000000002	0	1	0.7	0.30000000000000004	2	4	1.4	1.2000000000000002	invalid	0.8497791289992165	51200	0	0	1	51200	1	51200	1	53248	0	0.7	51200	purple	turquoise	0	0	ml	2.7.3	bip	sub-13_ses-02_task-ml_proj-bip_2021-01-20-10-20-42.861109
100	13	2	3	101	volatile	4	20	1	vs	turquoise	purple	purple	turquoise	right	left	0.30000000000000004	0.7	10	2	3.0000000000000004	1.4	0	1	0.7	0.30000000000000004	2	10	1.4	3.0000000000000004	valid	0.5165548820004915	53248	0	1	1	53248	1	51200	0	53248	1	0.7	51200	turquoise	purple	0	0	ml	2.7.3	bip	sub-13_ses-02_task-ml_proj-bip_2021-01-20-10-20-42.861109
101	13	2	3	102	volatile	4	20	2	vs	purple	turquoise	purple	turquoise	left	right	0.30000000000000004	0.7	2	2	0.6000000000000001	1.4	0	1	0.30000000000000004	0.7	2	2	0.6000000000000001	1.4	valid	0.9830843189993176	53248	0	1	2	53248	1	53248	1	53248	1	0.7	53248	turquoise	purple	0	2	ml	2.7.3	bip	sub-13_ses-02_task-ml_proj-bip_2021-01-20-10-20-42.861109
102	13	2	3	103	volatile	4	20	3	vs	turquoise	purple	purple	turquoise	right	left	0.30000000000000004	0.7	2	4	0.6000000000000001	2.8	1	0	0.7	0.30000000000000004	4	2	2.8	0.6000000000000001	invalid	0.416570445000616	51200	0	0	2	51200	1	51200	1	51200	1	0.7	51200	turquoise	purple	1	0	ml	2.7.3	bip	sub-13_ses-02_task-ml_proj-bip_2021-01-20-10-20-42.861109
103	13	2	3	104	volatile	4	20	4	vs	turquoise	purple	purple	turquoise	right	left	0.30000000000000004	0.7	6	6	1.8000000000000005	4.199999999999998	1	0	0.7	0.30000000000000004	6	6	4.199999999999998	1.8000000000000005	invalid	0.6998359909994178	53248	0	1	1	51200	0	51200	0	53248	1	0.7	51200	turquoise	purple	1	6	ml	2.7.3	bip	sub-13_ses-02_task-ml_proj-bip_2021-01-20-10-20-42.861109
104	13	2	3	105	volatile	4	20	5	vs	purple	turquoise	purple	turquoise	left	right	0.30000000000000004	0.7	2	10	0.6000000000000001	7.0	0	1	0.30000000000000004	0.7	2	10	0.6000000000000001	7.0	valid	0.6165279999986524	53248	0	1	2	53248	1	53248	1	53248	1	0.7	53248	turquoise	purple	1	10	ml	2.7.3	bip	sub-13_ses-02_task-ml_proj-bip_2021-01-20-10-20-42.861109
105	13	2	3	106	volatile	4	20	6	vs	turquoise	purple	purple	turquoise	right	left	0.30000000000000004	0.7	2	2	0.6000000000000001	1.4	0	1	0.7	0.30000000000000004	2	2	1.4	0.6000000000000001	valid	0.7498178610003379	53248	0	1	1	51200	0	51200	0	53248	1	0.7	51200	turquoise	purple	1	0	ml	2.7.3	bip	sub-13_ses-02_task-ml_proj-bip_2021-01-20-10-20-42.861109
106	13	2	3	107	volatile	4	20	7	vs	turquoise	purple	purple	turquoise	right	left	0.30000000000000004	0.7	4	2	1.2000000000000002	1.4	0	1	0.7	0.30000000000000004	2	4	1.4	1.2000000000000002	valid	0.6331877740012715	53248	0	1	1	51200	0	51200	0	53248	1	0.7	51200	turquoise	purple	0	0	ml	2.7.3	bip	sub-13_ses-02_task-ml_proj-bip_2021-01-20-10-20-42.861109
107	13	2	3	108	volatile	4	20	8	vs	turquoise	purple	purple	turquoise	right	left	0.30000000000000004	0.7	2	4	0.6000000000000001	2.8	0	1	0.7	0.30000000000000004	4	2	2.8	0.6000000000000001	valid	0.5498662840000179	51200	0	0	2	51200	1	51200	1	51200	1	0.7	51200	turquoise	purple	1	4	ml	2.7.3	bip	sub-13_ses-02_task-ml_proj-bip_2021-01-20-10-20-42.861109
108	13	2	3	109	volatile	4	20	9	vs	turquoise	purple	purple	turquoise	right	left	0.30000000000000004	0.7	4	2	1.2000000000000002	1.4	0	1	0.7	0.30000000000000004	2	4	1.4	1.2000000000000002	valid	0.9164215090004292	51200	0	0	2	51200	1	51200	1	53248	0	0.7	51200	turquoise	purple	0	2	ml	2.7.3	bip	sub-13_ses-02_task-ml_proj-bip_2021-01-20-10-20-42.861109
109	13	2	3	110	volatile	4	20	10	vs	purple	turquoise	purple	turquoise	left	right	0.30000000000000004	0.7	10	2	3.0000000000000004	1.4	1	0	0.30000000000000004	0.7	10	2	3.0000000000000004	1.4	invalid	0.6665086579996569	53248	0	1	2	51200	0	53248	1	51200	0	0.7	53248	turquoise	purple	0	0	ml	2.7.3	bip	sub-13_ses-02_task-ml_proj-bip_2021-01-20-10-20-42.861109
110	13	2	3	111	volatile	4	20	11	vs	purple	turquoise	purple	turquoise	left	right	0.30000000000000004	0.7	6	2	1.8000000000000005	1.4	0	1	0.30000000000000004	0.7	6	2	1.8000000000000005	1.4	valid	0.499882792999415	51200	0	0	1	51200	1	53248	0	51200	1	0.7	53248	turquoise	purple	0	0	ml	2.7.3	bip	sub-13_ses-02_task-ml_proj-bip_2021-01-20-10-20-42.861109
111	13	2	3	112	volatile	4	20	12	vs	purple	turquoise	purple	turquoise	left	right	0.30000000000000004	0.7	6	6	1.8000000000000005	4.199999999999998	0	1	0.30000000000000004	0.7	6	6	1.8000000000000005	4.199999999999998	valid	1.2829999850000604	53248	0	1	2	53248	1	53248	1	53248	1	0.7	53248	turquoise	purple	0	6	ml	2.7.3	bip	sub-13_ses-02_task-ml_proj-bip_2021-01-20-10-20-42.861109
112	13	2	3	113	volatile	4	20	13	vs	turquoise	purple	purple	turquoise	right	left	0.30000000000000004	0.7	2	6	0.6000000000000001	4.199999999999998	0	1	0.7	0.30000000000000004	6	2	4.199999999999998	0.6000000000000001	valid	0.6665466430004017	51200	0	0	2	51200	1	51200	1	51200	1	0.7	51200	turquoise	purple	1	6	ml	2.7.3	bip	sub-13_ses-02_task-ml_proj-bip_2021-01-20-10-20-42.861109
113	13	2	3	114	volatile	4	20	14	vs	turquoise	purple	purple	turquoise	right	left	0.30000000000000004	0.7	6	2	1.8000000000000005	1.4	1	0	0.7	0.30000000000000004	2	6	1.4	1.8000000000000005	invalid	0.8331367330010835	53248	0	1	1	53248	1	51200	0	53248	1	0.7	51200	turquoise	purple	0	6	ml	2.7.3	bip	sub-13_ses-02_task-ml_proj-bip_2021-01-20-10-20-42.861109
114	13	2	3	115	volatile	4	20	15	vs	turquoise	purple	purple	turquoise	right	left	0.30000000000000004	0.7	6	2	1.8000000000000005	1.4	0	1	0.7	0.30000000000000004	2	6	1.4	1.8000000000000005	valid	0.6831721930011554	53248	0	1	1	53248	1	51200	0	53248	1	0.7	51200	turquoise	purple	0	0	ml	2.7.3	bip	sub-13_ses-02_task-ml_proj-bip_2021-01-20-10-20-42.861109
115	13	2	3	116	volatile	4	20	16	vs	purple	turquoise	purple	turquoise	left	right	0.30000000000000004	0.7	4	6	1.2000000000000002	4.199999999999998	0	1	0.30000000000000004	0.7	4	6	1.2000000000000002	4.199999999999998	valid	0.9331064159996458	53248	0	1	2	53248	1	53248	1	53248	1	0.7	53248	turquoise	purple	1	6	ml	2.7.3	bip	sub-13_ses-02_task-ml_proj-bip_2021-01-20-10-20-42.861109
116	13	2	3	117	volatile	4	20	17	vs	purple	turquoise	purple	turquoise	left	right	0.30000000000000004	0.7	10	2	3.0000000000000004	1.4	1	0	0.30000000000000004	0.7	10	2	3.0000000000000004	1.4	invalid	0.7498099210006329	51200	0	0	1	51200	1	53248	0	51200	1	0.7	53248	turquoise	purple	0	10	ml	2.7.3	bip	sub-13_ses-02_task-ml_proj-bip_2021-01-20-10-20-42.861109
117	13	2	3	118	volatile	4	20	18	vs	purple	turquoise	purple	turquoise	left	right	0.30000000000000004	0.7	6	4	1.8000000000000005	2.8	0	1	0.30000000000000004	0.7	6	4	1.8000000000000005	2.8	valid	0.7164852469995822	51200	0	0	1	53248	0	53248	0	51200	1	0.7	53248	turquoise	purple	0	0	ml	2.7.3	bip	sub-13_ses-02_task-ml_proj-bip_2021-01-20-10-20-42.861109
118	13	2	3	119	volatile	4	20	19	vs	purple	turquoise	purple	turquoise	left	right	0.30000000000000004	0.7	6	4	1.8000000000000005	2.8	1	0	0.30000000000000004	0.7	6	4	1.8000000000000005	2.8	invalid	0.78313393100143	51200	0	0	1	53248	0	53248	0	51200	1	0.7	53248	turquoise	purple	0	6	ml	2.7.3	bip	sub-13_ses-02_task-ml_proj-bip_2021-01-20-10-20-42.861109
119	13	2	3	120	volatile	4	20	20	vs	purple	turquoise	purple	turquoise	left	right	0.30000000000000004	0.7	4	6	1.2000000000000002	4.199999999999998	0	1	0.30000000000000004	0.7	4	6	1.2000000000000002	4.199999999999998	valid	0.7164866870007245	51200	0	0	1	53248	0	53248	0	53248	0	0.7	53248	turquoise	purple	1	0	ml	2.7.3	bip	sub-13_ses-02_task-ml_proj-bip_2021-01-20-10-20-42.861109
120	13	2	3	121	volatile	5	20	1	vs	purple	turquoise	purple	turquoise	left	right	0.7	0.30000000000000004	10	2	7.0	0.6000000000000001	0	1	0.7	0.30000000000000004	10	2	7.0	0.6000000000000001	invalid	0.7164848140000686	51200	0	0	1	51200	1	51200	1	51200	1	0.7	51200	purple	turquoise	1	0	ml	2.7.3	bip	sub-13_ses-02_task-ml_proj-bip_2021-01-20-10-20-42.861109
121	13	2	3	122	volatile	5	20	2	vs	purple	turquoise	purple	turquoise	left	right	0.7	0.30000000000000004	4	6	2.8	1.8000000000000005	1	0	0.7	0.30000000000000004	4	6	2.8	1.8000000000000005	valid	0.4998914380012138	53248	0	1	2	51200	0	51200	0	53248	1	0.7	51200	purple	turquoise	0	0	ml	2.7.3	bip	sub-13_ses-02_task-ml_proj-bip_2021-01-20-10-20-42.861109
122	13	2	3	123	volatile	5	20	3	vs	turquoise	purple	purple	turquoise	right	left	0.7	0.30000000000000004	2	6	1.4	1.8000000000000005	1	0	0.30000000000000004	0.7	6	2	1.8000000000000005	1.4	valid	0.4832204390004336	51200	0	0	2	51200	1	53248	0	51200	1	0.7	53248	purple	turquoise	0	0	ml	2.7.3	bip	sub-13_ses-02_task-ml_proj-bip_2021-01-20-10-20-42.861109
123	13	2	3	124	volatile	5	20	4	vs	purple	turquoise	purple	turquoise	left	right	0.7	0.30000000000000004	2	6	1.4	1.8000000000000005	0	1	0.7	0.30000000000000004	2	6	1.4	1.8000000000000005	invalid	0.7165098100012983	53248	0	1	2	53248	1	51200	0	53248	1	0.7	51200	purple	turquoise	0	6	ml	2.7.3	bip	sub-13_ses-02_task-ml_proj-bip_2021-01-20-10-20-42.861109
124	13	2	3	125	volatile	5	20	5	vs	purple	turquoise	purple	turquoise	left	right	0.7	0.30000000000000004	2	4	1.4	1.2000000000000002	0	1	0.7	0.30000000000000004	2	4	1.4	1.2000000000000002	invalid	0.5332185930001287	53248	0	1	2	51200	0	51200	0	53248	1	0.7	51200	purple	turquoise	0	4	ml	2.7.3	bip	sub-13_ses-02_task-ml_proj-bip_2021-01-20-10-20-42.861109
125	13	2	3	126	volatile	5	20	6	vs	turquoise	purple	purple	turquoise	right	left	0.7	0.30000000000000004	2	6	1.4	1.8000000000000005	0	1	0.30000000000000004	0.7	6	2	1.8000000000000005	1.4	invalid	0.5665286630010087	51200	0	0	2	51200	1	53248	0	51200	1	0.7	53248	purple	turquoise	0	6	ml	2.7.3	bip	sub-13_ses-02_task-ml_proj-bip_2021-01-20-10-20-42.861109
126	13	2	3	127	volatile	5	20	7	vs	purple	turquoise	purple	turquoise	left	right	0.7	0.30000000000000004	2	10	1.4	3.0000000000000004	1	0	0.7	0.30000000000000004	2	10	1.4	3.0000000000000004	valid	0.7498185019994708	53248	0	1	2	53248	1	51200	0	53248	1	0.7	51200	purple	turquoise	0	0	ml	2.7.3	bip	sub-13_ses-02_task-ml_proj-bip_2021-01-20-10-20-42.861109
127	13	2	3	128	volatile	5	20	8	vs	turquoise	purple	purple	turquoise	right	left	0.7	0.30000000000000004	6	6	4.199999999999998	1.8000000000000005	1	0	0.30000000000000004	0.7	6	6	1.8000000000000005	4.199999999999998	valid	0.7998062119986571	53248	0	1	1	53248	1	53248	1	53248	1	0.7	53248	purple	turquoise	0	6	ml	2.7.3	bip	sub-13_ses-02_task-ml_proj-bip_2021-01-20-10-20-42.861109
128	13	2	3	129	volatile	5	20	9	vs	turquoise	purple	purple	turquoise	right	left	0.7	0.30000000000000004	2	4	1.4	1.2000000000000002	1	0	0.30000000000000004	0.7	4	2	1.2000000000000002	1.4	valid	0.6165285259994562	53248	0	1	1	53248	1	53248	1	51200	0	0.7	53248	purple	turquoise	0	2	ml	2.7.3	bip	sub-13_ses-02_task-ml_proj-bip_2021-01-20-10-20-42.861109
129	13	2	3	130	volatile	5	20	10	vs	purple	turquoise	purple	turquoise	left	right	0.7	0.30000000000000004	2	2	1.4	0.6000000000000001	1	0	0.7	0.30000000000000004	2	2	1.4	0.6000000000000001	valid	0.6664956660006283	51200	0	0	1	51200	1	51200	1	53248	0	0.7	51200	purple	turquoise	1	2	ml	2.7.3	bip	sub-13_ses-02_task-ml_proj-bip_2021-01-20-10-20-42.861109
130	13	2	3	131	volatile	5	20	11	vs	purple	turquoise	purple	turquoise	left	right	0.7	0.30000000000000004	2	4	1.4	1.2000000000000002	1	0	0.7	0.30000000000000004	2	4	1.4	1.2000000000000002	valid	1.016400157001044	51200	0	0	1	51200	1	51200	1	53248	0	0.7	51200	purple	turquoise	0	2	ml	2.7.3	bip	sub-13_ses-02_task-ml_proj-bip_2021-01-20-10-20-42.861109
131	13	2	3	132	volatile	5	20	12	vs	turquoise	purple	purple	turquoise	right	left	0.7	0.30000000000000004	2	4	1.4	1.2000000000000002	0	1	0.30000000000000004	0.7	4	2	1.2000000000000002	1.4	invalid	0.7164931799998158	51200	0	0	2	53248	0	53248	0	51200	1	0.7	53248	purple	turquoise	0	4	ml	2.7.3	bip	sub-13_ses-02_task-ml_proj-bip_2021-01-20-10-20-42.861109
132	13	2	3	133	volatile	5	20	13	vs	turquoise	purple	purple	turquoise	right	left	0.7	0.30000000000000004	6	2	4.199999999999998	0.6000000000000001	1	0	0.30000000000000004	0.7	2	6	0.6000000000000001	4.199999999999998	valid	0.9664233430012246	53248	0	1	1	53248	1	53248	1	53248	1	0.7	53248	purple	turquoise	1	6	ml	2.7.3	bip	sub-13_ses-02_task-ml_proj-bip_2021-01-20-10-20-42.861109
133	13	2	3	134	volatile	5	20	14	vs	turquoise	purple	purple	turquoise	right	left	0.7	0.30000000000000004	4	6	2.8	1.8000000000000005	1	0	0.30000000000000004	0.7	6	4	1.8000000000000005	2.8	valid	0.6165155240014428	51200	0	0	2	53248	0	53248	0	51200	1	0.7	53248	purple	turquoise	0	0	ml	2.7.3	bip	sub-13_ses-02_task-ml_proj-bip_2021-01-20-10-20-42.861109
134	13	2	3	135	volatile	5	20	15	vs	turquoise	purple	purple	turquoise	right	left	0.7	0.30000000000000004	10	2	7.0	0.6000000000000001	0	1	0.30000000000000004	0.7	2	10	0.6000000000000001	7.0	invalid	0.5998584940007277	53248	0	1	1	53248	1	53248	1	53248	1	0.7	53248	purple	turquoise	1	0	ml	2.7.3	bip	sub-13_ses-02_task-ml_proj-bip_2021-01-20-10-20-42.861109
135	13	2	3	136	volatile	5	20	16	vs	purple	turquoise	purple	turquoise	left	right	0.7	0.30000000000000004	6	4	4.199999999999998	1.2000000000000002	1	0	0.7	0.30000000000000004	6	4	4.199999999999998	1.2000000000000002	valid	0.8831074000008812	51200	0	0	1	51200	1	51200	1	51200	1	0.7	51200	purple	turquoise	1	6	ml	2.7.3	bip	sub-13_ses-02_task-ml_proj-bip_2021-01-20-10-20-42.861109
136	13	2	3	137	volatile	5	20	17	vs	turquoise	purple	purple	turquoise	right	left	0.7	0.30000000000000004	2	2	1.4	0.6000000000000001	1	0	0.30000000000000004	0.7	2	2	0.6000000000000001	1.4	valid	0.7331602499998553	53248	0	1	1	53248	1	53248	1	53248	1	0.7	53248	purple	turquoise	0	2	ml	2.7.3	bip	sub-13_ses-02_task-ml_proj-bip_2021-01-20-10-20-42.861109
137	13	2	3	138	volatile	5	20	18	vs	purple	turquoise	purple	turquoise	left	right	0.7	0.30000000000000004	4	6	2.8	1.8000000000000005	1	0	0.7	0.30000000000000004	4	6	2.8	1.8000000000000005	valid	1.133032579000428	51200	0	0	1	51200	1	51200	1	53248	0	0.7	51200	purple	turquoise	0	4	ml	2.7.3	bip	sub-13_ses-02_task-ml_proj-bip_2021-01-20-10-20-42.861109
138	13	2	3	139	volatile	5	20	19	vs	purple	turquoise	purple	turquoise	left	right	0.7	0.30000000000000004	10	2	7.0	0.6000000000000001	1	0	0.7	0.30000000000000004	10	2	7.0	0.6000000000000001	valid	0.7831291250004142	51200	0	0	1	51200	1	51200	1	51200	1	0.7	51200	purple	turquoise	1	10	ml	2.7.3	bip	sub-13_ses-02_task-ml_proj-bip_2021-01-20-10-20-42.861109
139	13	2	3	140	volatile	5	20	20	vs	turquoise	purple	purple	turquoise	right	left	0.7	0.30000000000000004	6	6	4.199999999999998	1.8000000000000005	1	0	0.30000000000000004	0.7	6	6	1.8000000000000005	4.199999999999998	valid	1.0663891209987924	53248	0	1	1	53248	1	53248	1	53248	1	0.7	53248	purple	turquoise	0	6	ml	2.7.3	bip	sub-13_ses-02_task-ml_proj-bip_2021-01-20-10-20-42.861109
140	13	2	3	141	volatile	6	20	1	vs	turquoise	purple	purple	turquoise	right	left	0.30000000000000004	0.7	2	4	0.6000000000000001	2.8	1	0	0.7	0.30000000000000004	4	2	2.8	0.6000000000000001	invalid	0.9997314790016391	53248	0	1	1	51200	0	51200	0	51200	0	0.7	51200	turquoise	purple	1	2	ml	2.7.3	bip	sub-13_ses-02_task-ml_proj-bip_2021-01-20-10-20-42.861109
141	13	2	3	142	volatile	6	20	2	vs	turquoise	purple	purple	turquoise	right	left	0.30000000000000004	0.7	4	6	1.2000000000000002	4.199999999999998	0	1	0.7	0.30000000000000004	6	4	4.199999999999998	1.2000000000000002	valid	0.5332163639995997	53248	0	1	1	51200	0	51200	0	51200	0	0.7	51200	turquoise	purple	1	0	ml	2.7.3	bip	sub-13_ses-02_task-ml_proj-bip_2021-01-20-10-20-42.861109
142	13	2	3	143	volatile	6	20	3	vs	purple	turquoise	purple	turquoise	left	right	0.30000000000000004	0.7	6	4	1.8000000000000005	2.8	0	1	0.30000000000000004	0.7	6	4	1.8000000000000005	2.8	valid	0.5665290050001204	51200	0	0	1	53248	0	53248	0	51200	1	0.7	53248	turquoise	purple	0	0	ml	2.7.3	bip	sub-13_ses-02_task-ml_proj-bip_2021-01-20-10-20-42.861109
143	13	2	3	144	volatile	6	20	4	vs	purple	turquoise	purple	turquoise	left	right	0.30000000000000004	0.7	4	6	1.2000000000000002	4.199999999999998	1	0	0.30000000000000004	0.7	4	6	1.2000000000000002	4.199999999999998	invalid	0.7164873969995824	53248	0	1	2	53248	1	53248	1	53248	1	0.7	53248	turquoise	purple	1	0	ml	2.7.3	bip	sub-13_ses-02_task-ml_proj-bip_2021-01-20-10-20-42.861109
144	13	2	3	145	volatile	6	20	5	vs	purple	turquoise	purple	turquoise	left	right	0.30000000000000004	0.7	2	10	0.6000000000000001	7.0	0	1	0.30000000000000004	0.7	2	10	0.6000000000000001	7.0	valid	0.9164337340007478	53248	0	1	2	53248	1	53248	1	53248	1	0.7	53248	turquoise	purple	1	10	ml	2.7.3	bip	sub-13_ses-02_task-ml_proj-bip_2021-01-20-10-20-42.861109
145	13	2	3	146	volatile	6	20	6	vs	purple	turquoise	purple	turquoise	left	right	0.30000000000000004	0.7	6	2	1.8000000000000005	1.4	0	1	0.30000000000000004	0.7	6	2	1.8000000000000005	1.4	valid	0.6831656550002663	51200	0	0	1	51200	1	53248	0	51200	1	0.7	53248	turquoise	purple	0	0	ml	2.7.3	bip	sub-13_ses-02_task-ml_proj-bip_2021-01-20-10-20-42.861109
146	13	2	3	147	volatile	6	20	7	vs	turquoise	purple	purple	turquoise	right	left	0.30000000000000004	0.7	4	2	1.2000000000000002	1.4	0	1	0.7	0.30000000000000004	2	4	1.4	1.2000000000000002	valid	0.7498206640011631	53248	0	1	1	51200	0	51200	0	53248	1	0.7	51200	turquoise	purple	0	0	ml	2.7.3	bip	sub-13_ses-02_task-ml_proj-bip_2021-01-20-10-20-42.861109
147	13	2	3	148	volatile	6	20	8	vs	purple	turquoise	purple	turquoise	left	right	0.30000000000000004	0.7	4	6	1.2000000000000002	4.199999999999998	1	0	0.30000000000000004	0.7	4	6	1.2000000000000002	4.199999999999998	invalid	0.8331178059997909	51200	0	0	1	53248	0	53248	0	53248	0	0.7	53248	turquoise	purple	1	4	ml	2.7.3	bip	sub-13_ses-02_task-ml_proj-bip_2021-01-20-10-20-42.861109
148	13	2	3	149	volatile	6	20	9	vs	turquoise	purple	purple	turquoise	right	left	0.30000000000000004	0.7	6	6	1.8000000000000005	4.199999999999998	0	1	0.7	0.30000000000000004	6	6	4.199999999999998	1.8000000000000005	valid	0.5665395169999101	53248	0	1	1	51200	0	51200	0	53248	1	0.7	51200	turquoise	purple	1	0	ml	2.7.3	bip	sub-13_ses-02_task-ml_proj-bip_2021-01-20-10-20-42.861109
149	13	2	3	150	volatile	6	20	10	vs	turquoise	purple	purple	turquoise	right	left	0.30000000000000004	0.7	4	2	1.2000000000000002	1.4	1	0	0.7	0.30000000000000004	2	4	1.4	1.2000000000000002	invalid	0.5665332330008823	53248	0	1	1	51200	0	51200	0	53248	1	0.7	51200	turquoise	purple	0	4	ml	2.7.3	bip	sub-13_ses-02_task-ml_proj-bip_2021-01-20-10-20-42.861109
150	13	2	4	151	volatile	6	20	11	vs	purple	turquoise	purple	turquoise	left	right	0.30000000000000004	0.7	2	6	0.6000000000000001	4.199999999999998	0	1	0.30000000000000004	0.7	2	6	0.6000000000000001	4.199999999999998	valid	0.6331857639997907	53248	0	1	2	53248	1	53248	1	53248	1	0.7	53248	turquoise	purple	1	6	ml	2.7.3	bip	sub-13_ses-02_task-ml_proj-bip_2021-01-20-10-20-42.861109
151	13	2	4	152	volatile	6	20	12	vs	turquoise	purple	purple	turquoise	right	left	0.30000000000000004	0.7	2	10	0.6000000000000001	7.0	0	1	0.7	0.30000000000000004	10	2	7.0	0.6000000000000001	valid	0.43323526099993614	51200	0	0	2	51200	1	51200	1	51200	1	0.7	51200	turquoise	purple	1	10	ml	2.7.3	bip	sub-13_ses-02_task-ml_proj-bip_2021-01-20-10-20-42.861109
152	13	2	4	153	volatile	6	20	13	vs	turquoise	purple	purple	turquoise	right	left	0.30000000000000004	0.7	2	2	0.6000000000000001	1.4	1	0	0.7	0.30000000000000004	2	2	1.4	0.6000000000000001	invalid	0.4665644350006914	51200	0	0	2	51200	1	51200	1	53248	0	0.7	51200	turquoise	purple	1	0	ml	2.7.3	bip	sub-13_ses-02_task-ml_proj-bip_2021-01-20-10-20-42.861109
153	13	2	4	154	volatile	6	20	14	vs	purple	turquoise	purple	turquoise	left	right	0.30000000000000004	0.7	6	2	1.8000000000000005	1.4	0	1	0.30000000000000004	0.7	6	2	1.8000000000000005	1.4	valid	0.6831614960010484	51200	0	0	1	51200	1	53248	0	51200	1	0.7	53248	turquoise	purple	0	0	ml	2.7.3	bip	sub-13_ses-02_task-ml_proj-bip_2021-01-20-10-20-42.861109
154	13	2	4	155	volatile	6	20	15	vs	purple	turquoise	purple	turquoise	left	right	0.30000000000000004	0.7	10	2	3.0000000000000004	1.4	1	0	0.30000000000000004	0.7	10	2	3.0000000000000004	1.4	invalid	0.5831923759997153	51200	0	0	1	51200	1	53248	0	51200	1	0.7	53248	turquoise	purple	0	10	ml	2.7.3	bip	sub-13_ses-02_task-ml_proj-bip_2021-01-20-10-20-42.861109
155	13	2	4	156	volatile	6	20	16	vs	turquoise	purple	purple	turquoise	right	left	0.30000000000000004	0.7	2	2	0.6000000000000001	1.4	0	1	0.7	0.30000000000000004	2	2	1.4	0.6000000000000001	valid	0.4832150139991427	51200	0	0	2	51200	1	51200	1	53248	0	0.7	51200	turquoise	purple	1	2	ml	2.7.3	bip	sub-13_ses-02_task-ml_proj-bip_2021-01-20-10-20-42.861109
156	13	2	4	157	volatile	6	20	17	vs	turquoise	purple	purple	turquoise	right	left	0.30000000000000004	0.7	6	2	1.8000000000000005	1.4	0	1	0.7	0.30000000000000004	2	6	1.4	1.8000000000000005	valid	0.8997787939988484	53248	0	1	1	53248	1	51200	0	53248	1	0.7	51200	turquoise	purple	0	0	ml	2.7.3	bip	sub-13_ses-02_task-ml_proj-bip_2021-01-20-10-20-42.861109
157	13	2	4	158	volatile	6	20	18	vs	turquoise	purple	purple	turquoise	right	left	0.30000000000000004	0.7	6	6	1.8000000000000005	4.199999999999998	0	1	0.7	0.30000000000000004	6	6	4.199999999999998	1.8000000000000005	valid	0.5165359800012084	51200	0	0	2	51200	1	51200	1	53248	0	0.7	51200	turquoise	purple	1	6	ml	2.7.3	bip	sub-13_ses-02_task-ml_proj-bip_2021-01-20-10-20-42.861109
158	13	2	4	159	volatile	6	20	19	vs	purple	turquoise	purple	turquoise	left	right	0.30000000000000004	0.7	4	2	1.2000000000000002	1.4	0	1	0.30000000000000004	0.7	4	2	1.2000000000000002	1.4	valid	0.8664521800001239	53248	0	1	2	53248	1	53248	1	51200	0	0.7	53248	turquoise	purple	0	2	ml	2.7.3	bip	sub-13_ses-02_task-ml_proj-bip_2021-01-20-10-20-42.861109
159	13	2	4	160	volatile	6	20	20	vs	purple	turquoise	purple	turquoise	left	right	0.30000000000000004	0.7	2	10	0.6000000000000001	7.0	0	1	0.30000000000000004	0.7	2	10	0.6000000000000001	7.0	valid	0.6331875329997274	53248	0	1	2	53248	1	53248	1	53248	1	0.7	53248	turquoise	purple	1	10	ml	2.7.3	bip	sub-13_ses-02_task-ml_proj-bip_2021-01-20-10-20-42.861109
160	13	2	4	161	volatile	7	40	1	vs	purple	turquoise	purple	turquoise	left	right	0.7	0.30000000000000004	2	2	1.4	0.6000000000000001	1	0	0.7	0.30000000000000004	2	2	1.4	0.6000000000000001	valid	0.7164952229995833	53248	0	1	2	51200	0	51200	0	53248	1	0.7	51200	purple	turquoise	1	0	ml	2.7.3	bip	sub-13_ses-02_task-ml_proj-bip_2021-01-20-10-20-42.861109
161	13	2	4	162	volatile	7	40	2	vs	purple	turquoise	purple	turquoise	left	right	0.7	0.30000000000000004	2	2	1.4	0.6000000000000001	1	0	0.7	0.30000000000000004	2	2	1.4	0.6000000000000001	valid	0.5165369730002567	51200	0	0	1	51200	1	51200	1	53248	0	0.7	51200	purple	turquoise	1	2	ml	2.7.3	bip	sub-13_ses-02_task-ml_proj-bip_2021-01-20-10-20-42.861109
162	13	2	4	163	volatile	7	40	3	vs	purple	turquoise	purple	turquoise	left	right	0.7	0.30000000000000004	10	2	7.0	0.6000000000000001	1	0	0.7	0.30000000000000004	10	2	7.0	0.6000000000000001	valid	0.5332117679990915	51200	0	0	1	51200	1	51200	1	51200	1	0.7	51200	purple	turquoise	1	10	ml	2.7.3	bip	sub-13_ses-02_task-ml_proj-bip_2021-01-20-10-20-42.861109
163	13	2	4	164	volatile	7	40	4	vs	turquoise	purple	purple	turquoise	right	left	0.7	0.30000000000000004	6	2	4.199999999999998	0.6000000000000001	1	0	0.30000000000000004	0.7	2	6	0.6000000000000001	4.199999999999998	valid	0.6831719470010285	53248	0	1	1	53248	1	53248	1	53248	1	0.7	53248	purple	turquoise	1	6	ml	2.7.3	bip	sub-13_ses-02_task-ml_proj-bip_2021-01-20-10-20-42.861109
164	13	2	4	165	volatile	7	40	5	vs	turquoise	purple	purple	turquoise	right	left	0.7	0.30000000000000004	10	2	7.0	0.6000000000000001	0	1	0.30000000000000004	0.7	2	10	0.6000000000000001	7.0	invalid	0.6831638900002872	53248	0	1	1	53248	1	53248	1	53248	1	0.7	53248	purple	turquoise	1	0	ml	2.7.3	bip	sub-13_ses-02_task-ml_proj-bip_2021-01-20-10-20-42.861109
165	13	2	4	166	volatile	7	40	6	vs	turquoise	purple	purple	turquoise	right	left	0.7	0.30000000000000004	10	2	7.0	0.6000000000000001	1	0	0.30000000000000004	0.7	2	10	0.6000000000000001	7.0	valid	0.616526931999033	53248	0	1	1	53248	1	53248	1	53248	1	0.7	53248	purple	turquoise	1	10	ml	2.7.3	bip	sub-13_ses-02_task-ml_proj-bip_2021-01-20-10-20-42.861109
166	13	2	4	167	volatile	7	40	7	vs	purple	turquoise	purple	turquoise	left	right	0.7	0.30000000000000004	4	6	2.8	1.8000000000000005	1	0	0.7	0.30000000000000004	4	6	2.8	1.8000000000000005	valid	0.7164840799996455	51200	0	0	1	51200	1	51200	1	53248	0	0.7	51200	purple	turquoise	0	4	ml	2.7.3	bip	sub-13_ses-02_task-ml_proj-bip_2021-01-20-10-20-42.861109
167	13	2	4	168	volatile	7	40	8	vs	purple	turquoise	purple	turquoise	left	right	0.7	0.30000000000000004	6	2	4.199999999999998	0.6000000000000001	1	0	0.7	0.30000000000000004	6	2	4.199999999999998	0.6000000000000001	valid	0.6831675619996531	53248	0	1	2	51200	0	51200	0	51200	0	0.7	51200	purple	turquoise	1	0	ml	2.7.3	bip	sub-13_ses-02_task-ml_proj-bip_2021-01-20-10-20-42.861109
168	13	2	4	169	volatile	7	40	9	vs	purple	turquoise	purple	turquoise	left	right	0.7	0.30000000000000004	4	6	2.8	1.8000000000000005	0	1	0.7	0.30000000000000004	4	6	2.8	1.8000000000000005	invalid	0.4665581579993159	51200	0	0	1	51200	1	51200	1	53248	0	0.7	51200	purple	turquoise	0	0	ml	2.7.3	bip	sub-13_ses-02_task-ml_proj-bip_2021-01-20-10-20-42.861109
169	13	2	4	170	volatile	7	40	10	vs	purple	turquoise	purple	turquoise	left	right	0.7	0.30000000000000004	6	6	4.199999999999998	1.8000000000000005	0	1	0.7	0.30000000000000004	6	6	4.199999999999998	1.8000000000000005	invalid	0.5165535420001106	53248	0	1	2	51200	0	51200	0	53248	1	0.7	51200	purple	turquoise	1	6	ml	2.7.3	bip	sub-13_ses-02_task-ml_proj-bip_2021-01-20-10-20-42.861109
170	13	2	4	171	volatile	7	40	11	vs	purple	turquoise	purple	turquoise	left	right	0.7	0.30000000000000004	2	4	1.4	1.2000000000000002	1	0	0.7	0.30000000000000004	2	4	1.4	1.2000000000000002	valid	0.5498737559992151	53248	0	1	2	51200	0	51200	0	53248	1	0.7	51200	purple	turquoise	0	0	ml	2.7.3	bip	sub-13_ses-02_task-ml_proj-bip_2021-01-20-10-20-42.861109
171	13	2	4	172	volatile	7	40	12	vs	turquoise	purple	purple	turquoise	right	left	0.7	0.30000000000000004	2	4	1.4	1.2000000000000002	1	0	0.30000000000000004	0.7	4	2	1.2000000000000002	1.4	valid	0.6498503889997664	53248	0	1	1	53248	1	53248	1	51200	0	0.7	53248	purple	turquoise	0	2	ml	2.7.3	bip	sub-13_ses-02_task-ml_proj-bip_2021-01-20-10-20-42.861109
172	13	2	4	173	volatile	7	40	13	vs	turquoise	purple	purple	turquoise	right	left	0.7	0.30000000000000004	2	4	1.4	1.2000000000000002	1	0	0.30000000000000004	0.7	4	2	1.2000000000000002	1.4	valid	0.8331282399994961	53248	0	1	1	53248	1	53248	1	51200	0	0.7	53248	purple	turquoise	0	2	ml	2.7.3	bip	sub-13_ses-02_task-ml_proj-bip_2021-01-20-10-20-42.861109
173	13	2	4	174	volatile	7	40	14	vs	turquoise	purple	purple	turquoise	right	left	0.7	0.30000000000000004	6	2	4.199999999999998	0.6000000000000001	0	1	0.30000000000000004	0.7	2	6	0.6000000000000001	4.199999999999998	invalid	0.6331882599988603	53248	0	1	1	53248	1	53248	1	53248	1	0.7	53248	purple	turquoise	1	0	ml	2.7.3	bip	sub-13_ses-02_task-ml_proj-bip_2021-01-20-10-20-42.861109
174	13	2	4	175	volatile	7	40	15	vs	turquoise	purple	purple	turquoise	right	left	0.7	0.30000000000000004	4	2	2.8	0.6000000000000001	1	0	0.30000000000000004	0.7	2	4	0.6000000000000001	2.8	valid	0.6831794449990412	53248	0	1	1	53248	1	53248	1	53248	1	0.7	53248	purple	turquoise	1	4	ml	2.7.3	bip	sub-13_ses-02_task-ml_proj-bip_2021-01-20-10-20-42.861109
175	13	2	4	176	volatile	7	40	16	vs	purple	turquoise	purple	turquoise	left	right	0.7	0.30000000000000004	6	4	4.199999999999998	1.2000000000000002	0	1	0.7	0.30000000000000004	6	4	4.199999999999998	1.2000000000000002	invalid	1.3329710540001545	51200	0	0	1	51200	1	51200	1	51200	1	0.7	51200	purple	turquoise	1	0	ml	2.7.3	bip	sub-13_ses-02_task-ml_proj-bip_2021-01-20-10-20-42.861109
176	13	2	4	177	volatile	7	40	17	vs	turquoise	purple	purple	turquoise	right	left	0.7	0.30000000000000004	2	2	1.4	0.6000000000000001	1	0	0.30000000000000004	0.7	2	2	0.6000000000000001	1.4	valid	0.6331605459999992	51200	0	0	2	53248	0	53248	0	53248	0	0.7	53248	purple	turquoise	0	0	ml	2.7.3	bip	sub-13_ses-02_task-ml_proj-bip_2021-01-20-10-20-42.861109
177	13	2	4	178	volatile	7	40	18	vs	purple	turquoise	purple	turquoise	left	right	0.7	0.30000000000000004	6	6	4.199999999999998	1.8000000000000005	1	0	0.7	0.30000000000000004	6	6	4.199999999999998	1.8000000000000005	valid	1.0163934950014664	51200	0	0	1	51200	1	51200	1	53248	0	0.7	51200	purple	turquoise	1	6	ml	2.7.3	bip	sub-13_ses-02_task-ml_proj-bip_2021-01-20-10-20-42.861109
178	13	2	4	179	volatile	7	40	19	vs	turquoise	purple	purple	turquoise	right	left	0.7	0.30000000000000004	4	2	2.8	0.6000000000000001	0	1	0.30000000000000004	0.7	2	4	0.6000000000000001	2.8	invalid	0.799805667000328	53248	0	1	1	53248	1	53248	1	53248	1	0.7	53248	purple	turquoise	1	0	ml	2.7.3	bip	sub-13_ses-02_task-ml_proj-bip_2021-01-20-10-20-42.861109
179	13	2	4	180	volatile	7	40	20	vs	turquoise	purple	purple	turquoise	right	left	0.7	0.30000000000000004	4	6	2.8	1.8000000000000005	1	0	0.30000000000000004	0.7	6	4	1.8000000000000005	2.8	valid	0.9331031350011472	53248	0	1	1	53248	1	53248	1	51200	0	0.7	53248	purple	turquoise	0	4	ml	2.7.3	bip	sub-13_ses-02_task-ml_proj-bip_2021-01-20-10-20-42.861109
180	13	2	4	181	volatile	7	40	21	vs	purple	turquoise	purple	turquoise	left	right	0.7	0.30000000000000004	10	2	7.0	0.6000000000000001	1	0	0.7	0.30000000000000004	10	2	7.0	0.6000000000000001	valid	0.7331465389997902	51200	0	0	1	51200	1	51200	1	51200	1	0.7	51200	purple	turquoise	1	10	ml	2.7.3	bip	sub-13_ses-02_task-ml_proj-bip_2021-01-20-10-20-42.861109
181	13	2	4	182	volatile	7	40	22	vs	turquoise	purple	purple	turquoise	right	left	0.7	0.30000000000000004	4	6	2.8	1.8000000000000005	0	1	0.30000000000000004	0.7	6	4	1.8000000000000005	2.8	invalid	0.7998088619988266	53248	0	1	1	53248	1	53248	1	51200	0	0.7	53248	purple	turquoise	0	0	ml	2.7.3	bip	sub-13_ses-02_task-ml_proj-bip_2021-01-20-10-20-42.861109
182	13	2	4	183	volatile	7	40	23	vs	purple	turquoise	purple	turquoise	left	right	0.7	0.30000000000000004	2	6	1.4	1.8000000000000005	1	0	0.7	0.30000000000000004	2	6	1.4	1.8000000000000005	valid	0.9164294780002821	51200	0	0	1	53248	0	51200	1	53248	0	0.7	51200	purple	turquoise	0	2	ml	2.7.3	bip	sub-13_ses-02_task-ml_proj-bip_2021-01-20-10-20-42.861109
183	13	2	4	184	volatile	7	40	24	vs	turquoise	purple	purple	turquoise	right	left	0.7	0.30000000000000004	6	4	4.199999999999998	1.2000000000000002	1	0	0.30000000000000004	0.7	4	6	1.2000000000000002	4.199999999999998	valid	0.5998642140002629	53248	0	1	1	53248	1	53248	1	53248	1	0.7	53248	purple	turquoise	1	6	ml	2.7.3	bip	sub-13_ses-02_task-ml_proj-bip_2021-01-20-10-20-42.861109
184	13	2	4	185	volatile	7	40	25	vs	turquoise	purple	purple	turquoise	right	left	0.7	0.30000000000000004	2	6	1.4	1.8000000000000005	1	0	0.30000000000000004	0.7	6	2	1.8000000000000005	1.4	valid	0.733147592000023	51200	0	0	2	51200	1	53248	0	51200	1	0.7	53248	purple	turquoise	0	0	ml	2.7.3	bip	sub-13_ses-02_task-ml_proj-bip_2021-01-20-10-20-42.861109
185	13	2	4	186	volatile	7	40	26	vs	purple	turquoise	purple	turquoise	left	right	0.7	0.30000000000000004	4	2	2.8	0.6000000000000001	0	1	0.7	0.30000000000000004	4	2	2.8	0.6000000000000001	invalid	0.7664769809998688	51200	0	0	1	51200	1	51200	1	51200	1	0.7	51200	purple	turquoise	1	0	ml	2.7.3	bip	sub-13_ses-02_task-ml_proj-bip_2021-01-20-10-20-42.861109
186	13	2	4	187	volatile	7	40	27	vs	purple	turquoise	purple	turquoise	left	right	0.7	0.30000000000000004	4	2	2.8	0.6000000000000001	0	1	0.7	0.30000000000000004	4	2	2.8	0.6000000000000001	invalid	0.7997960080010671	51200	0	0	1	51200	1	51200	1	51200	1	0.7	51200	purple	turquoise	1	0	ml	2.7.3	bip	sub-13_ses-02_task-ml_proj-bip_2021-01-20-10-20-42.861109
187	13	2	4	188	volatile	7	40	28	vs	purple	turquoise	purple	turquoise	left	right	0.7	0.30000000000000004	2	6	1.4	1.8000000000000005	0	1	0.7	0.30000000000000004	2	6	1.4	1.8000000000000005	invalid	0.4832297510001808	53248	0	1	2	53248	1	51200	0	53248	1	0.7	51200	purple	turquoise	0	6	ml	2.7.3	bip	sub-13_ses-02_task-ml_proj-bip_2021-01-20-10-20-42.861109
188	13	2	4	189	volatile	7	40	29	vs	purple	turquoise	purple	turquoise	left	right	0.7	0.30000000000000004	6	2	4.199999999999998	0.6000000000000001	1	0	0.7	0.30000000000000004	6	2	4.199999999999998	0.6000000000000001	valid	1.5662548960008282	53248	0	1	2	51200	0	51200	0	51200	0	0.7	51200	purple	turquoise	1	0	ml	2.7.3	bip	sub-13_ses-02_task-ml_proj-bip_2021-01-20-10-20-42.861109
189	13	2	4	190	volatile	7	40	30	vs	purple	turquoise	purple	turquoise	left	right	0.7	0.30000000000000004	6	2	4.199999999999998	0.6000000000000001	1	0	0.7	0.30000000000000004	6	2	4.199999999999998	0.6000000000000001	valid	0.6998353060007503	53248	0	1	2	51200	0	51200	0	51200	0	0.7	51200	purple	turquoise	1	0	ml	2.7.3	bip	sub-13_ses-02_task-ml_proj-bip_2021-01-20-10-20-42.861109
190	13	2	4	191	volatile	7	40	31	vs	turquoise	purple	purple	turquoise	right	left	0.7	0.30000000000000004	4	6	2.8	1.8000000000000005	0	1	0.30000000000000004	0.7	6	4	1.8000000000000005	2.8	invalid	1.1497040809990722	53248	0	1	1	53248	1	53248	1	51200	0	0.7	53248	purple	turquoise	0	0	ml	2.7.3	bip	sub-13_ses-02_task-ml_proj-bip_2021-01-20-10-20-42.861109
191	13	2	4	192	volatile	7	40	32	vs	purple	turquoise	purple	turquoise	left	right	0.7	0.30000000000000004	2	2	1.4	0.6000000000000001	1	0	0.7	0.30000000000000004	2	2	1.4	0.6000000000000001	valid	0.949763016000361	53248	0	1	2	51200	0	51200	0	53248	1	0.7	51200	purple	turquoise	1	0	ml	2.7.3	bip	sub-13_ses-02_task-ml_proj-bip_2021-01-20-10-20-42.861109
192	13	2	4	193	volatile	7	40	33	vs	turquoise	purple	purple	turquoise	right	left	0.7	0.30000000000000004	10	2	7.0	0.6000000000000001	0	1	0.30000000000000004	0.7	2	10	0.6000000000000001	7.0	invalid	0.5832016589993145	53248	0	1	1	53248	1	53248	1	53248	1	0.7	53248	purple	turquoise	1	0	ml	2.7.3	bip	sub-13_ses-02_task-ml_proj-bip_2021-01-20-10-20-42.861109
193	13	2	4	194	volatile	7	40	34	vs	purple	turquoise	purple	turquoise	left	right	0.7	0.30000000000000004	4	6	2.8	1.8000000000000005	1	0	0.7	0.30000000000000004	4	6	2.8	1.8000000000000005	valid	0.6331755480005086	51200	0	0	1	51200	1	51200	1	53248	0	0.7	51200	purple	turquoise	0	4	ml	2.7.3	bip	sub-13_ses-02_task-ml_proj-bip_2021-01-20-10-20-42.861109
194	13	2	4	195	volatile	7	40	35	vs	turquoise	purple	purple	turquoise	right	left	0.7	0.30000000000000004	6	6	4.199999999999998	1.8000000000000005	1	0	0.30000000000000004	0.7	6	6	1.8000000000000005	4.199999999999998	valid	1.366307442000107	53248	0	1	1	53248	1	53248	1	53248	1	0.7	53248	purple	turquoise	0	6	ml	2.7.3	bip	sub-13_ses-02_task-ml_proj-bip_2021-01-20-10-20-42.861109
195	13	2	4	196	volatile	7	40	36	vs	turquoise	purple	purple	turquoise	right	left	0.7	0.30000000000000004	6	6	4.199999999999998	1.8000000000000005	1	0	0.30000000000000004	0.7	6	6	1.8000000000000005	4.199999999999998	valid	0.6831721929993364	53248	0	1	1	53248	1	53248	1	53248	1	0.7	53248	purple	turquoise	0	6	ml	2.7.3	bip	sub-13_ses-02_task-ml_proj-bip_2021-01-20-10-20-42.861109
196	13	2	4	197	volatile	7	40	37	vs	purple	turquoise	purple	turquoise	left	right	0.7	0.30000000000000004	2	4	1.4	1.2000000000000002	1	0	0.7	0.30000000000000004	2	4	1.4	1.2000000000000002	valid	0.549868621999849	51200	0	0	1	51200	1	51200	1	53248	0	0.7	51200	purple	turquoise	0	2	ml	2.7.3	bip	sub-13_ses-02_task-ml_proj-bip_2021-01-20-10-20-42.861109
197	13	2	4	198	volatile	7	40	38	vs	turquoise	purple	purple	turquoise	right	left	0.7	0.30000000000000004	2	10	1.4	3.0000000000000004	1	0	0.30000000000000004	0.7	10	2	3.0000000000000004	1.4	valid	0.6831679349998012	51200	0	0	2	51200	1	53248	0	51200	1	0.7	53248	purple	turquoise	0	0	ml	2.7.3	bip	sub-13_ses-02_task-ml_proj-bip_2021-01-20-10-20-42.861109
198	13	2	4	199	volatile	7	40	39	vs	turquoise	purple	purple	turquoise	right	left	0.7	0.30000000000000004	10	2	7.0	0.6000000000000001	1	0	0.30000000000000004	0.7	2	10	0.6000000000000001	7.0	valid	0.6831727200005844	53248	0	1	1	53248	1	53248	1	53248	1	0.7	53248	purple	turquoise	1	10	ml	2.7.3	bip	sub-13_ses-02_task-ml_proj-bip_2021-01-20-10-20-42.861109
199	13	2	4	200	volatile	7	40	40	vs	turquoise	purple	purple	turquoise	right	left	0.7	0.30000000000000004	2	10	1.4	3.0000000000000004	1	0	0.30000000000000004	0.7	10	2	3.0000000000000004	1.4	valid	0.6664992990008614	51200	0	0	2	51200	1	53248	0	51200	1	0.7	53248	purple	turquoise	0	0	ml	2.7.3	bip	sub-13_ses-02_task-ml_proj-bip_2021-01-20-10-20-42.861109
200	13	2	5	201	stable	8	200	1	vs	purple	turquoise	purple	turquoise	left	right	0.30000000000000004	0.7	2	2	0.6000000000000001	1.4	0	1	0.30000000000000004	0.7	2	2	0.6000000000000001	1.4	valid	0.616517450000174	51200	0	0	1	53248	0	53248	0	53248	0	0.7	53248	turquoise	purple	0	0	ml	2.7.3	bip	sub-13_ses-02_task-ml_proj-bip_2021-01-20-10-20-42.861109
201	13	2	5	202	stable	8	200	2	vs	purple	turquoise	purple	turquoise	left	right	0.30000000000000004	0.7	2	6	0.6000000000000001	4.199999999999998	0	1	0.30000000000000004	0.7	2	6	0.6000000000000001	4.199999999999998	valid	0.3832579149984667	53248	0	1	2	53248	1	53248	1	53248	1	0.7	53248	turquoise	purple	1	6	ml	2.7.3	bip	sub-13_ses-02_task-ml_proj-bip_2021-01-20-10-20-42.861109
202	13	2	5	203	stable	8	200	3	vs	turquoise	purple	purple	turquoise	right	left	0.30000000000000004	0.7	6	2	1.8000000000000005	1.4	0	1	0.7	0.30000000000000004	2	6	1.4	1.8000000000000005	valid	0.6498289959999966	51200	0	0	2	53248	0	51200	1	53248	0	0.7	51200	turquoise	purple	0	2	ml	2.7.3	bip	sub-13_ses-02_task-ml_proj-bip_2021-01-20-10-20-42.861109
203	13	2	5	204	stable	8	200	4	vs	turquoise	purple	purple	turquoise	right	left	0.30000000000000004	0.7	2	10	0.6000000000000001	7.0	0	1	0.7	0.30000000000000004	10	2	7.0	0.6000000000000001	valid	0.4165715600011026	51200	0	0	2	51200	1	51200	1	51200	1	0.7	51200	turquoise	purple	1	10	ml	2.7.3	bip	sub-13_ses-02_task-ml_proj-bip_2021-01-20-10-20-42.861109
204	13	2	5	205	stable	8	200	5	vs	purple	turquoise	purple	turquoise	left	right	0.30000000000000004	0.7	4	2	1.2000000000000002	1.4	0	1	0.30000000000000004	0.7	4	2	1.2000000000000002	1.4	valid	0.6331896980009333	53248	0	1	2	53248	1	53248	1	51200	0	0.7	53248	turquoise	purple	0	2	ml	2.7.3	bip	sub-13_ses-02_task-ml_proj-bip_2021-01-20-10-20-42.861109
205	13	2	5	206	stable	8	200	6	vs	purple	turquoise	purple	turquoise	left	right	0.30000000000000004	0.7	4	2	1.2000000000000002	1.4	0	1	0.30000000000000004	0.7	4	2	1.2000000000000002	1.4	valid	0.5165438570002152	51200	0	0	1	53248	0	53248	0	51200	1	0.7	53248	turquoise	purple	0	0	ml	2.7.3	bip	sub-13_ses-02_task-ml_proj-bip_2021-01-20-10-20-42.861109
206	13	2	5	207	stable	8	200	7	vs	purple	turquoise	purple	turquoise	left	right	0.30000000000000004	0.7	4	2	1.2000000000000002	1.4	0	1	0.30000000000000004	0.7	4	2	1.2000000000000002	1.4	valid	0.43324597400169296	53248	0	1	2	53248	1	53248	1	51200	0	0.7	53248	turquoise	purple	0	2	ml	2.7.3	bip	sub-13_ses-02_task-ml_proj-bip_2021-01-20-10-20-42.861109
207	13	2	5	208	stable	8	200	8	vs	purple	turquoise	purple	turquoise	left	right	0.30000000000000004	0.7	4	2	1.2000000000000002	1.4	0	1	0.30000000000000004	0.7	4	2	1.2000000000000002	1.4	valid	0.5498788410004636	53248	0	1	2	53248	1	53248	1	51200	0	0.7	53248	turquoise	purple	0	2	ml	2.7.3	bip	sub-13_ses-02_task-ml_proj-bip_2021-01-20-10-20-42.861109
208	13	2	5	209	stable	8	200	9	vs	purple	turquoise	purple	turquoise	left	right	0.30000000000000004	0.7	4	2	1.2000000000000002	1.4	0	1	0.30000000000000004	0.7	4	2	1.2000000000000002	1.4	valid	0.6331882630001928	53248	0	1	2	53248	1	53248	1	51200	0	0.7	53248	turquoise	purple	0	2	ml	2.7.3	bip	sub-13_ses-02_task-ml_proj-bip_2021-01-20-10-20-42.861109
209	13	2	5	210	stable	8	200	10	vs	purple	turquoise	purple	turquoise	left	right	0.30000000000000004	0.7	6	2	1.8000000000000005	1.4	0	1	0.30000000000000004	0.7	6	2	1.8000000000000005	1.4	valid	0.5998626000000513	53248	0	1	2	51200	0	53248	1	51200	0	0.7	53248	turquoise	purple	0	2	ml	2.7.3	bip	sub-13_ses-02_task-ml_proj-bip_2021-01-20-10-20-42.861109
210	13	2	5	211	stable	8	200	11	vs	purple	turquoise	purple	turquoise	left	right	0.30000000000000004	0.7	6	6	1.8000000000000005	4.199999999999998	1	0	0.30000000000000004	0.7	6	6	1.8000000000000005	4.199999999999998	invalid	0.4998939840006642	53248	0	1	2	53248	1	53248	1	53248	1	0.7	53248	turquoise	purple	0	0	ml	2.7.3	bip	sub-13_ses-02_task-ml_proj-bip_2021-01-20-10-20-42.861109
211	13	2	5	212	stable	8	200	12	vs	turquoise	purple	purple	turquoise	right	left	0.30000000000000004	0.7	4	2	1.2000000000000002	1.4	1	0	0.7	0.30000000000000004	2	4	1.4	1.2000000000000002	invalid	0.6165135929986718	51200	0	0	2	51200	1	51200	1	53248	0	0.7	51200	turquoise	purple	0	0	ml	2.7.3	bip	sub-13_ses-02_task-ml_proj-bip_2021-01-20-10-20-42.861109
212	13	2	5	213	stable	8	200	13	vs	purple	turquoise	purple	turquoise	left	right	0.30000000000000004	0.7	2	6	0.6000000000000001	4.199999999999998	0	1	0.30000000000000004	0.7	2	6	0.6000000000000001	4.199999999999998	valid	0.4498983670000598	51200	0	0	1	53248	0	53248	0	53248	0	0.7	53248	turquoise	purple	1	0	ml	2.7.3	bip	sub-13_ses-02_task-ml_proj-bip_2021-01-20-10-20-42.861109
213	13	2	5	214	stable	8	200	14	vs	turquoise	purple	purple	turquoise	right	left	0.30000000000000004	0.7	6	4	1.8000000000000005	2.8	0	1	0.7	0.30000000000000004	4	6	2.8	1.8000000000000005	valid	0.7498187629989843	53248	0	1	1	51200	0	51200	0	53248	1	0.7	51200	turquoise	purple	0	0	ml	2.7.3	bip	sub-13_ses-02_task-ml_proj-bip_2021-01-20-10-20-42.861109
214	13	2	5	215	stable	8	200	15	vs	turquoise	purple	purple	turquoise	right	left	0.30000000000000004	0.7	2	2	0.6000000000000001	1.4	1	0	0.7	0.30000000000000004	2	2	1.4	0.6000000000000001	invalid	0.7831440509999084	53248	0	1	1	51200	0	51200	0	53248	1	0.7	51200	turquoise	purple	1	2	ml	2.7.3	bip	sub-13_ses-02_task-ml_proj-bip_2021-01-20-10-20-42.861109
215	13	2	5	216	stable	8	200	16	vs	turquoise	purple	purple	turquoise	right	left	0.30000000000000004	0.7	6	4	1.8000000000000005	2.8	0	1	0.7	0.30000000000000004	4	6	2.8	1.8000000000000005	valid	0.766513254999154	53248	0	1	1	51200	0	51200	0	53248	1	0.7	51200	turquoise	purple	0	0	ml	2.7.3	bip	sub-13_ses-02_task-ml_proj-bip_2021-01-20-10-20-42.861109
216	13	2	5	217	stable	8	200	17	vs	turquoise	purple	purple	turquoise	right	left	0.30000000000000004	0.7	10	2	3.0000000000000004	1.4	0	1	0.7	0.30000000000000004	2	10	1.4	3.0000000000000004	valid	0.6165274380000483	53248	0	1	1	53248	1	51200	0	53248	1	0.7	51200	turquoise	purple	0	0	ml	2.7.3	bip	sub-13_ses-02_task-ml_proj-bip_2021-01-20-10-20-42.861109
217	13	2	5	218	stable	8	200	18	vs	purple	turquoise	purple	turquoise	left	right	0.30000000000000004	0.7	4	6	1.2000000000000002	4.199999999999998	0	1	0.30000000000000004	0.7	4	6	1.2000000000000002	4.199999999999998	valid	0.68317398399995	53248	0	1	2	53248	1	53248	1	53248	1	0.7	53248	turquoise	purple	1	6	ml	2.7.3	bip	sub-13_ses-02_task-ml_proj-bip_2021-01-20-10-20-42.861109
218	13	2	5	219	stable	8	200	19	vs	purple	turquoise	purple	turquoise	left	right	0.30000000000000004	0.7	2	10	0.6000000000000001	7.0	1	0	0.30000000000000004	0.7	2	10	0.6000000000000001	7.0	invalid	0.3999229900000501	53248	0	1	2	53248	1	53248	1	53248	1	0.7	53248	turquoise	purple	1	0	ml	2.7.3	bip	sub-13_ses-02_task-ml_proj-bip_2021-01-20-10-20-42.861109
219	13	2	5	220	stable	8	200	20	vs	purple	turquoise	purple	turquoise	left	right	0.30000000000000004	0.7	6	4	1.8000000000000005	2.8	0	1	0.30000000000000004	0.7	6	4	1.8000000000000005	2.8	valid	0.4998749619990122	51200	0	0	1	53248	0	53248	0	51200	1	0.7	53248	turquoise	purple	0	0	ml	2.7.3	bip	sub-13_ses-02_task-ml_proj-bip_2021-01-20-10-20-42.861109
220	13	2	5	221	stable	8	200	21	vs	turquoise	purple	purple	turquoise	right	left	0.30000000000000004	0.7	6	4	1.8000000000000005	2.8	0	1	0.7	0.30000000000000004	4	6	2.8	1.8000000000000005	valid	0.6498505569998088	53248	0	1	1	51200	0	51200	0	53248	1	0.7	51200	turquoise	purple	0	0	ml	2.7.3	bip	sub-13_ses-02_task-ml_proj-bip_2021-01-20-10-20-42.861109
221	13	2	5	222	stable	8	200	22	vs	purple	turquoise	purple	turquoise	left	right	0.30000000000000004	0.7	10	2	3.0000000000000004	1.4	0	1	0.30000000000000004	0.7	10	2	3.0000000000000004	1.4	valid	0.5831835899989528	51200	0	0	1	51200	1	53248	0	51200	1	0.7	53248	turquoise	purple	0	0	ml	2.7.3	bip	sub-13_ses-02_task-ml_proj-bip_2021-01-20-10-20-42.861109
222	13	2	5	223	stable	8	200	23	vs	purple	turquoise	purple	turquoise	left	right	0.30000000000000004	0.7	4	2	1.2000000000000002	1.4	0	1	0.30000000000000004	0.7	4	2	1.2000000000000002	1.4	valid	0.483230560001175	53248	0	1	2	53248	1	53248	1	51200	0	0.7	53248	turquoise	purple	0	2	ml	2.7.3	bip	sub-13_ses-02_task-ml_proj-bip_2021-01-20-10-20-42.861109
223	13	2	5	224	stable	8	200	24	vs	turquoise	purple	purple	turquoise	right	left	0.30000000000000004	0.7	2	6	0.6000000000000001	4.199999999999998	1	0	0.7	0.30000000000000004	6	2	4.199999999999998	0.6000000000000001	invalid	0.5165454869984387	51200	0	0	2	51200	1	51200	1	51200	1	0.7	51200	turquoise	purple	1	0	ml	2.7.3	bip	sub-13_ses-02_task-ml_proj-bip_2021-01-20-10-20-42.861109
224	13	2	5	225	stable	8	200	25	vs	turquoise	purple	purple	turquoise	right	left	0.30000000000000004	0.7	6	2	1.8000000000000005	1.4	0	1	0.7	0.30000000000000004	2	6	1.4	1.8000000000000005	valid	2.016107457999169	51200	0	0	2	53248	0	51200	1	53248	0	0.7	51200	turquoise	purple	0	2	ml	2.7.3	bip	sub-13_ses-02_task-ml_proj-bip_2021-01-20-10-20-42.861109
225	13	2	5	226	stable	8	200	26	vs	turquoise	purple	purple	turquoise	right	left	0.30000000000000004	0.7	6	4	1.8000000000000005	2.8	0	1	0.7	0.30000000000000004	4	6	2.8	1.8000000000000005	valid	0.4165706880012294	51200	0	0	2	51200	1	51200	1	53248	0	0.7	51200	turquoise	purple	0	4	ml	2.7.3	bip	sub-13_ses-02_task-ml_proj-bip_2021-01-20-10-20-42.861109
226	13	2	5	227	stable	8	200	27	vs	purple	turquoise	purple	turquoise	left	right	0.30000000000000004	0.7	2	10	0.6000000000000001	7.0	0	1	0.30000000000000004	0.7	2	10	0.6000000000000001	7.0	valid	0.6998293990000093	53248	0	1	2	53248	1	53248	1	53248	1	0.7	53248	turquoise	purple	1	10	ml	2.7.3	bip	sub-13_ses-02_task-ml_proj-bip_2021-01-20-10-20-42.861109
227	13	2	5	228	stable	8	200	28	vs	purple	turquoise	purple	turquoise	left	right	0.30000000000000004	0.7	2	6	0.6000000000000001	4.199999999999998	1	0	0.30000000000000004	0.7	2	6	0.6000000000000001	4.199999999999998	invalid	0.966425466000146	53248	0	1	2	53248	1	53248	1	53248	1	0.7	53248	turquoise	purple	1	0	ml	2.7.3	bip	sub-13_ses-02_task-ml_proj-bip_2021-01-20-10-20-42.861109
228	13	2	5	229	stable	8	200	29	vs	purple	turquoise	purple	turquoise	left	right	0.30000000000000004	0.7	2	4	0.6000000000000001	2.8	1	0	0.30000000000000004	0.7	2	4	0.6000000000000001	2.8	invalid	0.4665634730008605	53248	0	1	2	53248	1	53248	1	53248	1	0.7	53248	turquoise	purple	1	0	ml	2.7.3	bip	sub-13_ses-02_task-ml_proj-bip_2021-01-20-10-20-42.861109
229	13	2	5	230	stable	8	200	30	vs	purple	turquoise	purple	turquoise	left	right	0.30000000000000004	0.7	2	10	0.6000000000000001	7.0	0	1	0.30000000000000004	0.7	2	10	0.6000000000000001	7.0	valid	0.8664597169990884	53248	0	1	2	53248	1	53248	1	53248	1	0.7	53248	turquoise	purple	1	10	ml	2.7.3	bip	sub-13_ses-02_task-ml_proj-bip_2021-01-20-10-20-42.861109
230	13	2	5	231	stable	8	200	31	vs	turquoise	purple	purple	turquoise	right	left	0.30000000000000004	0.7	4	2	1.2000000000000002	1.4	0	1	0.7	0.30000000000000004	2	4	1.4	1.2000000000000002	valid	0.8164666680004302	53248	0	1	1	51200	0	51200	0	53248	1	0.7	51200	turquoise	purple	0	0	ml	2.7.3	bip	sub-13_ses-02_task-ml_proj-bip_2021-01-20-10-20-42.861109
231	13	2	5	232	stable	8	200	32	vs	purple	turquoise	purple	turquoise	left	right	0.30000000000000004	0.7	4	6	1.2000000000000002	4.199999999999998	1	0	0.30000000000000004	0.7	4	6	1.2000000000000002	4.199999999999998	invalid	0.7498075990006328	51200	0	0	1	53248	0	53248	0	53248	0	0.7	53248	turquoise	purple	1	4	ml	2.7.3	bip	sub-13_ses-02_task-ml_proj-bip_2021-01-20-10-20-42.861109
232	13	2	5	233	stable	8	200	33	vs	purple	turquoise	purple	turquoise	left	right	0.30000000000000004	0.7	4	6	1.2000000000000002	4.199999999999998	1	0	0.30000000000000004	0.7	4	6	1.2000000000000002	4.199999999999998	invalid	0.6665218340003776	53248	0	1	2	53248	1	53248	1	53248	1	0.7	53248	turquoise	purple	1	0	ml	2.7.3	bip	sub-13_ses-02_task-ml_proj-bip_2021-01-20-10-20-42.861109
233	13	2	5	234	stable	8	200	34	vs	purple	turquoise	purple	turquoise	left	right	0.30000000000000004	0.7	10	2	3.0000000000000004	1.4	1	0	0.30000000000000004	0.7	10	2	3.0000000000000004	1.4	invalid	0.4665537159999076	51200	0	0	1	51200	1	53248	0	51200	1	0.7	53248	turquoise	purple	0	10	ml	2.7.3	bip	sub-13_ses-02_task-ml_proj-bip_2021-01-20-10-20-42.861109
234	13	2	5	235	stable	8	200	35	vs	turquoise	purple	purple	turquoise	right	left	0.30000000000000004	0.7	6	6	1.8000000000000005	4.199999999999998	1	0	0.7	0.30000000000000004	6	6	4.199999999999998	1.8000000000000005	invalid	0.4332486149996839	53248	0	1	1	51200	0	51200	0	53248	1	0.7	51200	turquoise	purple	1	6	ml	2.7.3	bip	sub-13_ses-02_task-ml_proj-bip_2021-01-20-10-20-42.861109
235	13	2	5	236	stable	8	200	36	vs	purple	turquoise	purple	turquoise	left	right	0.30000000000000004	0.7	10	2	3.0000000000000004	1.4	0	1	0.30000000000000004	0.7	10	2	3.0000000000000004	1.4	valid	0.4665594790003525	51200	0	0	1	51200	1	53248	0	51200	1	0.7	53248	turquoise	purple	0	0	ml	2.7.3	bip	sub-13_ses-02_task-ml_proj-bip_2021-01-20-10-20-42.861109
236	13	2	5	237	stable	8	200	37	vs	turquoise	purple	purple	turquoise	right	left	0.30000000000000004	0.7	4	6	1.2000000000000002	4.199999999999998	1	0	0.7	0.30000000000000004	6	4	4.199999999999998	1.2000000000000002	invalid	0.5165563900009147	53248	0	1	1	51200	0	51200	0	51200	0	0.7	51200	turquoise	purple	1	4	ml	2.7.3	bip	sub-13_ses-02_task-ml_proj-bip_2021-01-20-10-20-42.861109
237	13	2	5	238	stable	8	200	38	vs	purple	turquoise	purple	turquoise	left	right	0.30000000000000004	0.7	4	6	1.2000000000000002	4.199999999999998	0	1	0.30000000000000004	0.7	4	6	1.2000000000000002	4.199999999999998	valid	0.5831909609987633	51200	0	0	1	53248	0	53248	0	53248	0	0.7	53248	turquoise	purple	1	0	ml	2.7.3	bip	sub-13_ses-02_task-ml_proj-bip_2021-01-20-10-20-42.861109
238	13	2	5	239	stable	8	200	39	vs	purple	turquoise	purple	turquoise	left	right	0.30000000000000004	0.7	4	6	1.2000000000000002	4.199999999999998	1	0	0.30000000000000004	0.7	4	6	1.2000000000000002	4.199999999999998	invalid	0.4998960899993108	53248	0	1	2	53248	1	53248	1	53248	1	0.7	53248	turquoise	purple	1	0	ml	2.7.3	bip	sub-13_ses-02_task-ml_proj-bip_2021-01-20-10-20-42.861109
239	13	2	5	240	stable	8	200	40	vs	purple	turquoise	purple	turquoise	left	right	0.30000000000000004	0.7	2	6	0.6000000000000001	4.199999999999998	0	1	0.30000000000000004	0.7	2	6	0.6000000000000001	4.199999999999998	valid	0.4665698969984078	53248	0	1	2	53248	1	53248	1	53248	1	0.7	53248	turquoise	purple	1	6	ml	2.7.3	bip	sub-13_ses-02_task-ml_proj-bip_2021-01-20-10-20-42.861109
240	13	2	5	241	stable	8	200	41	vs	turquoise	purple	purple	turquoise	right	left	0.30000000000000004	0.7	10	2	3.0000000000000004	1.4	0	1	0.7	0.30000000000000004	2	10	1.4	3.0000000000000004	valid	0.7164929309983563	53248	0	1	1	53248	1	51200	0	53248	1	0.7	51200	turquoise	purple	0	0	ml	2.7.3	bip	sub-13_ses-02_task-ml_proj-bip_2021-01-20-10-20-42.861109
241	13	2	5	242	stable	8	200	42	vs	turquoise	purple	purple	turquoise	right	left	0.30000000000000004	0.7	2	2	0.6000000000000001	1.4	0	1	0.7	0.30000000000000004	2	2	1.4	0.6000000000000001	valid	1.0663961989994275	53248	0	1	1	51200	0	51200	0	53248	1	0.7	51200	turquoise	purple	1	0	ml	2.7.3	bip	sub-13_ses-02_task-ml_proj-bip_2021-01-20-10-20-42.861109
242	13	2	5	243	stable	8	200	43	vs	purple	turquoise	purple	turquoise	left	right	0.30000000000000004	0.7	4	6	1.2000000000000002	4.199999999999998	0	1	0.30000000000000004	0.7	4	6	1.2000000000000002	4.199999999999998	valid	0.5665388729994447	53248	0	1	2	53248	1	53248	1	53248	1	0.7	53248	turquoise	purple	1	6	ml	2.7.3	bip	sub-13_ses-02_task-ml_proj-bip_2021-01-20-10-20-42.861109
243	13	2	5	244	stable	8	200	44	vs	purple	turquoise	purple	turquoise	left	right	0.30000000000000004	0.7	2	10	0.6000000000000001	7.0	0	1	0.30000000000000004	0.7	2	10	0.6000000000000001	7.0	valid	0.5332187249987328	53248	0	1	2	53248	1	53248	1	53248	1	0.7	53248	turquoise	purple	1	10	ml	2.7.3	bip	sub-13_ses-02_task-ml_proj-bip_2021-01-20-10-20-42.861109
244	13	2	5	245	stable	8	200	45	vs	turquoise	purple	purple	turquoise	right	left	0.30000000000000004	0.7	2	10	0.6000000000000001	7.0	0	1	0.7	0.30000000000000004	10	2	7.0	0.6000000000000001	valid	0.6331870070007426	51200	0	0	2	51200	1	51200	1	51200	1	0.7	51200	turquoise	purple	1	10	ml	2.7.3	bip	sub-13_ses-02_task-ml_proj-bip_2021-01-20-10-20-42.861109
245	13	2	5	246	stable	8	200	46	vs	purple	turquoise	purple	turquoise	left	right	0.30000000000000004	0.7	10	2	3.0000000000000004	1.4	0	1	0.30000000000000004	0.7	10	2	3.0000000000000004	1.4	valid	0.5165574439997727	53248	0	1	2	51200	0	53248	1	51200	0	0.7	53248	turquoise	purple	0	2	ml	2.7.3	bip	sub-13_ses-02_task-ml_proj-bip_2021-01-20-10-20-42.861109
246	13	2	5	247	stable	8	200	47	vs	purple	turquoise	purple	turquoise	left	right	0.30000000000000004	0.7	6	4	1.8000000000000005	2.8	0	1	0.30000000000000004	0.7	6	4	1.8000000000000005	2.8	valid	0.4499087429994688	53248	0	1	2	53248	1	53248	1	51200	0	0.7	53248	turquoise	purple	0	4	ml	2.7.3	bip	sub-13_ses-02_task-ml_proj-bip_2021-01-20-10-20-42.861109
247	13	2	5	248	stable	8	200	48	vs	purple	turquoise	purple	turquoise	left	right	0.30000000000000004	0.7	6	4	1.8000000000000005	2.8	0	1	0.30000000000000004	0.7	6	4	1.8000000000000005	2.8	valid	0.6998355030009407	53248	0	1	2	53248	1	53248	1	51200	0	0.7	53248	turquoise	purple	0	4	ml	2.7.3	bip	sub-13_ses-02_task-ml_proj-bip_2021-01-20-10-20-42.861109
248	13	2	5	249	stable	8	200	49	vs	purple	turquoise	purple	turquoise	left	right	0.30000000000000004	0.7	2	10	0.6000000000000001	7.0	1	0	0.30000000000000004	0.7	2	10	0.6000000000000001	7.0	invalid	0.6498548070012475	53248	0	1	2	53248	1	53248	1	53248	1	0.7	53248	turquoise	purple	1	0	ml	2.7.3	bip	sub-13_ses-02_task-ml_proj-bip_2021-01-20-10-20-42.861109
249	13	2	5	250	stable	8	200	50	vs	turquoise	purple	purple	turquoise	right	left	0.30000000000000004	0.7	4	2	1.2000000000000002	1.4	0	1	0.7	0.30000000000000004	2	4	1.4	1.2000000000000002	valid	0.4998936930005584	53248	0	1	1	51200	0	51200	0	53248	1	0.7	51200	turquoise	purple	0	0	ml	2.7.3	bip	sub-13_ses-02_task-ml_proj-bip_2021-01-20-10-20-42.861109
250	13	2	6	251	stable	8	200	51	vs	turquoise	purple	purple	turquoise	right	left	0.30000000000000004	0.7	2	4	0.6000000000000001	2.8	0	1	0.7	0.30000000000000004	4	2	2.8	0.6000000000000001	valid	0.5998548890001985	51200	0	0	2	51200	1	51200	1	51200	1	0.7	51200	turquoise	purple	1	4	ml	2.7.3	bip	sub-13_ses-02_task-ml_proj-bip_2021-01-20-10-20-42.861109
251	13	2	6	252	stable	8	200	52	vs	purple	turquoise	purple	turquoise	left	right	0.30000000000000004	0.7	4	2	1.2000000000000002	1.4	0	1	0.30000000000000004	0.7	4	2	1.2000000000000002	1.4	valid	0.7498009800001455	51200	0	0	1	53248	0	53248	0	51200	1	0.7	53248	turquoise	purple	0	0	ml	2.7.3	bip	sub-13_ses-02_task-ml_proj-bip_2021-01-20-10-20-42.861109
252	13	2	6	253	stable	8	200	53	vs	purple	turquoise	purple	turquoise	left	right	0.30000000000000004	0.7	6	6	1.8000000000000005	4.199999999999998	0	1	0.30000000000000004	0.7	6	6	1.8000000000000005	4.199999999999998	valid	0.4332470120007201	53248	0	1	2	53248	1	53248	1	53248	1	0.7	53248	turquoise	purple	0	6	ml	2.7.3	bip	sub-13_ses-02_task-ml_proj-bip_2021-01-20-10-20-42.861109
253	13	2	6	254	stable	8	200	54	vs	turquoise	purple	purple	turquoise	right	left	0.30000000000000004	0.7	2	4	0.6000000000000001	2.8	0	1	0.7	0.30000000000000004	4	2	2.8	0.6000000000000001	valid	0.4332369130006555	51200	0	0	2	51200	1	51200	1	51200	1	0.7	51200	turquoise	purple	1	4	ml	2.7.3	bip	sub-13_ses-02_task-ml_proj-bip_2021-01-20-10-20-42.861109
254	13	2	6	255	stable	8	200	55	vs	turquoise	purple	purple	turquoise	right	left	0.30000000000000004	0.7	6	6	1.8000000000000005	4.199999999999998	1	0	0.7	0.30000000000000004	6	6	4.199999999999998	1.8000000000000005	invalid	0.4332339199991111	51200	0	0	2	51200	1	51200	1	53248	0	0.7	51200	turquoise	purple	1	0	ml	2.7.3	bip	sub-13_ses-02_task-ml_proj-bip_2021-01-20-10-20-42.861109
255	13	2	6	256	stable	8	200	56	vs	turquoise	purple	purple	turquoise	right	left	0.30000000000000004	0.7	10	2	3.0000000000000004	1.4	1	0	0.7	0.30000000000000004	2	10	1.4	3.0000000000000004	invalid	0.4665798930000165	53248	0	1	1	53248	1	51200	0	53248	1	0.7	51200	turquoise	purple	0	10	ml	2.7.3	bip	sub-13_ses-02_task-ml_proj-bip_2021-01-20-10-20-42.861109
256	13	2	6	257	stable	8	200	57	vs	turquoise	purple	purple	turquoise	right	left	0.30000000000000004	0.7	6	6	1.8000000000000005	4.199999999999998	0	1	0.7	0.30000000000000004	6	6	4.199999999999998	1.8000000000000005	valid	0.416586738998376	53248	0	1	1	51200	0	51200	0	53248	1	0.7	51200	turquoise	purple	1	0	ml	2.7.3	bip	sub-13_ses-02_task-ml_proj-bip_2021-01-20-10-20-42.861109
257	13	2	6	258	stable	8	200	58	vs	turquoise	purple	purple	turquoise	right	left	0.30000000000000004	0.7	6	6	1.8000000000000005	4.199999999999998	1	0	0.7	0.30000000000000004	6	6	4.199999999999998	1.8000000000000005	invalid	0.4998902309998812	53248	0	1	1	51200	0	51200	0	53248	1	0.7	51200	turquoise	purple	1	6	ml	2.7.3	bip	sub-13_ses-02_task-ml_proj-bip_2021-01-20-10-20-42.861109
258	13	2	6	259	stable	8	200	59	vs	turquoise	purple	purple	turquoise	right	left	0.30000000000000004	0.7	2	6	0.6000000000000001	4.199999999999998	0	1	0.7	0.30000000000000004	6	2	4.199999999999998	0.6000000000000001	valid	0.4665559120003309	51200	0	0	2	51200	1	51200	1	51200	1	0.7	51200	turquoise	purple	1	6	ml	2.7.3	bip	sub-13_ses-02_task-ml_proj-bip_2021-01-20-10-20-42.861109
259	13	2	6	260	stable	8	200	60	vs	turquoise	purple	purple	turquoise	right	left	0.30000000000000004	0.7	10	2	3.0000000000000004	1.4	0	1	0.7	0.30000000000000004	2	10	1.4	3.0000000000000004	valid	0.5498703829998703	53248	0	1	1	53248	1	51200	0	53248	1	0.7	51200	turquoise	purple	0	0	ml	2.7.3	bip	sub-13_ses-02_task-ml_proj-bip_2021-01-20-10-20-42.861109
260	13	2	6	261	stable	8	200	61	vs	purple	turquoise	purple	turquoise	left	right	0.30000000000000004	0.7	6	6	1.8000000000000005	4.199999999999998	1	0	0.30000000000000004	0.7	6	6	1.8000000000000005	4.199999999999998	invalid	0.849793318000593	53248	0	1	2	53248	1	53248	1	53248	1	0.7	53248	turquoise	purple	0	0	ml	2.7.3	bip	sub-13_ses-02_task-ml_proj-bip_2021-01-20-10-20-42.861109
261	13	2	6	262	stable	8	200	62	vs	turquoise	purple	purple	turquoise	right	left	0.30000000000000004	0.7	4	6	1.2000000000000002	4.199999999999998	0	1	0.7	0.30000000000000004	6	4	4.199999999999998	1.2000000000000002	valid	0.5165488189995813	53248	0	1	1	51200	0	51200	0	51200	0	0.7	51200	turquoise	purple	1	0	ml	2.7.3	bip	sub-13_ses-02_task-ml_proj-bip_2021-01-20-10-20-42.861109
262	13	2	6	263	stable	8	200	63	vs	purple	turquoise	purple	turquoise	left	right	0.30000000000000004	0.7	2	6	0.6000000000000001	4.199999999999998	0	1	0.30000000000000004	0.7	2	6	0.6000000000000001	4.199999999999998	valid	0.6665099870006088	53248	0	1	2	53248	1	53248	1	53248	1	0.7	53248	turquoise	purple	1	6	ml	2.7.3	bip	sub-13_ses-02_task-ml_proj-bip_2021-01-20-10-20-42.861109
263	13	2	6	264	stable	8	200	64	vs	turquoise	purple	purple	turquoise	right	left	0.30000000000000004	0.7	2	4	0.6000000000000001	2.8	0	1	0.7	0.30000000000000004	4	2	2.8	0.6000000000000001	valid	1.0497238899988588	51200	0	0	2	51200	1	51200	1	51200	1	0.7	51200	turquoise	purple	1	4	ml	2.7.3	bip	sub-13_ses-02_task-ml_proj-bip_2021-01-20-10-20-42.861109
264	13	2	6	265	stable	8	200	65	vs	purple	turquoise	purple	turquoise	left	right	0.30000000000000004	0.7	6	4	1.8000000000000005	2.8	0	1	0.30000000000000004	0.7	6	4	1.8000000000000005	2.8	valid	1.2663336900004651	51200	0	0	1	53248	0	53248	0	51200	1	0.7	53248	turquoise	purple	0	0	ml	2.7.3	bip	sub-13_ses-02_task-ml_proj-bip_2021-01-20-10-20-42.861109
265	13	2	6	266	stable	8	200	66	vs	turquoise	purple	purple	turquoise	right	left	0.30000000000000004	0.7	6	2	1.8000000000000005	1.4	0	1	0.7	0.30000000000000004	2	6	1.4	1.8000000000000005	valid	0.5498803479986236	53248	0	1	1	53248	1	51200	0	53248	1	0.7	51200	turquoise	purple	0	0	ml	2.7.3	bip	sub-13_ses-02_task-ml_proj-bip_2021-01-20-10-20-42.861109
266	13	2	6	267	stable	8	200	67	vs	purple	turquoise	purple	turquoise	left	right	0.30000000000000004	0.7	4	6	1.2000000000000002	4.199999999999998	0	1	0.30000000000000004	0.7	4	6	1.2000000000000002	4.199999999999998	valid	0.4832369510004355	53248	0	1	2	53248	1	53248	1	53248	1	0.7	53248	turquoise	purple	1	6	ml	2.7.3	bip	sub-13_ses-02_task-ml_proj-bip_2021-01-20-10-20-42.861109
267	13	2	6	268	stable	8	200	68	vs	purple	turquoise	purple	turquoise	left	right	0.30000000000000004	0.7	6	2	1.8000000000000005	1.4	0	1	0.30000000000000004	0.7	6	2	1.8000000000000005	1.4	valid	0.6331783229998109	51200	0	0	1	51200	1	53248	0	51200	1	0.7	53248	turquoise	purple	0	0	ml	2.7.3	bip	sub-13_ses-02_task-ml_proj-bip_2021-01-20-10-20-42.861109
268	13	2	6	269	stable	8	200	69	vs	turquoise	purple	purple	turquoise	right	left	0.30000000000000004	0.7	4	2	1.2000000000000002	1.4	1	0	0.7	0.30000000000000004	2	4	1.4	1.2000000000000002	invalid	0.7164807270000892	51200	0	0	2	51200	1	51200	1	53248	0	0.7	51200	turquoise	purple	0	0	ml	2.7.3	bip	sub-13_ses-02_task-ml_proj-bip_2021-01-20-10-20-42.861109
269	13	2	6	270	stable	8	200	70	vs	purple	turquoise	purple	turquoise	left	right	0.30000000000000004	0.7	6	2	1.8000000000000005	1.4	0	1	0.30000000000000004	0.7	6	2	1.8000000000000005	1.4	valid	1.4162842700006877	51200	0	0	1	51200	1	53248	0	51200	1	0.7	53248	turquoise	purple	0	0	ml	2.7.3	bip	sub-13_ses-02_task-ml_proj-bip_2021-01-20-10-20-42.861109
270	13	2	6	271	stable	8	200	71	vs	turquoise	purple	purple	turquoise	right	left	0.30000000000000004	0.7	2	4	0.6000000000000001	2.8	1	0	0.7	0.30000000000000004	4	2	2.8	0.6000000000000001	invalid	0.49988254699928797	51200	0	0	2	51200	1	51200	1	51200	1	0.7	51200	turquoise	purple	1	0	ml	2.7.3	bip	sub-13_ses-02_task-ml_proj-bip_2021-01-20-10-20-42.861109
271	13	2	6	272	stable	8	200	72	vs	purple	turquoise	purple	turquoise	left	right	0.30000000000000004	0.7	2	2	0.6000000000000001	1.4	1	0	0.30000000000000004	0.7	2	2	0.6000000000000001	1.4	invalid	0.4998929949997546	53248	0	1	2	53248	1	53248	1	53248	1	0.7	53248	turquoise	purple	0	0	ml	2.7.3	bip	sub-13_ses-02_task-ml_proj-bip_2021-01-20-10-20-42.861109
272	13	2	6	273	stable	8	200	73	vs	purple	turquoise	purple	turquoise	left	right	0.30000000000000004	0.7	6	2	1.8000000000000005	1.4	0	1	0.30000000000000004	0.7	6	2	1.8000000000000005	1.4	valid	0.516543346000617	51200	0	0	1	51200	1	53248	0	51200	1	0.7	53248	turquoise	purple	0	0	ml	2.7.3	bip	sub-13_ses-02_task-ml_proj-bip_2021-01-20-10-20-42.861109
273	13	2	6	274	stable	8	200	74	vs	purple	turquoise	purple	turquoise	left	right	0.30000000000000004	0.7	6	4	1.8000000000000005	2.8	0	1	0.30000000000000004	0.7	6	4	1.8000000000000005	2.8	valid	0.5498743780008226	51200	0	0	1	53248	0	53248	0	51200	1	0.7	53248	turquoise	purple	0	0	ml	2.7.3	bip	sub-13_ses-02_task-ml_proj-bip_2021-01-20-10-20-42.861109
274	13	2	6	275	stable	8	200	75	vs	purple	turquoise	purple	turquoise	left	right	0.30000000000000004	0.7	10	2	3.0000000000000004	1.4	1	0	0.30000000000000004	0.7	10	2	3.0000000000000004	1.4	invalid	0.76647024399972	51200	0	0	1	51200	1	53248	0	51200	1	0.7	53248	turquoise	purple	0	10	ml	2.7.3	bip	sub-13_ses-02_task-ml_proj-bip_2021-01-20-10-20-42.861109
275	13	2	6	276	stable	8	200	76	vs	purple	turquoise	purple	turquoise	left	right	0.30000000000000004	0.7	4	2	1.2000000000000002	1.4	0	1	0.30000000000000004	0.7	4	2	1.2000000000000002	1.4	valid	1.083055527000397	53248	0	1	2	53248	1	53248	1	51200	0	0.7	53248	turquoise	purple	0	2	ml	2.7.3	bip	sub-13_ses-02_task-ml_proj-bip_2021-01-20-10-20-42.861109
276	13	2	6	277	stable	8	200	77	vs	purple	turquoise	purple	turquoise	left	right	0.30000000000000004	0.7	6	6	1.8000000000000005	4.199999999999998	0	1	0.30000000000000004	0.7	6	6	1.8000000000000005	4.199999999999998	valid	0.6165182099994126	51200	0	0	1	53248	0	53248	0	53248	0	0.7	53248	turquoise	purple	0	0	ml	2.7.3	bip	sub-13_ses-02_task-ml_proj-bip_2021-01-20-10-20-42.861109
277	13	2	6	278	stable	8	200	78	vs	turquoise	purple	purple	turquoise	right	left	0.30000000000000004	0.7	10	2	3.0000000000000004	1.4	0	1	0.7	0.30000000000000004	2	10	1.4	3.0000000000000004	valid	0.4499079969991726	53248	0	1	1	53248	1	51200	0	53248	1	0.7	51200	turquoise	purple	0	0	ml	2.7.3	bip	sub-13_ses-02_task-ml_proj-bip_2021-01-20-10-20-42.861109
