Unnamed: 0	sub_id	ses_id	block_no	trial_no	phase_type	phase_no	phase_length	trialInPhase_no	phase_type_order	color_left	color_right	color1	color2	position1	position2	prob1	prob2	mag1	mag2	ev1	ev2	outcome1	outcome2	prob_left	prob_right	mag_left	mag_right	ev_left	ev_right	reward_validity	resp_time	resp_key	timeout	choice_side	choice	ev_corr_resp	ev_correct	prob_corr_resp	prob_correct	mag_corr_resp	mag_correct	high_prob	high_prob_side	high_prob_color	low_prob_color	no_brain	reward	name	version	proj_id	logFileID
0	14	2	1	1	stable	1	200	1	sv	red	blue	blue	red	right	left	0.7	0.30000000000000004	4	2	2.8	0.6000000000000001	1	0	0.30000000000000004	0.7	2	4	0.6000000000000001	2.8	valid	0.933097621998968	53248	0	1	1	53248	1	53248	1	53248	1	0.7	53248	blue	red	1	4	ml	2.7.3	bip	sub-14_ses-02_task-ml_proj-bip_2021-03-08-10-12-34.377911
1	14	2	1	2	stable	1	200	2	sv	red	blue	blue	red	right	left	0.7	0.30000000000000004	2	2	1.4	0.6000000000000001	1	0	0.30000000000000004	0.7	2	2	0.6000000000000001	1.4	valid	0.5165498510014004	53248	0	1	1	53248	1	53248	1	53248	1	0.7	53248	blue	red	0	2	ml	2.7.3	bip	sub-14_ses-02_task-ml_proj-bip_2021-03-08-10-12-34.377911
2	14	2	1	3	stable	1	200	3	sv	blue	red	blue	red	left	right	0.7	0.30000000000000004	10	2	7.0	0.6000000000000001	0	1	0.7	0.30000000000000004	10	2	7.0	0.6000000000000001	invalid	0.499874897999689	51200	0	0	1	51200	1	51200	1	51200	1	0.7	51200	blue	red	1	0	ml	2.7.3	bip	sub-14_ses-02_task-ml_proj-bip_2021-03-08-10-12-34.377911
3	14	2	1	4	stable	1	200	4	sv	blue	red	blue	red	left	right	0.7	0.30000000000000004	10	2	7.0	0.6000000000000001	1	0	0.7	0.30000000000000004	10	2	7.0	0.6000000000000001	valid	0.5165476010006387	51200	0	0	1	51200	1	51200	1	51200	1	0.7	51200	blue	red	1	10	ml	2.7.3	bip	sub-14_ses-02_task-ml_proj-bip_2021-03-08-10-12-34.377911
4	14	2	1	5	stable	1	200	5	sv	red	blue	blue	red	right	left	0.7	0.30000000000000004	10	2	7.0	0.6000000000000001	0	1	0.30000000000000004	0.7	2	10	0.6000000000000001	7.0	invalid	0.4998935490002623	53248	0	1	1	53248	1	53248	1	53248	1	0.7	53248	blue	red	1	0	ml	2.7.3	bip	sub-14_ses-02_task-ml_proj-bip_2021-03-08-10-12-34.377911
5	14	2	1	6	stable	1	200	6	sv	red	blue	blue	red	right	left	0.7	0.30000000000000004	2	6	1.4	1.8000000000000005	1	0	0.30000000000000004	0.7	6	2	1.8000000000000005	1.4	valid	0.8997674950005603	51200	0	0	2	51200	1	53248	0	51200	1	0.7	53248	blue	red	0	0	ml	2.7.3	bip	sub-14_ses-02_task-ml_proj-bip_2021-03-08-10-12-34.377911
6	14	2	1	7	stable	1	200	7	sv	blue	red	blue	red	left	right	0.7	0.30000000000000004	2	10	1.4	3.0000000000000004	1	0	0.7	0.30000000000000004	2	10	1.4	3.0000000000000004	valid	0.4998924390001776	53248	0	1	2	53248	1	51200	0	53248	1	0.7	51200	blue	red	0	0	ml	2.7.3	bip	sub-14_ses-02_task-ml_proj-bip_2021-03-08-10-12-34.377911
7	14	2	1	8	stable	1	200	8	sv	blue	red	blue	red	left	right	0.7	0.30000000000000004	4	6	2.8	1.8000000000000005	1	0	0.7	0.30000000000000004	4	6	2.8	1.8000000000000005	valid	0.5998641010010033	53248	0	1	2	51200	0	51200	0	53248	1	0.7	51200	blue	red	0	0	ml	2.7.3	bip	sub-14_ses-02_task-ml_proj-bip_2021-03-08-10-12-34.377911
8	14	2	1	9	stable	1	200	9	sv	blue	red	blue	red	left	right	0.7	0.30000000000000004	6	4	4.199999999999998	1.2000000000000002	1	0	0.7	0.30000000000000004	6	4	4.199999999999998	1.2000000000000002	valid	0.3665852000012819	51200	0	0	1	51200	1	51200	1	51200	1	0.7	51200	blue	red	1	6	ml	2.7.3	bip	sub-14_ses-02_task-ml_proj-bip_2021-03-08-10-12-34.377911
9	14	2	1	10	stable	1	200	10	sv	blue	red	blue	red	left	right	0.7	0.30000000000000004	2	2	1.4	0.6000000000000001	1	0	0.7	0.30000000000000004	2	2	1.4	0.6000000000000001	valid	0.549876420000146	51200	0	0	1	51200	1	51200	1	53248	0	0.7	51200	blue	red	1	2	ml	2.7.3	bip	sub-14_ses-02_task-ml_proj-bip_2021-03-08-10-12-34.377911
10	14	2	1	11	stable	1	200	11	sv	red	blue	blue	red	right	left	0.7	0.30000000000000004	2	4	1.4	1.2000000000000002	0	1	0.30000000000000004	0.7	4	2	1.2000000000000002	1.4	invalid	0.5332166409989441	53248	0	1	1	53248	1	53248	1	51200	0	0.7	53248	blue	red	0	0	ml	2.7.3	bip	sub-14_ses-02_task-ml_proj-bip_2021-03-08-10-12-34.377911
11	14	2	1	12	stable	1	200	12	sv	blue	red	blue	red	left	right	0.7	0.30000000000000004	2	2	1.4	0.6000000000000001	1	0	0.7	0.30000000000000004	2	2	1.4	0.6000000000000001	valid	0.7498085909992369	51200	0	0	1	51200	1	51200	1	53248	0	0.7	51200	blue	red	1	2	ml	2.7.3	bip	sub-14_ses-02_task-ml_proj-bip_2021-03-08-10-12-34.377911
12	14	2	1	13	stable	1	200	13	sv	blue	red	blue	red	left	right	0.7	0.30000000000000004	2	6	1.4	1.8000000000000005	1	0	0.7	0.30000000000000004	2	6	1.4	1.8000000000000005	valid	0.8997788689994195	53248	0	1	2	53248	1	51200	0	53248	1	0.7	51200	blue	red	0	0	ml	2.7.3	bip	sub-14_ses-02_task-ml_proj-bip_2021-03-08-10-12-34.377911
13	14	2	1	14	stable	1	200	14	sv	red	blue	blue	red	right	left	0.7	0.30000000000000004	4	6	2.8	1.8000000000000005	1	0	0.30000000000000004	0.7	6	4	1.8000000000000005	2.8	valid	1.1330439630000908	53248	0	1	1	53248	1	53248	1	51200	0	0.7	53248	blue	red	0	4	ml	2.7.3	bip	sub-14_ses-02_task-ml_proj-bip_2021-03-08-10-12-34.377911
14	14	2	1	15	stable	1	200	15	sv	red	blue	blue	red	right	left	0.7	0.30000000000000004	6	2	4.199999999999998	0.6000000000000001	1	0	0.30000000000000004	0.7	2	6	0.6000000000000001	4.199999999999998	valid	0.7831488240008184	53248	0	1	1	53248	1	53248	1	53248	1	0.7	53248	blue	red	1	6	ml	2.7.3	bip	sub-14_ses-02_task-ml_proj-bip_2021-03-08-10-12-34.377911
15	14	2	1	16	stable	1	200	16	sv	blue	red	blue	red	left	right	0.7	0.30000000000000004	10	2	7.0	0.6000000000000001	1	0	0.7	0.30000000000000004	10	2	7.0	0.6000000000000001	valid	0.6331831389998115	51200	0	0	1	51200	1	51200	1	51200	1	0.7	51200	blue	red	1	10	ml	2.7.3	bip	sub-14_ses-02_task-ml_proj-bip_2021-03-08-10-12-34.377911
16	14	2	1	17	stable	1	200	17	sv	red	blue	blue	red	right	left	0.7	0.30000000000000004	2	2	1.4	0.6000000000000001	1	0	0.30000000000000004	0.7	2	2	0.6000000000000001	1.4	valid	0.8664551219990244	53248	0	1	1	53248	1	53248	1	53248	1	0.7	53248	blue	red	0	2	ml	2.7.3	bip	sub-14_ses-02_task-ml_proj-bip_2021-03-08-10-12-34.377911
17	14	2	1	18	stable	1	200	18	sv	blue	red	blue	red	left	right	0.7	0.30000000000000004	2	10	1.4	3.0000000000000004	1	0	0.7	0.30000000000000004	2	10	1.4	3.0000000000000004	valid	0.8497909270008677	53248	0	1	2	53248	1	51200	0	53248	1	0.7	51200	blue	red	0	0	ml	2.7.3	bip	sub-14_ses-02_task-ml_proj-bip_2021-03-08-10-12-34.377911
18	14	2	1	19	stable	1	200	19	sv	red	blue	blue	red	right	left	0.7	0.30000000000000004	2	6	1.4	1.8000000000000005	1	0	0.30000000000000004	0.7	6	2	1.8000000000000005	1.4	valid	1.016399244999775	51200	0	0	2	51200	1	53248	0	51200	1	0.7	53248	blue	red	0	0	ml	2.7.3	bip	sub-14_ses-02_task-ml_proj-bip_2021-03-08-10-12-34.377911
19	14	2	1	20	stable	1	200	20	sv	red	blue	blue	red	right	left	0.7	0.30000000000000004	2	2	1.4	0.6000000000000001	0	1	0.30000000000000004	0.7	2	2	0.6000000000000001	1.4	invalid	0.7998063470004126	53248	0	1	1	53248	1	53248	1	53248	1	0.7	53248	blue	red	0	0	ml	2.7.3	bip	sub-14_ses-02_task-ml_proj-bip_2021-03-08-10-12-34.377911
20	14	2	1	21	stable	1	200	21	sv	red	blue	blue	red	right	left	0.7	0.30000000000000004	2	4	1.4	1.2000000000000002	1	0	0.30000000000000004	0.7	4	2	1.2000000000000002	1.4	valid	0.499893169000643	53248	0	1	1	53248	1	53248	1	51200	0	0.7	53248	blue	red	0	2	ml	2.7.3	bip	sub-14_ses-02_task-ml_proj-bip_2021-03-08-10-12-34.377911
21	14	2	1	22	stable	1	200	22	sv	red	blue	blue	red	right	left	0.7	0.30000000000000004	6	6	4.199999999999998	1.8000000000000005	1	0	0.30000000000000004	0.7	6	6	1.8000000000000005	4.199999999999998	valid	0.7498196920005284	53248	0	1	1	53248	1	53248	1	53248	1	0.7	53248	blue	red	0	6	ml	2.7.3	bip	sub-14_ses-02_task-ml_proj-bip_2021-03-08-10-12-34.377911
22	14	2	1	23	stable	1	200	23	sv	blue	red	blue	red	left	right	0.7	0.30000000000000004	2	6	1.4	1.8000000000000005	0	1	0.7	0.30000000000000004	2	6	1.4	1.8000000000000005	invalid	0.6998246950006433	51200	0	0	1	53248	0	51200	1	53248	0	0.7	51200	blue	red	0	0	ml	2.7.3	bip	sub-14_ses-02_task-ml_proj-bip_2021-03-08-10-12-34.377911
23	14	2	1	24	stable	1	200	24	sv	blue	red	blue	red	left	right	0.7	0.30000000000000004	6	6	4.199999999999998	1.8000000000000005	0	1	0.7	0.30000000000000004	6	6	4.199999999999998	1.8000000000000005	invalid	0.5165511800005333	51200	0	0	1	51200	1	51200	1	53248	0	0.7	51200	blue	red	1	0	ml	2.7.3	bip	sub-14_ses-02_task-ml_proj-bip_2021-03-08-10-12-34.377911
24	14	2	1	25	stable	1	200	25	sv	red	blue	blue	red	right	left	0.7	0.30000000000000004	10	2	7.0	0.6000000000000001	1	0	0.30000000000000004	0.7	2	10	0.6000000000000001	7.0	valid	0.7331627789990307	53248	0	1	1	53248	1	53248	1	53248	1	0.7	53248	blue	red	1	10	ml	2.7.3	bip	sub-14_ses-02_task-ml_proj-bip_2021-03-08-10-12-34.377911
25	14	2	1	26	stable	1	200	26	sv	blue	red	blue	red	left	right	0.7	0.30000000000000004	6	4	4.199999999999998	1.2000000000000002	1	0	0.7	0.30000000000000004	6	4	4.199999999999998	1.2000000000000002	valid	0.516564711000683	51200	0	0	1	51200	1	51200	1	51200	1	0.7	51200	blue	red	1	6	ml	2.7.3	bip	sub-14_ses-02_task-ml_proj-bip_2021-03-08-10-12-34.377911
26	14	2	1	27	stable	1	200	27	sv	red	blue	blue	red	right	left	0.7	0.30000000000000004	2	6	1.4	1.8000000000000005	0	1	0.30000000000000004	0.7	6	2	1.8000000000000005	1.4	invalid	0.7997971540007711	51200	0	0	2	51200	1	53248	0	51200	1	0.7	53248	blue	red	0	6	ml	2.7.3	bip	sub-14_ses-02_task-ml_proj-bip_2021-03-08-10-12-34.377911
27	14	2	1	28	stable	1	200	28	sv	blue	red	blue	red	left	right	0.7	0.30000000000000004	4	2	2.8	0.6000000000000001	0	1	0.7	0.30000000000000004	4	2	2.8	0.6000000000000001	invalid	0.8497840039999573	51200	0	0	1	51200	1	51200	1	51200	1	0.7	51200	blue	red	1	0	ml	2.7.3	bip	sub-14_ses-02_task-ml_proj-bip_2021-03-08-10-12-34.377911
28	14	2	1	29	stable	1	200	29	sv	red	blue	blue	red	right	left	0.7	0.30000000000000004	4	6	2.8	1.8000000000000005	0	1	0.30000000000000004	0.7	6	4	1.8000000000000005	2.8	invalid	0.4332499319989438	53248	0	1	1	53248	1	53248	1	51200	0	0.7	53248	blue	red	0	0	ml	2.7.3	bip	sub-14_ses-02_task-ml_proj-bip_2021-03-08-10-12-34.377911
29	14	2	1	30	stable	1	200	30	sv	blue	red	blue	red	left	right	0.7	0.30000000000000004	2	2	1.4	0.6000000000000001	1	0	0.7	0.30000000000000004	2	2	1.4	0.6000000000000001	valid	1.5995646470000793	51200	0	0	1	51200	1	51200	1	53248	0	0.7	51200	blue	red	1	2	ml	2.7.3	bip	sub-14_ses-02_task-ml_proj-bip_2021-03-08-10-12-34.377911
30	14	2	1	31	stable	1	200	31	sv	red	blue	blue	red	right	left	0.7	0.30000000000000004	2	6	1.4	1.8000000000000005	1	0	0.30000000000000004	0.7	6	2	1.8000000000000005	1.4	valid	0.7831331599991245	51200	0	0	2	51200	1	53248	0	51200	1	0.7	53248	blue	red	0	0	ml	2.7.3	bip	sub-14_ses-02_task-ml_proj-bip_2021-03-08-10-12-34.377911
31	14	2	1	32	stable	1	200	32	sv	red	blue	blue	red	right	left	0.7	0.30000000000000004	4	6	2.8	1.8000000000000005	1	0	0.30000000000000004	0.7	6	4	1.8000000000000005	2.8	valid	0.5832017619995895	53248	0	1	1	53248	1	53248	1	51200	0	0.7	53248	blue	red	0	4	ml	2.7.3	bip	sub-14_ses-02_task-ml_proj-bip_2021-03-08-10-12-34.377911
32	14	2	1	33	stable	1	200	33	sv	blue	red	blue	red	left	right	0.7	0.30000000000000004	4	6	2.8	1.8000000000000005	1	0	0.7	0.30000000000000004	4	6	2.8	1.8000000000000005	valid	1.0164090990001569	53248	0	1	2	51200	0	51200	0	53248	1	0.7	51200	blue	red	0	0	ml	2.7.3	bip	sub-14_ses-02_task-ml_proj-bip_2021-03-08-10-12-34.377911
33	14	2	1	34	stable	1	200	34	sv	red	blue	blue	red	right	left	0.7	0.30000000000000004	10	2	7.0	0.6000000000000001	0	1	0.30000000000000004	0.7	2	10	0.6000000000000001	7.0	invalid	0.6331844950000232	53248	0	1	1	53248	1	53248	1	53248	1	0.7	53248	blue	red	1	0	ml	2.7.3	bip	sub-14_ses-02_task-ml_proj-bip_2021-03-08-10-12-34.377911
34	14	2	1	35	stable	1	200	35	sv	blue	red	blue	red	left	right	0.7	0.30000000000000004	6	4	4.199999999999998	1.2000000000000002	1	0	0.7	0.30000000000000004	6	4	4.199999999999998	1.2000000000000002	valid	0.6165121949998138	51200	0	0	1	51200	1	51200	1	51200	1	0.7	51200	blue	red	1	6	ml	2.7.3	bip	sub-14_ses-02_task-ml_proj-bip_2021-03-08-10-12-34.377911
35	14	2	1	36	stable	1	200	36	sv	blue	red	blue	red	left	right	0.7	0.30000000000000004	2	4	1.4	1.2000000000000002	0	1	0.7	0.30000000000000004	2	4	1.4	1.2000000000000002	invalid	0.9164213489984832	51200	0	0	1	51200	1	51200	1	53248	0	0.7	51200	blue	red	0	0	ml	2.7.3	bip	sub-14_ses-02_task-ml_proj-bip_2021-03-08-10-12-34.377911
36	14	2	1	37	stable	1	200	37	sv	blue	red	blue	red	left	right	0.7	0.30000000000000004	4	2	2.8	0.6000000000000001	0	1	0.7	0.30000000000000004	4	2	2.8	0.6000000000000001	invalid	0.5831917859995883	51200	0	0	1	51200	1	51200	1	51200	1	0.7	51200	blue	red	1	0	ml	2.7.3	bip	sub-14_ses-02_task-ml_proj-bip_2021-03-08-10-12-34.377911
37	14	2	1	38	stable	1	200	38	sv	blue	red	blue	red	left	right	0.7	0.30000000000000004	6	2	4.199999999999998	0.6000000000000001	1	0	0.7	0.30000000000000004	6	2	4.199999999999998	0.6000000000000001	valid	0.33327495000048657	53248	0	1	2	51200	0	51200	0	51200	0	0.7	51200	blue	red	1	0	ml	2.7.3	bip	sub-14_ses-02_task-ml_proj-bip_2021-03-08-10-12-34.377911
38	14	2	1	39	stable	1	200	39	sv	blue	red	blue	red	left	right	0.7	0.30000000000000004	6	6	4.199999999999998	1.8000000000000005	1	0	0.7	0.30000000000000004	6	6	4.199999999999998	1.8000000000000005	valid	0.4665831780002918	53248	0	1	2	51200	0	51200	0	53248	1	0.7	51200	blue	red	1	0	ml	2.7.3	bip	sub-14_ses-02_task-ml_proj-bip_2021-03-08-10-12-34.377911
39	14	2	1	40	stable	1	200	40	sv	blue	red	blue	red	left	right	0.7	0.30000000000000004	6	2	4.199999999999998	0.6000000000000001	0	1	0.7	0.30000000000000004	6	2	4.199999999999998	0.6000000000000001	invalid	0.43323499100006296	51200	0	0	1	51200	1	51200	1	51200	1	0.7	51200	blue	red	1	0	ml	2.7.3	bip	sub-14_ses-02_task-ml_proj-bip_2021-03-08-10-12-34.377911
40	14	2	1	41	stable	1	200	41	sv	blue	red	blue	red	left	right	0.7	0.30000000000000004	2	4	1.4	1.2000000000000002	0	1	0.7	0.30000000000000004	2	4	1.4	1.2000000000000002	invalid	0.9164380439997328	53248	0	1	2	51200	0	51200	0	53248	1	0.7	51200	blue	red	0	4	ml	2.7.3	bip	sub-14_ses-02_task-ml_proj-bip_2021-03-08-10-12-34.377911
41	14	2	1	42	stable	1	200	42	sv	red	blue	blue	red	right	left	0.7	0.30000000000000004	2	4	1.4	1.2000000000000002	1	0	0.30000000000000004	0.7	4	2	1.2000000000000002	1.4	valid	0.4165749920011877	51200	0	0	2	53248	0	53248	0	51200	1	0.7	53248	blue	red	0	0	ml	2.7.3	bip	sub-14_ses-02_task-ml_proj-bip_2021-03-08-10-12-34.377911
42	14	2	1	43	stable	1	200	43	sv	red	blue	blue	red	right	left	0.7	0.30000000000000004	10	2	7.0	0.6000000000000001	1	0	0.30000000000000004	0.7	2	10	0.6000000000000001	7.0	valid	0.6831710840015148	53248	0	1	1	53248	1	53248	1	53248	1	0.7	53248	blue	red	1	10	ml	2.7.3	bip	sub-14_ses-02_task-ml_proj-bip_2021-03-08-10-12-34.377911
43	14	2	1	44	stable	1	200	44	sv	blue	red	blue	red	left	right	0.7	0.30000000000000004	4	2	2.8	0.6000000000000001	1	0	0.7	0.30000000000000004	4	2	2.8	0.6000000000000001	valid	0.8997681950004335	51200	0	0	1	51200	1	51200	1	51200	1	0.7	51200	blue	red	1	4	ml	2.7.3	bip	sub-14_ses-02_task-ml_proj-bip_2021-03-08-10-12-34.377911
44	14	2	1	45	stable	1	200	45	sv	blue	red	blue	red	left	right	0.7	0.30000000000000004	2	2	1.4	0.6000000000000001	1	0	0.7	0.30000000000000004	2	2	1.4	0.6000000000000001	valid	0.6331754420007201	51200	0	0	1	51200	1	51200	1	53248	0	0.7	51200	blue	red	1	2	ml	2.7.3	bip	sub-14_ses-02_task-ml_proj-bip_2021-03-08-10-12-34.377911
45	14	2	1	46	stable	1	200	46	sv	blue	red	blue	red	left	right	0.7	0.30000000000000004	4	6	2.8	1.8000000000000005	0	1	0.7	0.30000000000000004	4	6	2.8	1.8000000000000005	invalid	1.1330355019999845	53248	0	1	2	51200	0	51200	0	53248	1	0.7	51200	blue	red	0	6	ml	2.7.3	bip	sub-14_ses-02_task-ml_proj-bip_2021-03-08-10-12-34.377911
46	14	2	1	47	stable	1	200	47	sv	red	blue	blue	red	right	left	0.7	0.30000000000000004	6	4	4.199999999999998	1.2000000000000002	1	0	0.30000000000000004	0.7	4	6	1.2000000000000002	4.199999999999998	valid	0.8497923440008891	53248	0	1	1	53248	1	53248	1	53248	1	0.7	53248	blue	red	1	6	ml	2.7.3	bip	sub-14_ses-02_task-ml_proj-bip_2021-03-08-10-12-34.377911
47	14	2	1	48	stable	1	200	48	sv	blue	red	blue	red	left	right	0.7	0.30000000000000004	10	2	7.0	0.6000000000000001	1	0	0.7	0.30000000000000004	10	2	7.0	0.6000000000000001	valid	0.5498676290008007	51200	0	0	1	51200	1	51200	1	51200	1	0.7	51200	blue	red	1	10	ml	2.7.3	bip	sub-14_ses-02_task-ml_proj-bip_2021-03-08-10-12-34.377911
48	14	2	1	49	stable	1	200	49	sv	red	blue	blue	red	right	left	0.7	0.30000000000000004	2	6	1.4	1.8000000000000005	1	0	0.30000000000000004	0.7	6	2	1.8000000000000005	1.4	valid	0.8331309530003637	53248	0	1	1	51200	0	53248	1	51200	0	0.7	53248	blue	red	0	2	ml	2.7.3	bip	sub-14_ses-02_task-ml_proj-bip_2021-03-08-10-12-34.377911
49	14	2	1	50	stable	1	200	50	sv	red	blue	blue	red	right	left	0.7	0.30000000000000004	6	2	4.199999999999998	0.6000000000000001	1	0	0.30000000000000004	0.7	2	6	0.6000000000000001	4.199999999999998	valid	0.7164944079995621	53248	0	1	1	53248	1	53248	1	53248	1	0.7	53248	blue	red	1	6	ml	2.7.3	bip	sub-14_ses-02_task-ml_proj-bip_2021-03-08-10-12-34.377911
50	14	2	2	51	stable	1	200	51	sv	blue	red	blue	red	left	right	0.7	0.30000000000000004	10	2	7.0	0.6000000000000001	0	1	0.7	0.30000000000000004	10	2	7.0	0.6000000000000001	invalid	0.6831613299982564	51200	0	0	1	51200	1	51200	1	51200	1	0.7	51200	blue	red	1	0	ml	2.7.3	bip	sub-14_ses-02_task-ml_proj-bip_2021-03-08-10-12-34.377911
51	14	2	2	52	stable	1	200	52	sv	red	blue	blue	red	right	left	0.7	0.30000000000000004	6	6	4.199999999999998	1.8000000000000005	1	0	0.30000000000000004	0.7	6	6	1.8000000000000005	4.199999999999998	valid	0.6665025889997196	53248	0	1	1	53248	1	53248	1	53248	1	0.7	53248	blue	red	0	6	ml	2.7.3	bip	sub-14_ses-02_task-ml_proj-bip_2021-03-08-10-12-34.377911
52	14	2	2	53	stable	1	200	53	sv	red	blue	blue	red	right	left	0.7	0.30000000000000004	6	2	4.199999999999998	0.6000000000000001	1	0	0.30000000000000004	0.7	2	6	0.6000000000000001	4.199999999999998	valid	1.0663954890005698	53248	0	1	1	53248	1	53248	1	53248	1	0.7	53248	blue	red	1	6	ml	2.7.3	bip	sub-14_ses-02_task-ml_proj-bip_2021-03-08-10-12-34.377911
53	14	2	2	54	stable	1	200	54	sv	blue	red	blue	red	left	right	0.7	0.30000000000000004	6	4	4.199999999999998	1.2000000000000002	0	1	0.7	0.30000000000000004	6	4	4.199999999999998	1.2000000000000002	invalid	0.8497729660011828	51200	0	0	1	51200	1	51200	1	51200	1	0.7	51200	blue	red	1	0	ml	2.7.3	bip	sub-14_ses-02_task-ml_proj-bip_2021-03-08-10-12-34.377911
54	14	2	2	55	stable	1	200	55	sv	blue	red	blue	red	left	right	0.7	0.30000000000000004	4	2	2.8	0.6000000000000001	1	0	0.7	0.30000000000000004	4	2	2.8	0.6000000000000001	valid	0.8497798989992589	51200	0	0	1	51200	1	51200	1	51200	1	0.7	51200	blue	red	1	4	ml	2.7.3	bip	sub-14_ses-02_task-ml_proj-bip_2021-03-08-10-12-34.377911
55	14	2	2	56	stable	1	200	56	sv	blue	red	blue	red	left	right	0.7	0.30000000000000004	6	2	4.199999999999998	0.6000000000000001	1	0	0.7	0.30000000000000004	6	2	4.199999999999998	0.6000000000000001	valid	0.6165087310000672	51200	0	0	1	51200	1	51200	1	51200	1	0.7	51200	blue	red	1	6	ml	2.7.3	bip	sub-14_ses-02_task-ml_proj-bip_2021-03-08-10-12-34.377911
56	14	2	2	57	stable	1	200	57	sv	red	blue	blue	red	right	left	0.7	0.30000000000000004	2	4	1.4	1.2000000000000002	0	1	0.30000000000000004	0.7	4	2	1.2000000000000002	1.4	invalid	1.0830469189986616	51200	0	0	2	53248	0	53248	0	51200	1	0.7	53248	blue	red	0	4	ml	2.7.3	bip	sub-14_ses-02_task-ml_proj-bip_2021-03-08-10-12-34.377911
57	14	2	2	58	stable	1	200	58	sv	blue	red	blue	red	left	right	0.7	0.30000000000000004	2	10	1.4	3.0000000000000004	0	1	0.7	0.30000000000000004	2	10	1.4	3.0000000000000004	invalid	0.6498576689991751	53248	0	1	2	53248	1	51200	0	53248	1	0.7	51200	blue	red	0	10	ml	2.7.3	bip	sub-14_ses-02_task-ml_proj-bip_2021-03-08-10-12-34.377911
58	14	2	2	59	stable	1	200	59	sv	blue	red	blue	red	left	right	0.7	0.30000000000000004	2	10	1.4	3.0000000000000004	0	1	0.7	0.30000000000000004	2	10	1.4	3.0000000000000004	invalid	0.5165613040007884	53248	0	1	2	53248	1	51200	0	53248	1	0.7	51200	blue	red	0	10	ml	2.7.3	bip	sub-14_ses-02_task-ml_proj-bip_2021-03-08-10-12-34.377911
59	14	2	2	60	stable	1	200	60	sv	blue	red	blue	red	left	right	0.7	0.30000000000000004	6	4	4.199999999999998	1.2000000000000002	1	0	0.7	0.30000000000000004	6	4	4.199999999999998	1.2000000000000002	valid	0.6831787080009235	53248	0	1	2	51200	0	51200	0	51200	0	0.7	51200	blue	red	1	0	ml	2.7.3	bip	sub-14_ses-02_task-ml_proj-bip_2021-03-08-10-12-34.377911
60	14	2	2	61	stable	1	200	61	sv	blue	red	blue	red	left	right	0.7	0.30000000000000004	2	2	1.4	0.6000000000000001	1	0	0.7	0.30000000000000004	2	2	1.4	0.6000000000000001	valid	0.7664712549994874	51200	0	0	1	51200	1	51200	1	53248	0	0.7	51200	blue	red	1	2	ml	2.7.3	bip	sub-14_ses-02_task-ml_proj-bip_2021-03-08-10-12-34.377911
61	14	2	2	62	stable	1	200	62	sv	blue	red	blue	red	left	right	0.7	0.30000000000000004	6	2	4.199999999999998	0.6000000000000001	1	0	0.7	0.30000000000000004	6	2	4.199999999999998	0.6000000000000001	valid	0.5665289349999512	51200	0	0	1	51200	1	51200	1	51200	1	0.7	51200	blue	red	1	6	ml	2.7.3	bip	sub-14_ses-02_task-ml_proj-bip_2021-03-08-10-12-34.377911
62	14	2	2	63	stable	1	200	63	sv	blue	red	blue	red	left	right	0.7	0.30000000000000004	4	6	2.8	1.8000000000000005	1	0	0.7	0.30000000000000004	4	6	2.8	1.8000000000000005	valid	0.3832491720004328	51200	0	0	1	51200	1	51200	1	53248	0	0.7	51200	blue	red	0	4	ml	2.7.3	bip	sub-14_ses-02_task-ml_proj-bip_2021-03-08-10-12-34.377911
63	14	2	2	64	stable	1	200	64	sv	blue	red	blue	red	left	right	0.7	0.30000000000000004	6	4	4.199999999999998	1.2000000000000002	0	1	0.7	0.30000000000000004	6	4	4.199999999999998	1.2000000000000002	invalid	0.5998533479996695	51200	0	0	1	51200	1	51200	1	51200	1	0.7	51200	blue	red	1	0	ml	2.7.3	bip	sub-14_ses-02_task-ml_proj-bip_2021-03-08-10-12-34.377911
64	14	2	2	65	stable	1	200	65	sv	red	blue	blue	red	right	left	0.7	0.30000000000000004	10	2	7.0	0.6000000000000001	0	1	0.30000000000000004	0.7	2	10	0.6000000000000001	7.0	invalid	0.9331004039995604	53248	0	1	1	53248	1	53248	1	53248	1	0.7	53248	blue	red	1	0	ml	2.7.3	bip	sub-14_ses-02_task-ml_proj-bip_2021-03-08-10-12-34.377911
65	14	2	2	66	stable	1	200	66	sv	red	blue	blue	red	right	left	0.7	0.30000000000000004	4	2	2.8	0.6000000000000001	1	0	0.30000000000000004	0.7	2	4	0.6000000000000001	2.8	valid	0.5332106919995567	51200	0	0	2	53248	0	53248	0	53248	0	0.7	53248	blue	red	1	0	ml	2.7.3	bip	sub-14_ses-02_task-ml_proj-bip_2021-03-08-10-12-34.377911
66	14	2	2	67	stable	1	200	67	sv	blue	red	blue	red	left	right	0.7	0.30000000000000004	6	4	4.199999999999998	1.2000000000000002	1	0	0.7	0.30000000000000004	6	4	4.199999999999998	1.2000000000000002	valid	0.4998810580000281	51200	0	0	1	51200	1	51200	1	51200	1	0.7	51200	blue	red	1	6	ml	2.7.3	bip	sub-14_ses-02_task-ml_proj-bip_2021-03-08-10-12-34.377911
67	14	2	2	68	stable	1	200	68	sv	red	blue	blue	red	right	left	0.7	0.30000000000000004	4	2	2.8	0.6000000000000001	0	1	0.30000000000000004	0.7	2	4	0.6000000000000001	2.8	invalid	0.683172671999273	53248	0	1	1	53248	1	53248	1	53248	1	0.7	53248	blue	red	1	0	ml	2.7.3	bip	sub-14_ses-02_task-ml_proj-bip_2021-03-08-10-12-34.377911
68	14	2	2	69	stable	1	200	69	sv	blue	red	blue	red	left	right	0.7	0.30000000000000004	2	6	1.4	1.8000000000000005	1	0	0.7	0.30000000000000004	2	6	1.4	1.8000000000000005	valid	0.9330901789999188	51200	0	0	1	53248	0	51200	1	53248	0	0.7	51200	blue	red	0	2	ml	2.7.3	bip	sub-14_ses-02_task-ml_proj-bip_2021-03-08-10-12-34.377911
69	14	2	2	70	stable	1	200	70	sv	red	blue	blue	red	right	left	0.7	0.30000000000000004	2	4	1.4	1.2000000000000002	1	0	0.30000000000000004	0.7	4	2	1.2000000000000002	1.4	valid	0.7331568150002568	53248	0	1	1	53248	1	53248	1	51200	0	0.7	53248	blue	red	0	2	ml	2.7.3	bip	sub-14_ses-02_task-ml_proj-bip_2021-03-08-10-12-34.377911
70	14	2	2	71	stable	1	200	71	sv	red	blue	blue	red	right	left	0.7	0.30000000000000004	6	2	4.199999999999998	0.6000000000000001	1	0	0.30000000000000004	0.7	2	6	0.6000000000000001	4.199999999999998	valid	0.5665379589991062	53248	0	1	1	53248	1	53248	1	53248	1	0.7	53248	blue	red	1	6	ml	2.7.3	bip	sub-14_ses-02_task-ml_proj-bip_2021-03-08-10-12-34.377911
71	14	2	2	72	stable	1	200	72	sv	blue	red	blue	red	left	right	0.7	0.30000000000000004	2	10	1.4	3.0000000000000004	0	1	0.7	0.30000000000000004	2	10	1.4	3.0000000000000004	invalid	0.5165625819990964	53248	0	1	2	53248	1	51200	0	53248	1	0.7	51200	blue	red	0	10	ml	2.7.3	bip	sub-14_ses-02_task-ml_proj-bip_2021-03-08-10-12-34.377911
72	14	2	2	73	stable	1	200	73	sv	blue	red	blue	red	left	right	0.7	0.30000000000000004	2	2	1.4	0.6000000000000001	1	0	0.7	0.30000000000000004	2	2	1.4	0.6000000000000001	valid	0.6665095640000799	51200	0	0	1	51200	1	51200	1	53248	0	0.7	51200	blue	red	1	2	ml	2.7.3	bip	sub-14_ses-02_task-ml_proj-bip_2021-03-08-10-12-34.377911
73	14	2	2	74	stable	1	200	74	sv	red	blue	blue	red	right	left	0.7	0.30000000000000004	2	2	1.4	0.6000000000000001	1	0	0.30000000000000004	0.7	2	2	0.6000000000000001	1.4	valid	0.5998623499999667	53248	0	1	1	53248	1	53248	1	53248	1	0.7	53248	blue	red	0	2	ml	2.7.3	bip	sub-14_ses-02_task-ml_proj-bip_2021-03-08-10-12-34.377911
74	14	2	2	75	stable	1	200	75	sv	red	blue	blue	red	right	left	0.7	0.30000000000000004	6	6	4.199999999999998	1.8000000000000005	0	1	0.30000000000000004	0.7	6	6	1.8000000000000005	4.199999999999998	invalid	0.5832036259998858	53248	0	1	1	53248	1	53248	1	53248	1	0.7	53248	blue	red	0	0	ml	2.7.3	bip	sub-14_ses-02_task-ml_proj-bip_2021-03-08-10-12-34.377911
75	14	2	2	76	stable	1	200	76	sv	red	blue	blue	red	right	left	0.7	0.30000000000000004	2	4	1.4	1.2000000000000002	0	1	0.30000000000000004	0.7	4	2	1.2000000000000002	1.4	invalid	0.5665293540005223	51200	0	0	2	53248	0	53248	0	51200	1	0.7	53248	blue	red	0	4	ml	2.7.3	bip	sub-14_ses-02_task-ml_proj-bip_2021-03-08-10-12-34.377911
76	14	2	2	77	stable	1	200	77	sv	red	blue	blue	red	right	left	0.7	0.30000000000000004	4	2	2.8	0.6000000000000001	0	1	0.30000000000000004	0.7	2	4	0.6000000000000001	2.8	invalid	0.4998822219986323	51200	0	0	2	53248	0	53248	0	53248	0	0.7	53248	blue	red	1	2	ml	2.7.3	bip	sub-14_ses-02_task-ml_proj-bip_2021-03-08-10-12-34.377911
77	14	2	2	78	stable	1	200	78	sv	blue	red	blue	red	left	right	0.7	0.30000000000000004	6	6	4.199999999999998	1.8000000000000005	1	0	0.7	0.30000000000000004	6	6	4.199999999999998	1.8000000000000005	valid	0.4832162260008772	53248	0	1	2	51200	0	51200	0	53248	1	0.7	51200	blue	red	1	0	ml	2.7.3	bip	sub-14_ses-02_task-ml_proj-bip_2021-03-08-10-12-34.377911
78	14	2	2	79	stable	1	200	79	sv	blue	red	blue	red	left	right	0.7	0.30000000000000004	2	10	1.4	3.0000000000000004	1	0	0.7	0.30000000000000004	2	10	1.4	3.0000000000000004	valid	0.6498393479996594	51200	0	0	1	53248	0	51200	1	53248	0	0.7	51200	blue	red	0	2	ml	2.7.3	bip	sub-14_ses-02_task-ml_proj-bip_2021-03-08-10-12-34.377911
79	14	2	2	80	stable	1	200	80	sv	red	blue	blue	red	right	left	0.7	0.30000000000000004	2	4	1.4	1.2000000000000002	1	0	0.30000000000000004	0.7	4	2	1.2000000000000002	1.4	valid	1.0830471569988729	51200	0	0	2	53248	0	53248	0	51200	1	0.7	53248	blue	red	0	0	ml	2.7.3	bip	sub-14_ses-02_task-ml_proj-bip_2021-03-08-10-12-34.377911
80	14	2	2	81	stable	1	200	81	sv	blue	red	blue	red	left	right	0.7	0.30000000000000004	10	2	7.0	0.6000000000000001	1	0	0.7	0.30000000000000004	10	2	7.0	0.6000000000000001	valid	0.4665582880006696	51200	0	0	1	51200	1	51200	1	51200	1	0.7	51200	blue	red	1	10	ml	2.7.3	bip	sub-14_ses-02_task-ml_proj-bip_2021-03-08-10-12-34.377911
81	14	2	2	82	stable	1	200	82	sv	red	blue	blue	red	right	left	0.7	0.30000000000000004	6	6	4.199999999999998	1.8000000000000005	1	0	0.30000000000000004	0.7	6	6	1.8000000000000005	4.199999999999998	valid	0.5332160720008687	53248	0	1	1	53248	1	53248	1	53248	1	0.7	53248	blue	red	0	6	ml	2.7.3	bip	sub-14_ses-02_task-ml_proj-bip_2021-03-08-10-12-34.377911
82	14	2	2	83	stable	1	200	83	sv	blue	red	blue	red	left	right	0.7	0.30000000000000004	6	2	4.199999999999998	0.6000000000000001	1	0	0.7	0.30000000000000004	6	2	4.199999999999998	0.6000000000000001	valid	0.7664821369999117	53248	0	1	2	51200	0	51200	0	51200	0	0.7	51200	blue	red	1	0	ml	2.7.3	bip	sub-14_ses-02_task-ml_proj-bip_2021-03-08-10-12-34.377911
83	14	2	2	84	stable	1	200	84	sv	blue	red	blue	red	left	right	0.7	0.30000000000000004	2	10	1.4	3.0000000000000004	1	0	0.7	0.30000000000000004	2	10	1.4	3.0000000000000004	valid	0.71649868699933	53248	0	1	2	53248	1	51200	0	53248	1	0.7	51200	blue	red	0	0	ml	2.7.3	bip	sub-14_ses-02_task-ml_proj-bip_2021-03-08-10-12-34.377911
84	14	2	2	85	stable	1	200	85	sv	red	blue	blue	red	right	left	0.7	0.30000000000000004	4	2	2.8	0.6000000000000001	0	1	0.30000000000000004	0.7	2	4	0.6000000000000001	2.8	invalid	0.6498429809998925	53248	0	1	1	53248	1	53248	1	53248	1	0.7	53248	blue	red	1	0	ml	2.7.3	bip	sub-14_ses-02_task-ml_proj-bip_2021-03-08-10-12-34.377911
85	14	2	2	86	stable	1	200	86	sv	red	blue	blue	red	right	left	0.7	0.30000000000000004	4	2	2.8	0.6000000000000001	1	0	0.30000000000000004	0.7	2	4	0.6000000000000001	2.8	valid	0.4665696960000787	53248	0	1	1	53248	1	53248	1	53248	1	0.7	53248	blue	red	1	4	ml	2.7.3	bip	sub-14_ses-02_task-ml_proj-bip_2021-03-08-10-12-34.377911
86	14	2	2	87	stable	1	200	87	sv	blue	red	blue	red	left	right	0.7	0.30000000000000004	2	6	1.4	1.8000000000000005	1	0	0.7	0.30000000000000004	2	6	1.4	1.8000000000000005	valid	1.1663467710004625	51200	0	0	1	53248	0	51200	1	53248	0	0.7	51200	blue	red	0	2	ml	2.7.3	bip	sub-14_ses-02_task-ml_proj-bip_2021-03-08-10-12-34.377911
87	14	2	2	88	stable	1	200	88	sv	red	blue	blue	red	right	left	0.7	0.30000000000000004	4	2	2.8	0.6000000000000001	1	0	0.30000000000000004	0.7	2	4	0.6000000000000001	2.8	valid	0.7498252770001272	53248	0	1	1	53248	1	53248	1	53248	1	0.7	53248	blue	red	1	4	ml	2.7.3	bip	sub-14_ses-02_task-ml_proj-bip_2021-03-08-10-12-34.377911
88	14	2	2	89	stable	1	200	89	sv	red	blue	blue	red	right	left	0.7	0.30000000000000004	2	2	1.4	0.6000000000000001	1	0	0.30000000000000004	0.7	2	2	0.6000000000000001	1.4	valid	0.7664802019990021	53248	0	1	1	53248	1	53248	1	53248	1	0.7	53248	blue	red	0	2	ml	2.7.3	bip	sub-14_ses-02_task-ml_proj-bip_2021-03-08-10-12-34.377911
89	14	2	2	90	stable	1	200	90	sv	red	blue	blue	red	right	left	0.7	0.30000000000000004	2	2	1.4	0.6000000000000001	1	0	0.30000000000000004	0.7	2	2	0.6000000000000001	1.4	valid	0.48325028599902004	53248	0	1	1	53248	1	53248	1	53248	1	0.7	53248	blue	red	0	2	ml	2.7.3	bip	sub-14_ses-02_task-ml_proj-bip_2021-03-08-10-12-34.377911
90	14	2	2	91	stable	1	200	91	sv	red	blue	blue	red	right	left	0.7	0.30000000000000004	2	10	1.4	3.0000000000000004	0	1	0.30000000000000004	0.7	10	2	3.0000000000000004	1.4	invalid	0.7164840500008722	51200	0	0	2	51200	1	53248	0	51200	1	0.7	53248	blue	red	0	10	ml	2.7.3	bip	sub-14_ses-02_task-ml_proj-bip_2021-03-08-10-12-34.377911
91	14	2	2	92	stable	1	200	92	sv	blue	red	blue	red	left	right	0.7	0.30000000000000004	4	6	2.8	1.8000000000000005	1	0	0.7	0.30000000000000004	4	6	2.8	1.8000000000000005	valid	0.4998919579993526	53248	0	1	2	51200	0	51200	0	53248	1	0.7	51200	blue	red	0	0	ml	2.7.3	bip	sub-14_ses-02_task-ml_proj-bip_2021-03-08-10-12-34.377911
92	14	2	2	93	stable	1	200	93	sv	blue	red	blue	red	left	right	0.7	0.30000000000000004	2	4	1.4	1.2000000000000002	1	0	0.7	0.30000000000000004	2	4	1.4	1.2000000000000002	valid	0.3832488259995444	51200	0	0	1	51200	1	51200	1	53248	0	0.7	51200	blue	red	0	2	ml	2.7.3	bip	sub-14_ses-02_task-ml_proj-bip_2021-03-08-10-12-34.377911
93	14	2	2	94	stable	1	200	94	sv	red	blue	blue	red	right	left	0.7	0.30000000000000004	6	2	4.199999999999998	0.6000000000000001	1	0	0.30000000000000004	0.7	2	6	0.6000000000000001	4.199999999999998	valid	0.666510491999361	53248	0	1	1	53248	1	53248	1	53248	1	0.7	53248	blue	red	1	6	ml	2.7.3	bip	sub-14_ses-02_task-ml_proj-bip_2021-03-08-10-12-34.377911
94	14	2	2	95	stable	1	200	95	sv	red	blue	blue	red	right	left	0.7	0.30000000000000004	2	6	1.4	1.8000000000000005	1	0	0.30000000000000004	0.7	6	2	1.8000000000000005	1.4	valid	0.566526602000522	51200	0	0	2	51200	1	53248	0	51200	1	0.7	53248	blue	red	0	0	ml	2.7.3	bip	sub-14_ses-02_task-ml_proj-bip_2021-03-08-10-12-34.377911
95	14	2	2	96	stable	1	200	96	sv	red	blue	blue	red	right	left	0.7	0.30000000000000004	4	2	2.8	0.6000000000000001	1	0	0.30000000000000004	0.7	2	4	0.6000000000000001	2.8	valid	0.816466512000261	53248	0	1	1	53248	1	53248	1	53248	1	0.7	53248	blue	red	1	4	ml	2.7.3	bip	sub-14_ses-02_task-ml_proj-bip_2021-03-08-10-12-34.377911
96	14	2	2	97	stable	1	200	97	sv	blue	red	blue	red	left	right	0.7	0.30000000000000004	2	4	1.4	1.2000000000000002	1	0	0.7	0.30000000000000004	2	4	1.4	1.2000000000000002	valid	1.1330411110011482	53248	0	1	2	51200	0	51200	0	53248	1	0.7	51200	blue	red	0	0	ml	2.7.3	bip	sub-14_ses-02_task-ml_proj-bip_2021-03-08-10-12-34.377911
97	14	2	2	98	stable	1	200	98	sv	red	blue	blue	red	right	left	0.7	0.30000000000000004	2	4	1.4	1.2000000000000002	1	0	0.30000000000000004	0.7	4	2	1.2000000000000002	1.4	valid	0.4832286740002018	53248	0	1	1	53248	1	53248	1	51200	0	0.7	53248	blue	red	0	2	ml	2.7.3	bip	sub-14_ses-02_task-ml_proj-bip_2021-03-08-10-12-34.377911
98	14	2	2	99	stable	1	200	99	sv	red	blue	blue	red	right	left	0.7	0.30000000000000004	10	2	7.0	0.6000000000000001	1	0	0.30000000000000004	0.7	2	10	0.6000000000000001	7.0	valid	0.4499227340002108	53248	0	1	1	53248	1	53248	1	53248	1	0.7	53248	blue	red	1	10	ml	2.7.3	bip	sub-14_ses-02_task-ml_proj-bip_2021-03-08-10-12-34.377911
99	14	2	2	100	stable	1	200	100	sv	red	blue	blue	red	right	left	0.7	0.30000000000000004	2	4	1.4	1.2000000000000002	1	0	0.30000000000000004	0.7	4	2	1.2000000000000002	1.4	valid	0.5665367740002694	53248	0	1	1	53248	1	53248	1	51200	0	0.7	53248	blue	red	0	2	ml	2.7.3	bip	sub-14_ses-02_task-ml_proj-bip_2021-03-08-10-12-34.377911
100	14	2	3	101	stable	1	200	101	sv	blue	red	blue	red	left	right	0.7	0.30000000000000004	2	6	1.4	1.8000000000000005	1	0	0.7	0.30000000000000004	2	6	1.4	1.8000000000000005	valid	1.0997172059996956	53248	0	1	2	53248	1	51200	0	53248	1	0.7	51200	blue	red	0	0	ml	2.7.3	bip	sub-14_ses-02_task-ml_proj-bip_2021-03-08-10-12-34.377911
101	14	2	3	102	stable	1	200	102	sv	blue	red	blue	red	left	right	0.7	0.30000000000000004	6	2	4.199999999999998	0.6000000000000001	1	0	0.7	0.30000000000000004	6	2	4.199999999999998	0.6000000000000001	valid	0.4498966259998269	51200	0	0	1	51200	1	51200	1	51200	1	0.7	51200	blue	red	1	6	ml	2.7.3	bip	sub-14_ses-02_task-ml_proj-bip_2021-03-08-10-12-34.377911
102	14	2	3	103	stable	1	200	103	sv	blue	red	blue	red	left	right	0.7	0.30000000000000004	6	6	4.199999999999998	1.8000000000000005	1	0	0.7	0.30000000000000004	6	6	4.199999999999998	1.8000000000000005	valid	0.6331759389995568	51200	0	0	1	51200	1	51200	1	53248	0	0.7	51200	blue	red	1	6	ml	2.7.3	bip	sub-14_ses-02_task-ml_proj-bip_2021-03-08-10-12-34.377911
103	14	2	3	104	stable	1	200	104	sv	blue	red	blue	red	left	right	0.7	0.30000000000000004	2	10	1.4	3.0000000000000004	1	0	0.7	0.30000000000000004	2	10	1.4	3.0000000000000004	valid	0.6331874780007638	53248	0	1	2	53248	1	51200	0	53248	1	0.7	51200	blue	red	0	0	ml	2.7.3	bip	sub-14_ses-02_task-ml_proj-bip_2021-03-08-10-12-34.377911
104	14	2	3	105	stable	1	200	105	sv	blue	red	blue	red	left	right	0.7	0.30000000000000004	2	10	1.4	3.0000000000000004	1	0	0.7	0.30000000000000004	2	10	1.4	3.0000000000000004	valid	0.9997468379988276	53248	0	1	2	53248	1	51200	0	53248	1	0.7	51200	blue	red	0	0	ml	2.7.3	bip	sub-14_ses-02_task-ml_proj-bip_2021-03-08-10-12-34.377911
105	14	2	3	106	stable	1	200	106	sv	red	blue	blue	red	right	left	0.7	0.30000000000000004	2	10	1.4	3.0000000000000004	1	0	0.30000000000000004	0.7	10	2	3.0000000000000004	1.4	valid	0.5665280249995703	51200	0	0	2	51200	1	53248	0	51200	1	0.7	53248	blue	red	0	0	ml	2.7.3	bip	sub-14_ses-02_task-ml_proj-bip_2021-03-08-10-12-34.377911
106	14	2	3	107	stable	1	200	107	sv	red	blue	blue	red	right	left	0.7	0.30000000000000004	6	2	4.199999999999998	0.6000000000000001	1	0	0.30000000000000004	0.7	2	6	0.6000000000000001	4.199999999999998	valid	0.7831444330004158	53248	0	1	1	53248	1	53248	1	53248	1	0.7	53248	blue	red	1	6	ml	2.7.3	bip	sub-14_ses-02_task-ml_proj-bip_2021-03-08-10-12-34.377911
107	14	2	3	108	stable	1	200	108	sv	red	blue	blue	red	right	left	0.7	0.30000000000000004	6	4	4.199999999999998	1.2000000000000002	1	0	0.30000000000000004	0.7	4	6	1.2000000000000002	4.199999999999998	valid	0.4832309869998426	53248	0	1	1	53248	1	53248	1	53248	1	0.7	53248	blue	red	1	6	ml	2.7.3	bip	sub-14_ses-02_task-ml_proj-bip_2021-03-08-10-12-34.377911
108	14	2	3	109	stable	1	200	109	sv	red	blue	blue	red	right	left	0.7	0.30000000000000004	6	4	4.199999999999998	1.2000000000000002	1	0	0.30000000000000004	0.7	4	6	1.2000000000000002	4.199999999999998	valid	0.5665389659989161	53248	0	1	1	53248	1	53248	1	53248	1	0.7	53248	blue	red	1	6	ml	2.7.3	bip	sub-14_ses-02_task-ml_proj-bip_2021-03-08-10-12-34.377911
109	14	2	3	110	stable	1	200	110	sv	blue	red	blue	red	left	right	0.7	0.30000000000000004	2	2	1.4	0.6000000000000001	0	1	0.7	0.30000000000000004	2	2	1.4	0.6000000000000001	invalid	0.933088479001526	51200	0	0	1	51200	1	51200	1	53248	0	0.7	51200	blue	red	1	0	ml	2.7.3	bip	sub-14_ses-02_task-ml_proj-bip_2021-03-08-10-12-34.377911
110	14	2	3	111	stable	1	200	111	sv	red	blue	blue	red	right	left	0.7	0.30000000000000004	2	6	1.4	1.8000000000000005	1	0	0.30000000000000004	0.7	6	2	1.8000000000000005	1.4	valid	0.5831905920003919	51200	0	0	2	51200	1	53248	0	51200	1	0.7	53248	blue	red	0	0	ml	2.7.3	bip	sub-14_ses-02_task-ml_proj-bip_2021-03-08-10-12-34.377911
111	14	2	3	112	stable	1	200	112	sv	blue	red	blue	red	left	right	0.7	0.30000000000000004	2	2	1.4	0.6000000000000001	1	0	0.7	0.30000000000000004	2	2	1.4	0.6000000000000001	valid	0.5332072660003178	51200	0	0	1	51200	1	51200	1	53248	0	0.7	51200	blue	red	1	2	ml	2.7.3	bip	sub-14_ses-02_task-ml_proj-bip_2021-03-08-10-12-34.377911
112	14	2	3	113	stable	1	200	113	sv	blue	red	blue	red	left	right	0.7	0.30000000000000004	2	2	1.4	0.6000000000000001	0	1	0.7	0.30000000000000004	2	2	1.4	0.6000000000000001	invalid	0.7498142610002105	51200	0	0	1	51200	1	51200	1	53248	0	0.7	51200	blue	red	1	0	ml	2.7.3	bip	sub-14_ses-02_task-ml_proj-bip_2021-03-08-10-12-34.377911
113	14	2	3	114	stable	1	200	114	sv	red	blue	blue	red	right	left	0.7	0.30000000000000004	2	2	1.4	0.6000000000000001	1	0	0.30000000000000004	0.7	2	2	0.6000000000000001	1.4	valid	0.4332440470006986	53248	0	1	1	53248	1	53248	1	53248	1	0.7	53248	blue	red	0	2	ml	2.7.3	bip	sub-14_ses-02_task-ml_proj-bip_2021-03-08-10-12-34.377911
114	14	2	3	115	stable	1	200	115	sv	blue	red	blue	red	left	right	0.7	0.30000000000000004	4	6	2.8	1.8000000000000005	1	0	0.7	0.30000000000000004	4	6	2.8	1.8000000000000005	valid	0.6165139839995389	51200	0	0	1	51200	1	51200	1	53248	0	0.7	51200	blue	red	0	4	ml	2.7.3	bip	sub-14_ses-02_task-ml_proj-bip_2021-03-08-10-12-34.377911
115	14	2	3	116	stable	1	200	116	sv	red	blue	blue	red	right	left	0.7	0.30000000000000004	10	2	7.0	0.6000000000000001	0	1	0.30000000000000004	0.7	2	10	0.6000000000000001	7.0	invalid	0.7831423759998871	53248	0	1	1	53248	1	53248	1	53248	1	0.7	53248	blue	red	1	0	ml	2.7.3	bip	sub-14_ses-02_task-ml_proj-bip_2021-03-08-10-12-34.377911
116	14	2	3	117	stable	1	200	117	sv	blue	red	blue	red	left	right	0.7	0.30000000000000004	2	2	1.4	0.6000000000000001	1	0	0.7	0.30000000000000004	2	2	1.4	0.6000000000000001	valid	1.0330573890005326	51200	0	0	1	51200	1	51200	1	53248	0	0.7	51200	blue	red	1	2	ml	2.7.3	bip	sub-14_ses-02_task-ml_proj-bip_2021-03-08-10-12-34.377911
117	14	2	3	118	stable	1	200	118	sv	blue	red	blue	red	left	right	0.7	0.30000000000000004	6	6	4.199999999999998	1.8000000000000005	0	1	0.7	0.30000000000000004	6	6	4.199999999999998	1.8000000000000005	invalid	0.5832017769989761	53248	0	1	2	51200	0	51200	0	53248	1	0.7	51200	blue	red	1	6	ml	2.7.3	bip	sub-14_ses-02_task-ml_proj-bip_2021-03-08-10-12-34.377911
118	14	2	3	119	stable	1	200	119	sv	red	blue	blue	red	right	left	0.7	0.30000000000000004	6	4	4.199999999999998	1.2000000000000002	1	0	0.30000000000000004	0.7	4	6	1.2000000000000002	4.199999999999998	valid	0.8664533829996799	53248	0	1	1	53248	1	53248	1	53248	1	0.7	53248	blue	red	1	6	ml	2.7.3	bip	sub-14_ses-02_task-ml_proj-bip_2021-03-08-10-12-34.377911
119	14	2	3	120	stable	1	200	120	sv	red	blue	blue	red	right	left	0.7	0.30000000000000004	6	4	4.199999999999998	1.2000000000000002	1	0	0.30000000000000004	0.7	4	6	1.2000000000000002	4.199999999999998	valid	0.5832009459991241	53248	0	1	1	53248	1	53248	1	53248	1	0.7	53248	blue	red	1	6	ml	2.7.3	bip	sub-14_ses-02_task-ml_proj-bip_2021-03-08-10-12-34.377911
120	14	2	3	121	stable	1	200	121	sv	red	blue	blue	red	right	left	0.7	0.30000000000000004	6	6	4.199999999999998	1.8000000000000005	1	0	0.30000000000000004	0.7	6	6	1.8000000000000005	4.199999999999998	valid	0.7164947709989065	53248	0	1	1	53248	1	53248	1	53248	1	0.7	53248	blue	red	0	6	ml	2.7.3	bip	sub-14_ses-02_task-ml_proj-bip_2021-03-08-10-12-34.377911
121	14	2	3	122	stable	1	200	122	sv	blue	red	blue	red	left	right	0.7	0.30000000000000004	2	4	1.4	1.2000000000000002	1	0	0.7	0.30000000000000004	2	4	1.4	1.2000000000000002	valid	0.8331163029997697	51200	0	0	1	51200	1	51200	1	53248	0	0.7	51200	blue	red	0	2	ml	2.7.3	bip	sub-14_ses-02_task-ml_proj-bip_2021-03-08-10-12-34.377911
122	14	2	3	123	stable	1	200	123	sv	red	blue	blue	red	right	left	0.7	0.30000000000000004	2	4	1.4	1.2000000000000002	1	0	0.30000000000000004	0.7	4	2	1.2000000000000002	1.4	valid	1.2663339829996405	53248	0	1	1	53248	1	53248	1	51200	0	0.7	53248	blue	red	0	2	ml	2.7.3	bip	sub-14_ses-02_task-ml_proj-bip_2021-03-08-10-12-34.377911
123	14	2	3	124	stable	1	200	124	sv	red	blue	blue	red	right	left	0.7	0.30000000000000004	2	10	1.4	3.0000000000000004	0	1	0.30000000000000004	0.7	10	2	3.0000000000000004	1.4	invalid	0.4832199739994394	51200	0	0	2	51200	1	53248	0	51200	1	0.7	53248	blue	red	0	10	ml	2.7.3	bip	sub-14_ses-02_task-ml_proj-bip_2021-03-08-10-12-34.377911
124	14	2	3	125	stable	1	200	125	sv	red	blue	blue	red	right	left	0.7	0.30000000000000004	2	2	1.4	0.6000000000000001	1	0	0.30000000000000004	0.7	2	2	0.6000000000000001	1.4	valid	0.9330911590004688	53248	0	1	1	53248	1	53248	1	53248	1	0.7	53248	blue	red	0	2	ml	2.7.3	bip	sub-14_ses-02_task-ml_proj-bip_2021-03-08-10-12-34.377911
125	14	2	3	126	stable	1	200	126	sv	blue	red	blue	red	left	right	0.7	0.30000000000000004	10	2	7.0	0.6000000000000001	1	0	0.7	0.30000000000000004	10	2	7.0	0.6000000000000001	valid	0.3832510780011944	51200	0	0	1	51200	1	51200	1	51200	1	0.7	51200	blue	red	1	10	ml	2.7.3	bip	sub-14_ses-02_task-ml_proj-bip_2021-03-08-10-12-34.377911
126	14	2	3	127	stable	1	200	127	sv	red	blue	blue	red	right	left	0.7	0.30000000000000004	6	2	4.199999999999998	0.6000000000000001	1	0	0.30000000000000004	0.7	2	6	0.6000000000000001	4.199999999999998	valid	0.4665675659998669	53248	0	1	1	53248	1	53248	1	53248	1	0.7	53248	blue	red	1	6	ml	2.7.3	bip	sub-14_ses-02_task-ml_proj-bip_2021-03-08-10-12-34.377911
127	14	2	3	128	stable	1	200	128	sv	blue	red	blue	red	left	right	0.7	0.30000000000000004	6	2	4.199999999999998	0.6000000000000001	1	0	0.7	0.30000000000000004	6	2	4.199999999999998	0.6000000000000001	valid	0.6165139000004274	51200	0	0	1	51200	1	51200	1	51200	1	0.7	51200	blue	red	1	6	ml	2.7.3	bip	sub-14_ses-02_task-ml_proj-bip_2021-03-08-10-12-34.377911
128	14	2	3	129	stable	1	200	129	sv	red	blue	blue	red	right	left	0.7	0.30000000000000004	2	6	1.4	1.8000000000000005	1	0	0.30000000000000004	0.7	6	2	1.8000000000000005	1.4	valid	1.3329737339990968	51200	0	0	2	51200	1	53248	0	51200	1	0.7	53248	blue	red	0	0	ml	2.7.3	bip	sub-14_ses-02_task-ml_proj-bip_2021-03-08-10-12-34.377911
129	14	2	3	130	stable	1	200	130	sv	red	blue	blue	red	right	left	0.7	0.30000000000000004	6	4	4.199999999999998	1.2000000000000002	1	0	0.30000000000000004	0.7	4	6	1.2000000000000002	4.199999999999998	valid	0.7331627830008074	53248	0	1	1	53248	1	53248	1	53248	1	0.7	53248	blue	red	1	6	ml	2.7.3	bip	sub-14_ses-02_task-ml_proj-bip_2021-03-08-10-12-34.377911
130	14	2	3	131	stable	1	200	131	sv	red	blue	blue	red	right	left	0.7	0.30000000000000004	6	4	4.199999999999998	1.2000000000000002	1	0	0.30000000000000004	0.7	4	6	1.2000000000000002	4.199999999999998	valid	0.6331910249991779	53248	0	1	1	53248	1	53248	1	53248	1	0.7	53248	blue	red	1	6	ml	2.7.3	bip	sub-14_ses-02_task-ml_proj-bip_2021-03-08-10-12-34.377911
131	14	2	3	132	stable	1	200	132	sv	blue	red	blue	red	left	right	0.7	0.30000000000000004	6	4	4.199999999999998	1.2000000000000002	1	0	0.7	0.30000000000000004	6	4	4.199999999999998	1.2000000000000002	valid	0.5165438929998345	51200	0	0	1	51200	1	51200	1	51200	1	0.7	51200	blue	red	1	6	ml	2.7.3	bip	sub-14_ses-02_task-ml_proj-bip_2021-03-08-10-12-34.377911
132	14	2	3	133	stable	1	200	133	sv	red	blue	blue	red	right	left	0.7	0.30000000000000004	2	10	1.4	3.0000000000000004	1	0	0.30000000000000004	0.7	10	2	3.0000000000000004	1.4	valid	0.7664703680002276	51200	0	0	2	51200	1	53248	0	51200	1	0.7	53248	blue	red	0	0	ml	2.7.3	bip	sub-14_ses-02_task-ml_proj-bip_2021-03-08-10-12-34.377911
133	14	2	3	134	stable	1	200	134	sv	blue	red	blue	red	left	right	0.7	0.30000000000000004	4	6	2.8	1.8000000000000005	1	0	0.7	0.30000000000000004	4	6	2.8	1.8000000000000005	valid	0.6165236840006401	53248	0	1	2	51200	0	51200	0	53248	1	0.7	51200	blue	red	0	0	ml	2.7.3	bip	sub-14_ses-02_task-ml_proj-bip_2021-03-08-10-12-34.377911
134	14	2	3	135	stable	1	200	135	sv	red	blue	blue	red	right	left	0.7	0.30000000000000004	6	2	4.199999999999998	0.6000000000000001	0	1	0.30000000000000004	0.7	2	6	0.6000000000000001	4.199999999999998	invalid	0.6331945729998552	53248	0	1	1	53248	1	53248	1	53248	1	0.7	53248	blue	red	1	0	ml	2.7.3	bip	sub-14_ses-02_task-ml_proj-bip_2021-03-08-10-12-34.377911
135	14	2	3	136	stable	1	200	136	sv	blue	red	blue	red	left	right	0.7	0.30000000000000004	10	2	7.0	0.6000000000000001	1	0	0.7	0.30000000000000004	10	2	7.0	0.6000000000000001	valid	0.7498079300003155	51200	0	0	1	51200	1	51200	1	51200	1	0.7	51200	blue	red	1	10	ml	2.7.3	bip	sub-14_ses-02_task-ml_proj-bip_2021-03-08-10-12-34.377911
136	14	2	3	137	stable	1	200	137	sv	blue	red	blue	red	left	right	0.7	0.30000000000000004	2	4	1.4	1.2000000000000002	1	0	0.7	0.30000000000000004	2	4	1.4	1.2000000000000002	valid	0.7331584339990513	53248	0	1	2	51200	0	51200	0	53248	1	0.7	51200	blue	red	0	0	ml	2.7.3	bip	sub-14_ses-02_task-ml_proj-bip_2021-03-08-10-12-34.377911
137	14	2	3	138	stable	1	200	138	sv	blue	red	blue	red	left	right	0.7	0.30000000000000004	6	6	4.199999999999998	1.8000000000000005	1	0	0.7	0.30000000000000004	6	6	4.199999999999998	1.8000000000000005	valid	0.4332327289994282	51200	0	0	1	51200	1	51200	1	53248	0	0.7	51200	blue	red	1	6	ml	2.7.3	bip	sub-14_ses-02_task-ml_proj-bip_2021-03-08-10-12-34.377911
138	14	2	3	139	stable	1	200	139	sv	blue	red	blue	red	left	right	0.7	0.30000000000000004	4	2	2.8	0.6000000000000001	0	1	0.7	0.30000000000000004	4	2	2.8	0.6000000000000001	invalid	0.5665288549989782	51200	0	0	1	51200	1	51200	1	51200	1	0.7	51200	blue	red	1	0	ml	2.7.3	bip	sub-14_ses-02_task-ml_proj-bip_2021-03-08-10-12-34.377911
139	14	2	3	140	stable	1	200	140	sv	blue	red	blue	red	left	right	0.7	0.30000000000000004	4	6	2.8	1.8000000000000005	0	1	0.7	0.30000000000000004	4	6	2.8	1.8000000000000005	invalid	0.7998084980008571	53248	0	1	2	51200	0	51200	0	53248	1	0.7	51200	blue	red	0	6	ml	2.7.3	bip	sub-14_ses-02_task-ml_proj-bip_2021-03-08-10-12-34.377911
140	14	2	3	141	stable	1	200	141	sv	blue	red	blue	red	left	right	0.7	0.30000000000000004	4	2	2.8	0.6000000000000001	1	0	0.7	0.30000000000000004	4	2	2.8	0.6000000000000001	valid	1.2496647230000235	51200	0	0	1	51200	1	51200	1	51200	1	0.7	51200	blue	red	1	4	ml	2.7.3	bip	sub-14_ses-02_task-ml_proj-bip_2021-03-08-10-12-34.377911
141	14	2	3	142	stable	1	200	142	sv	red	blue	blue	red	right	left	0.7	0.30000000000000004	2	4	1.4	1.2000000000000002	1	0	0.30000000000000004	0.7	4	2	1.2000000000000002	1.4	valid	1.0330699690002805	53248	0	1	1	53248	1	53248	1	51200	0	0.7	53248	blue	red	0	2	ml	2.7.3	bip	sub-14_ses-02_task-ml_proj-bip_2021-03-08-10-12-34.377911
142	14	2	3	143	stable	1	200	143	sv	red	blue	blue	red	right	left	0.7	0.30000000000000004	6	2	4.199999999999998	0.6000000000000001	0	1	0.30000000000000004	0.7	2	6	0.6000000000000001	4.199999999999998	invalid	1.249682407000364	53248	0	1	1	53248	1	53248	1	53248	1	0.7	53248	blue	red	1	0	ml	2.7.3	bip	sub-14_ses-02_task-ml_proj-bip_2021-03-08-10-12-34.377911
143	14	2	3	144	stable	1	200	144	sv	red	blue	blue	red	right	left	0.7	0.30000000000000004	4	6	2.8	1.8000000000000005	1	0	0.30000000000000004	0.7	6	4	1.8000000000000005	2.8	valid	0.5165451140001096	51200	0	0	2	53248	0	53248	0	51200	1	0.7	53248	blue	red	0	0	ml	2.7.3	bip	sub-14_ses-02_task-ml_proj-bip_2021-03-08-10-12-34.377911
144	14	2	3	145	stable	1	200	145	sv	red	blue	blue	red	right	left	0.7	0.30000000000000004	6	2	4.199999999999998	0.6000000000000001	1	0	0.30000000000000004	0.7	2	6	0.6000000000000001	4.199999999999998	valid	0.7498174730008031	53248	0	1	1	53248	1	53248	1	53248	1	0.7	53248	blue	red	1	6	ml	2.7.3	bip	sub-14_ses-02_task-ml_proj-bip_2021-03-08-10-12-34.377911
145	14	2	3	146	stable	1	200	146	sv	blue	red	blue	red	left	right	0.7	0.30000000000000004	6	6	4.199999999999998	1.8000000000000005	0	1	0.7	0.30000000000000004	6	6	4.199999999999998	1.8000000000000005	invalid	1.5162467760001164	51200	0	0	1	51200	1	51200	1	53248	0	0.7	51200	blue	red	1	0	ml	2.7.3	bip	sub-14_ses-02_task-ml_proj-bip_2021-03-08-10-12-34.377911
146	14	2	3	147	stable	1	200	147	sv	blue	red	blue	red	left	right	0.7	0.30000000000000004	2	6	1.4	1.8000000000000005	1	0	0.7	0.30000000000000004	2	6	1.4	1.8000000000000005	valid	0.91644719299984	53248	0	1	2	53248	1	51200	0	53248	1	0.7	51200	blue	red	0	0	ml	2.7.3	bip	sub-14_ses-02_task-ml_proj-bip_2021-03-08-10-12-34.377911
147	14	2	3	148	stable	1	200	148	sv	red	blue	blue	red	right	left	0.7	0.30000000000000004	2	6	1.4	1.8000000000000005	1	0	0.30000000000000004	0.7	6	2	1.8000000000000005	1.4	valid	0.6498473420015216	53248	0	1	1	51200	0	53248	1	51200	0	0.7	53248	blue	red	0	2	ml	2.7.3	bip	sub-14_ses-02_task-ml_proj-bip_2021-03-08-10-12-34.377911
148	14	2	3	149	stable	1	200	149	sv	red	blue	blue	red	right	left	0.7	0.30000000000000004	4	6	2.8	1.8000000000000005	1	0	0.30000000000000004	0.7	6	4	1.8000000000000005	2.8	valid	0.8664474760007579	53248	0	1	1	53248	1	53248	1	51200	0	0.7	53248	blue	red	0	4	ml	2.7.3	bip	sub-14_ses-02_task-ml_proj-bip_2021-03-08-10-12-34.377911
149	14	2	3	150	stable	1	200	150	sv	red	blue	blue	red	right	left	0.7	0.30000000000000004	6	2	4.199999999999998	0.6000000000000001	1	0	0.30000000000000004	0.7	2	6	0.6000000000000001	4.199999999999998	valid	0.6165275550010847	53248	0	1	1	53248	1	53248	1	53248	1	0.7	53248	blue	red	1	6	ml	2.7.3	bip	sub-14_ses-02_task-ml_proj-bip_2021-03-08-10-12-34.377911
150	14	2	4	151	stable	1	200	151	sv	red	blue	blue	red	right	left	0.7	0.30000000000000004	6	2	4.199999999999998	0.6000000000000001	1	0	0.30000000000000004	0.7	2	6	0.6000000000000001	4.199999999999998	valid	0.5998642260001361	53248	0	1	1	53248	1	53248	1	53248	1	0.7	53248	blue	red	1	6	ml	2.7.3	bip	sub-14_ses-02_task-ml_proj-bip_2021-03-08-10-12-34.377911
151	14	2	4	152	stable	1	200	152	sv	red	blue	blue	red	right	left	0.7	0.30000000000000004	4	6	2.8	1.8000000000000005	1	0	0.30000000000000004	0.7	6	4	1.8000000000000005	2.8	valid	0.46657540999876795	53248	0	1	1	53248	1	53248	1	51200	0	0.7	53248	blue	red	0	4	ml	2.7.3	bip	sub-14_ses-02_task-ml_proj-bip_2021-03-08-10-12-34.377911
152	14	2	4	153	stable	1	200	153	sv	red	blue	blue	red	right	left	0.7	0.30000000000000004	10	2	7.0	0.6000000000000001	0	1	0.30000000000000004	0.7	2	10	0.6000000000000001	7.0	invalid	0.783152035999592	53248	0	1	1	53248	1	53248	1	53248	1	0.7	53248	blue	red	1	0	ml	2.7.3	bip	sub-14_ses-02_task-ml_proj-bip_2021-03-08-10-12-34.377911
153	14	2	4	154	stable	1	200	154	sv	blue	red	blue	red	left	right	0.7	0.30000000000000004	2	4	1.4	1.2000000000000002	1	0	0.7	0.30000000000000004	2	4	1.4	1.2000000000000002	valid	0.799812657000075	53248	0	1	2	51200	0	51200	0	53248	1	0.7	51200	blue	red	0	0	ml	2.7.3	bip	sub-14_ses-02_task-ml_proj-bip_2021-03-08-10-12-34.377911
154	14	2	4	155	stable	1	200	155	sv	red	blue	blue	red	right	left	0.7	0.30000000000000004	6	4	4.199999999999998	1.2000000000000002	0	1	0.30000000000000004	0.7	4	6	1.2000000000000002	4.199999999999998	invalid	0.6665177619997849	53248	0	1	1	53248	1	53248	1	53248	1	0.7	53248	blue	red	1	0	ml	2.7.3	bip	sub-14_ses-02_task-ml_proj-bip_2021-03-08-10-12-34.377911
155	14	2	4	156	stable	1	200	156	sv	blue	red	blue	red	left	right	0.7	0.30000000000000004	6	2	4.199999999999998	0.6000000000000001	1	0	0.7	0.30000000000000004	6	2	4.199999999999998	0.6000000000000001	valid	0.6831633270012389	51200	0	0	1	51200	1	51200	1	51200	1	0.7	51200	blue	red	1	6	ml	2.7.3	bip	sub-14_ses-02_task-ml_proj-bip_2021-03-08-10-12-34.377911
156	14	2	4	157	stable	1	200	157	sv	red	blue	blue	red	right	left	0.7	0.30000000000000004	2	2	1.4	0.6000000000000001	0	1	0.30000000000000004	0.7	2	2	0.6000000000000001	1.4	invalid	0.7164975109990337	53248	0	1	1	53248	1	53248	1	53248	1	0.7	53248	blue	red	0	0	ml	2.7.3	bip	sub-14_ses-02_task-ml_proj-bip_2021-03-08-10-12-34.377911
157	14	2	4	158	stable	1	200	158	sv	blue	red	blue	red	left	right	0.7	0.30000000000000004	10	2	7.0	0.6000000000000001	1	0	0.7	0.30000000000000004	10	2	7.0	0.6000000000000001	valid	0.7997959019994596	51200	0	0	1	51200	1	51200	1	51200	1	0.7	51200	blue	red	1	10	ml	2.7.3	bip	sub-14_ses-02_task-ml_proj-bip_2021-03-08-10-12-34.377911
158	14	2	4	159	stable	1	200	159	sv	blue	red	blue	red	left	right	0.7	0.30000000000000004	6	2	4.199999999999998	0.6000000000000001	0	1	0.7	0.30000000000000004	6	2	4.199999999999998	0.6000000000000001	invalid	0.7664695010007563	51200	0	0	1	51200	1	51200	1	51200	1	0.7	51200	blue	red	1	0	ml	2.7.3	bip	sub-14_ses-02_task-ml_proj-bip_2021-03-08-10-12-34.377911
159	14	2	4	160	stable	1	200	160	sv	red	blue	blue	red	right	left	0.7	0.30000000000000004	2	10	1.4	3.0000000000000004	1	0	0.30000000000000004	0.7	10	2	3.0000000000000004	1.4	valid	0.599852376999479	51200	0	0	2	51200	1	53248	0	51200	1	0.7	53248	blue	red	0	0	ml	2.7.3	bip	sub-14_ses-02_task-ml_proj-bip_2021-03-08-10-12-34.377911
160	14	2	4	161	stable	1	200	161	sv	red	blue	blue	red	right	left	0.7	0.30000000000000004	6	6	4.199999999999998	1.8000000000000005	0	1	0.30000000000000004	0.7	6	6	1.8000000000000005	4.199999999999998	invalid	0.749818045000211	53248	0	1	1	53248	1	53248	1	53248	1	0.7	53248	blue	red	0	0	ml	2.7.3	bip	sub-14_ses-02_task-ml_proj-bip_2021-03-08-10-12-34.377911
161	14	2	4	162	stable	1	200	162	sv	blue	red	blue	red	left	right	0.7	0.30000000000000004	4	6	2.8	1.8000000000000005	1	0	0.7	0.30000000000000004	4	6	2.8	1.8000000000000005	valid	0.4998923509992892	53248	0	1	2	51200	0	51200	0	53248	1	0.7	51200	blue	red	0	0	ml	2.7.3	bip	sub-14_ses-02_task-ml_proj-bip_2021-03-08-10-12-34.377911
162	14	2	4	163	stable	1	200	163	sv	red	blue	blue	red	right	left	0.7	0.30000000000000004	4	2	2.8	0.6000000000000001	1	0	0.30000000000000004	0.7	2	4	0.6000000000000001	2.8	valid	1.0830547410005238	53248	0	1	1	53248	1	53248	1	53248	1	0.7	53248	blue	red	1	4	ml	2.7.3	bip	sub-14_ses-02_task-ml_proj-bip_2021-03-08-10-12-34.377911
163	14	2	4	164	stable	1	200	164	sv	red	blue	blue	red	right	left	0.7	0.30000000000000004	2	4	1.4	1.2000000000000002	1	0	0.30000000000000004	0.7	4	2	1.2000000000000002	1.4	valid	0.4998894250002195	53248	0	1	1	53248	1	53248	1	51200	0	0.7	53248	blue	red	0	2	ml	2.7.3	bip	sub-14_ses-02_task-ml_proj-bip_2021-03-08-10-12-34.377911
164	14	2	4	165	stable	1	200	165	sv	blue	red	blue	red	left	right	0.7	0.30000000000000004	6	4	4.199999999999998	1.2000000000000002	0	1	0.7	0.30000000000000004	6	4	4.199999999999998	1.2000000000000002	invalid	0.4998818099993514	51200	0	0	1	51200	1	51200	1	51200	1	0.7	51200	blue	red	1	0	ml	2.7.3	bip	sub-14_ses-02_task-ml_proj-bip_2021-03-08-10-12-34.377911
165	14	2	4	166	stable	1	200	166	sv	red	blue	blue	red	right	left	0.7	0.30000000000000004	2	10	1.4	3.0000000000000004	1	0	0.30000000000000004	0.7	10	2	3.0000000000000004	1.4	valid	0.6165210830004071	51200	0	0	2	51200	1	53248	0	51200	1	0.7	53248	blue	red	0	0	ml	2.7.3	bip	sub-14_ses-02_task-ml_proj-bip_2021-03-08-10-12-34.377911
166	14	2	4	167	stable	1	200	167	sv	blue	red	blue	red	left	right	0.7	0.30000000000000004	6	2	4.199999999999998	0.6000000000000001	1	0	0.7	0.30000000000000004	6	2	4.199999999999998	0.6000000000000001	valid	1.3163138999989314	51200	0	0	1	51200	1	51200	1	51200	1	0.7	51200	blue	red	1	6	ml	2.7.3	bip	sub-14_ses-02_task-ml_proj-bip_2021-03-08-10-12-34.377911
167	14	2	4	168	stable	1	200	168	sv	red	blue	blue	red	right	left	0.7	0.30000000000000004	2	10	1.4	3.0000000000000004	0	1	0.30000000000000004	0.7	10	2	3.0000000000000004	1.4	invalid	0.5998518870001135	51200	0	0	2	51200	1	53248	0	51200	1	0.7	53248	blue	red	0	10	ml	2.7.3	bip	sub-14_ses-02_task-ml_proj-bip_2021-03-08-10-12-34.377911
168	14	2	4	169	stable	1	200	169	sv	red	blue	blue	red	right	left	0.7	0.30000000000000004	6	4	4.199999999999998	1.2000000000000002	0	1	0.30000000000000004	0.7	4	6	1.2000000000000002	4.199999999999998	invalid	1.0830518040002062	53248	0	1	1	53248	1	53248	1	53248	1	0.7	53248	blue	red	1	0	ml	2.7.3	bip	sub-14_ses-02_task-ml_proj-bip_2021-03-08-10-12-34.377911
169	14	2	4	170	stable	1	200	170	sv	red	blue	blue	red	right	left	0.7	0.30000000000000004	2	6	1.4	1.8000000000000005	0	1	0.30000000000000004	0.7	6	2	1.8000000000000005	1.4	invalid	0.6664993350004806	51200	0	0	2	51200	1	53248	0	51200	1	0.7	53248	blue	red	0	6	ml	2.7.3	bip	sub-14_ses-02_task-ml_proj-bip_2021-03-08-10-12-34.377911
170	14	2	4	171	stable	1	200	171	sv	blue	red	blue	red	left	right	0.7	0.30000000000000004	2	2	1.4	0.6000000000000001	1	0	0.7	0.30000000000000004	2	2	1.4	0.6000000000000001	valid	1.6495833349999884	53248	0	1	2	51200	0	51200	0	53248	1	0.7	51200	blue	red	1	0	ml	2.7.3	bip	sub-14_ses-02_task-ml_proj-bip_2021-03-08-10-12-34.377911
171	14	2	4	172	stable	1	200	172	sv	red	blue	blue	red	right	left	0.7	0.30000000000000004	6	6	4.199999999999998	1.8000000000000005	1	0	0.30000000000000004	0.7	6	6	1.8000000000000005	4.199999999999998	valid	0.649841477001246	51200	0	0	2	53248	0	53248	0	53248	0	0.7	53248	blue	red	0	0	ml	2.7.3	bip	sub-14_ses-02_task-ml_proj-bip_2021-03-08-10-12-34.377911
172	14	2	4	173	stable	1	200	173	sv	red	blue	blue	red	right	left	0.7	0.30000000000000004	4	6	2.8	1.8000000000000005	0	1	0.30000000000000004	0.7	6	4	1.8000000000000005	2.8	invalid	0.4165816439999617	53248	0	1	1	53248	1	53248	1	51200	0	0.7	53248	blue	red	0	0	ml	2.7.3	bip	sub-14_ses-02_task-ml_proj-bip_2021-03-08-10-12-34.377911
173	14	2	4	174	stable	1	200	174	sv	blue	red	blue	red	left	right	0.7	0.30000000000000004	4	2	2.8	0.6000000000000001	1	0	0.7	0.30000000000000004	4	2	2.8	0.6000000000000001	valid	0.6331758910000644	51200	0	0	1	51200	1	51200	1	51200	1	0.7	51200	blue	red	1	4	ml	2.7.3	bip	sub-14_ses-02_task-ml_proj-bip_2021-03-08-10-12-34.377911
174	14	2	4	175	stable	1	200	175	sv	blue	red	blue	red	left	right	0.7	0.30000000000000004	4	6	2.8	1.8000000000000005	0	1	0.7	0.30000000000000004	4	6	2.8	1.8000000000000005	invalid	0.3999080910016346	51200	0	0	1	51200	1	51200	1	53248	0	0.7	51200	blue	red	0	0	ml	2.7.3	bip	sub-14_ses-02_task-ml_proj-bip_2021-03-08-10-12-34.377911
175	14	2	4	176	stable	1	200	176	sv	red	blue	blue	red	right	left	0.7	0.30000000000000004	4	2	2.8	0.6000000000000001	1	0	0.30000000000000004	0.7	2	4	0.6000000000000001	2.8	valid	0.5998689610005385	53248	0	1	1	53248	1	53248	1	53248	1	0.7	53248	blue	red	1	4	ml	2.7.3	bip	sub-14_ses-02_task-ml_proj-bip_2021-03-08-10-12-34.377911
176	14	2	4	177	stable	1	200	177	sv	blue	red	blue	red	left	right	0.7	0.30000000000000004	6	4	4.199999999999998	1.2000000000000002	0	1	0.7	0.30000000000000004	6	4	4.199999999999998	1.2000000000000002	invalid	0.43323533100010536	51200	0	0	1	51200	1	51200	1	51200	1	0.7	51200	blue	red	1	0	ml	2.7.3	bip	sub-14_ses-02_task-ml_proj-bip_2021-03-08-10-12-34.377911
177	14	2	4	178	stable	1	200	178	sv	blue	red	blue	red	left	right	0.7	0.30000000000000004	4	6	2.8	1.8000000000000005	0	1	0.7	0.30000000000000004	4	6	2.8	1.8000000000000005	invalid	0.6165264269984618	53248	0	1	2	51200	0	51200	0	53248	1	0.7	51200	blue	red	0	6	ml	2.7.3	bip	sub-14_ses-02_task-ml_proj-bip_2021-03-08-10-12-34.377911
178	14	2	4	179	stable	1	200	179	sv	red	blue	blue	red	right	left	0.7	0.30000000000000004	6	6	4.199999999999998	1.8000000000000005	1	0	0.30000000000000004	0.7	6	6	1.8000000000000005	4.199999999999998	valid	0.5665293029996974	51200	0	0	2	53248	0	53248	0	53248	0	0.7	53248	blue	red	0	0	ml	2.7.3	bip	sub-14_ses-02_task-ml_proj-bip_2021-03-08-10-12-34.377911
179	14	2	4	180	stable	1	200	180	sv	blue	red	blue	red	left	right	0.7	0.30000000000000004	2	10	1.4	3.0000000000000004	0	1	0.7	0.30000000000000004	2	10	1.4	3.0000000000000004	invalid	0.8997751759998209	53248	0	1	2	53248	1	51200	0	53248	1	0.7	51200	blue	red	0	10	ml	2.7.3	bip	sub-14_ses-02_task-ml_proj-bip_2021-03-08-10-12-34.377911
180	14	2	4	181	stable	1	200	181	sv	red	blue	blue	red	right	left	0.7	0.30000000000000004	4	6	2.8	1.8000000000000005	1	0	0.30000000000000004	0.7	6	4	1.8000000000000005	2.8	valid	0.7831418399982795	53248	0	1	1	53248	1	53248	1	51200	0	0.7	53248	blue	red	0	4	ml	2.7.3	bip	sub-14_ses-02_task-ml_proj-bip_2021-03-08-10-12-34.377911
181	14	2	4	182	stable	1	200	182	sv	red	blue	blue	red	right	left	0.7	0.30000000000000004	6	6	4.199999999999998	1.8000000000000005	1	0	0.30000000000000004	0.7	6	6	1.8000000000000005	4.199999999999998	valid	0.8331159000008483	51200	0	0	2	53248	0	53248	0	53248	0	0.7	53248	blue	red	0	0	ml	2.7.3	bip	sub-14_ses-02_task-ml_proj-bip_2021-03-08-10-12-34.377911
182	14	2	4	183	stable	1	200	183	sv	blue	red	blue	red	left	right	0.7	0.30000000000000004	10	2	7.0	0.6000000000000001	1	0	0.7	0.30000000000000004	10	2	7.0	0.6000000000000001	valid	0.6331803379998746	51200	0	0	1	51200	1	51200	1	51200	1	0.7	51200	blue	red	1	10	ml	2.7.3	bip	sub-14_ses-02_task-ml_proj-bip_2021-03-08-10-12-34.377911
183	14	2	4	184	stable	1	200	184	sv	blue	red	blue	red	left	right	0.7	0.30000000000000004	2	6	1.4	1.8000000000000005	0	1	0.7	0.30000000000000004	2	6	1.4	1.8000000000000005	invalid	0.8497885269989638	53248	0	1	2	53248	1	51200	0	53248	1	0.7	51200	blue	red	0	6	ml	2.7.3	bip	sub-14_ses-02_task-ml_proj-bip_2021-03-08-10-12-34.377911
184	14	2	4	185	stable	1	200	185	sv	red	blue	blue	red	right	left	0.7	0.30000000000000004	2	4	1.4	1.2000000000000002	0	1	0.30000000000000004	0.7	4	2	1.2000000000000002	1.4	invalid	1.0997173960004147	53248	0	1	1	53248	1	53248	1	51200	0	0.7	53248	blue	red	0	0	ml	2.7.3	bip	sub-14_ses-02_task-ml_proj-bip_2021-03-08-10-12-34.377911
185	14	2	4	186	stable	1	200	186	sv	red	blue	blue	red	right	left	0.7	0.30000000000000004	4	2	2.8	0.6000000000000001	1	0	0.30000000000000004	0.7	2	4	0.6000000000000001	2.8	valid	0.5998627260014473	53248	0	1	1	53248	1	53248	1	53248	1	0.7	53248	blue	red	1	4	ml	2.7.3	bip	sub-14_ses-02_task-ml_proj-bip_2021-03-08-10-12-34.377911
186	14	2	4	187	stable	1	200	187	sv	blue	red	blue	red	left	right	0.7	0.30000000000000004	6	6	4.199999999999998	1.8000000000000005	1	0	0.7	0.30000000000000004	6	6	4.199999999999998	1.8000000000000005	valid	0.5332171669997479	53248	0	1	2	51200	0	51200	0	53248	1	0.7	51200	blue	red	1	0	ml	2.7.3	bip	sub-14_ses-02_task-ml_proj-bip_2021-03-08-10-12-34.377911
187	14	2	4	188	stable	1	200	188	sv	blue	red	blue	red	left	right	0.7	0.30000000000000004	2	10	1.4	3.0000000000000004	0	1	0.7	0.30000000000000004	2	10	1.4	3.0000000000000004	invalid	0.6331868920005945	53248	0	1	2	53248	1	51200	0	53248	1	0.7	51200	blue	red	0	10	ml	2.7.3	bip	sub-14_ses-02_task-ml_proj-bip_2021-03-08-10-12-34.377911
188	14	2	4	189	stable	1	200	189	sv	red	blue	blue	red	right	left	0.7	0.30000000000000004	4	6	2.8	1.8000000000000005	0	1	0.30000000000000004	0.7	6	4	1.8000000000000005	2.8	invalid	1.099718744000711	53248	0	1	1	53248	1	53248	1	51200	0	0.7	53248	blue	red	0	0	ml	2.7.3	bip	sub-14_ses-02_task-ml_proj-bip_2021-03-08-10-12-34.377911
189	14	2	4	190	stable	1	200	190	sv	red	blue	blue	red	right	left	0.7	0.30000000000000004	6	6	4.199999999999998	1.8000000000000005	1	0	0.30000000000000004	0.7	6	6	1.8000000000000005	4.199999999999998	valid	0.7997936110004957	51200	0	0	2	53248	0	53248	0	53248	0	0.7	53248	blue	red	0	0	ml	2.7.3	bip	sub-14_ses-02_task-ml_proj-bip_2021-03-08-10-12-34.377911
190	14	2	4	191	stable	1	200	191	sv	blue	red	blue	red	left	right	0.7	0.30000000000000004	2	10	1.4	3.0000000000000004	1	0	0.7	0.30000000000000004	2	10	1.4	3.0000000000000004	valid	0.6165224690012111	53248	0	1	2	53248	1	51200	0	53248	1	0.7	51200	blue	red	0	0	ml	2.7.3	bip	sub-14_ses-02_task-ml_proj-bip_2021-03-08-10-12-34.377911
191	14	2	4	192	stable	1	200	192	sv	blue	red	blue	red	left	right	0.7	0.30000000000000004	2	4	1.4	1.2000000000000002	1	0	0.7	0.30000000000000004	2	4	1.4	1.2000000000000002	valid	0.5831887969998206	51200	0	0	1	51200	1	51200	1	53248	0	0.7	51200	blue	red	0	2	ml	2.7.3	bip	sub-14_ses-02_task-ml_proj-bip_2021-03-08-10-12-34.377911
192	14	2	4	193	stable	1	200	193	sv	blue	red	blue	red	left	right	0.7	0.30000000000000004	10	2	7.0	0.6000000000000001	1	0	0.7	0.30000000000000004	10	2	7.0	0.6000000000000001	valid	0.5665272930000356	51200	0	0	1	51200	1	51200	1	51200	1	0.7	51200	blue	red	1	10	ml	2.7.3	bip	sub-14_ses-02_task-ml_proj-bip_2021-03-08-10-12-34.377911
193	14	2	4	194	stable	1	200	194	sv	blue	red	blue	red	left	right	0.7	0.30000000000000004	2	6	1.4	1.8000000000000005	0	1	0.7	0.30000000000000004	2	6	1.4	1.8000000000000005	invalid	0.533215019000636	53248	0	1	2	53248	1	51200	0	53248	1	0.7	51200	blue	red	0	6	ml	2.7.3	bip	sub-14_ses-02_task-ml_proj-bip_2021-03-08-10-12-34.377911
194	14	2	4	195	stable	1	200	195	sv	red	blue	blue	red	right	left	0.7	0.30000000000000004	6	6	4.199999999999998	1.8000000000000005	0	1	0.30000000000000004	0.7	6	6	1.8000000000000005	4.199999999999998	invalid	0.5665285750001203	51200	0	0	2	53248	0	53248	0	53248	0	0.7	53248	blue	red	0	6	ml	2.7.3	bip	sub-14_ses-02_task-ml_proj-bip_2021-03-08-10-12-34.377911
195	14	2	4	196	stable	1	200	196	sv	blue	red	blue	red	left	right	0.7	0.30000000000000004	6	6	4.199999999999998	1.8000000000000005	1	0	0.7	0.30000000000000004	6	6	4.199999999999998	1.8000000000000005	valid	0.6665118580003764	53248	0	1	2	51200	0	51200	0	53248	1	0.7	51200	blue	red	1	0	ml	2.7.3	bip	sub-14_ses-02_task-ml_proj-bip_2021-03-08-10-12-34.377911
196	14	2	4	197	stable	1	200	197	sv	blue	red	blue	red	left	right	0.7	0.30000000000000004	10	2	7.0	0.6000000000000001	1	0	0.7	0.30000000000000004	10	2	7.0	0.6000000000000001	valid	0.5165414690000034	51200	0	0	1	51200	1	51200	1	51200	1	0.7	51200	blue	red	1	10	ml	2.7.3	bip	sub-14_ses-02_task-ml_proj-bip_2021-03-08-10-12-34.377911
197	14	2	4	198	stable	1	200	198	sv	blue	red	blue	red	left	right	0.7	0.30000000000000004	2	4	1.4	1.2000000000000002	1	0	0.7	0.30000000000000004	2	4	1.4	1.2000000000000002	valid	0.9830742409994856	51200	0	0	1	51200	1	51200	1	53248	0	0.7	51200	blue	red	0	2	ml	2.7.3	bip	sub-14_ses-02_task-ml_proj-bip_2021-03-08-10-12-34.377911
198	14	2	4	199	stable	1	200	199	sv	blue	red	blue	red	left	right	0.7	0.30000000000000004	6	4	4.199999999999998	1.2000000000000002	1	0	0.7	0.30000000000000004	6	4	4.199999999999998	1.2000000000000002	valid	0.4832175110004755	51200	0	0	1	51200	1	51200	1	51200	1	0.7	51200	blue	red	1	6	ml	2.7.3	bip	sub-14_ses-02_task-ml_proj-bip_2021-03-08-10-12-34.377911
199	14	2	4	200	stable	1	200	200	sv	red	blue	blue	red	right	left	0.7	0.30000000000000004	2	10	1.4	3.0000000000000004	0	1	0.30000000000000004	0.7	10	2	3.0000000000000004	1.4	invalid	0.4332370869997249	53248	0	1	1	51200	0	53248	1	51200	0	0.7	53248	blue	red	0	0	ml	2.7.3	bip	sub-14_ses-02_task-ml_proj-bip_2021-03-08-10-12-34.377911
200	14	2	5	201	volatile	2	40	1	sv	blue	red	blue	red	left	right	0.30000000000000004	0.7	2	10	0.6000000000000001	7.0	0	1	0.30000000000000004	0.7	2	10	0.6000000000000001	7.0	valid	0.6165250799986097	53248	0	1	2	53248	1	53248	1	53248	1	0.7	53248	red	blue	1	10	ml	2.7.3	bip	sub-14_ses-02_task-ml_proj-bip_2021-03-08-10-12-34.377911
201	14	2	5	202	volatile	2	40	2	sv	red	blue	blue	red	right	left	0.30000000000000004	0.7	6	4	1.8000000000000005	2.8	0	1	0.7	0.30000000000000004	4	6	2.8	1.8000000000000005	valid	0.6165294769998582	53248	0	1	1	51200	0	51200	0	53248	1	0.7	51200	red	blue	0	0	ml	2.7.3	bip	sub-14_ses-02_task-ml_proj-bip_2021-03-08-10-12-34.377911
202	14	2	5	203	volatile	2	40	3	sv	blue	red	blue	red	left	right	0.30000000000000004	0.7	6	2	1.8000000000000005	1.4	1	0	0.30000000000000004	0.7	6	2	1.8000000000000005	1.4	invalid	0.43324650400063547	53248	0	1	2	51200	0	53248	1	51200	0	0.7	53248	red	blue	0	0	ml	2.7.3	bip	sub-14_ses-02_task-ml_proj-bip_2021-03-08-10-12-34.377911
203	14	2	5	204	volatile	2	40	4	sv	blue	red	blue	red	left	right	0.30000000000000004	0.7	6	2	1.8000000000000005	1.4	0	1	0.30000000000000004	0.7	6	2	1.8000000000000005	1.4	valid	0.5165447179988405	51200	0	0	1	51200	1	53248	0	51200	1	0.7	53248	red	blue	0	0	ml	2.7.3	bip	sub-14_ses-02_task-ml_proj-bip_2021-03-08-10-12-34.377911
204	14	2	5	205	volatile	2	40	5	sv	blue	red	blue	red	left	right	0.30000000000000004	0.7	4	2	1.2000000000000002	1.4	0	1	0.30000000000000004	0.7	4	2	1.2000000000000002	1.4	valid	0.4665575389990408	51200	0	0	1	53248	0	53248	0	51200	1	0.7	53248	red	blue	0	0	ml	2.7.3	bip	sub-14_ses-02_task-ml_proj-bip_2021-03-08-10-12-34.377911
205	14	2	5	206	volatile	2	40	6	sv	red	blue	blue	red	right	left	0.30000000000000004	0.7	2	4	0.6000000000000001	2.8	1	0	0.7	0.30000000000000004	4	2	2.8	0.6000000000000001	invalid	0.6831581540009211	51200	0	0	2	51200	1	51200	1	51200	1	0.7	51200	red	blue	1	0	ml	2.7.3	bip	sub-14_ses-02_task-ml_proj-bip_2021-03-08-10-12-34.377911
206	14	2	5	207	volatile	2	40	7	sv	blue	red	blue	red	left	right	0.30000000000000004	0.7	6	6	1.8000000000000005	4.199999999999998	1	0	0.30000000000000004	0.7	6	6	1.8000000000000005	4.199999999999998	invalid	0.5165442300003633	51200	0	0	1	53248	0	53248	0	53248	0	0.7	53248	red	blue	0	6	ml	2.7.3	bip	sub-14_ses-02_task-ml_proj-bip_2021-03-08-10-12-34.377911
207	14	2	5	208	volatile	2	40	8	sv	red	blue	blue	red	right	left	0.30000000000000004	0.7	10	2	3.0000000000000004	1.4	1	0	0.7	0.30000000000000004	2	10	1.4	3.0000000000000004	invalid	0.6831710240003304	53248	0	1	1	53248	1	51200	0	53248	1	0.7	51200	red	blue	0	10	ml	2.7.3	bip	sub-14_ses-02_task-ml_proj-bip_2021-03-08-10-12-34.377911
208	14	2	5	209	volatile	2	40	9	sv	red	blue	blue	red	right	left	0.30000000000000004	0.7	4	2	1.2000000000000002	1.4	0	1	0.7	0.30000000000000004	2	4	1.4	1.2000000000000002	valid	0.5498786000007385	53248	0	1	1	51200	0	51200	0	53248	1	0.7	51200	red	blue	0	0	ml	2.7.3	bip	sub-14_ses-02_task-ml_proj-bip_2021-03-08-10-12-34.377911
209	14	2	5	210	volatile	2	40	10	sv	blue	red	blue	red	left	right	0.30000000000000004	0.7	6	4	1.8000000000000005	2.8	0	1	0.30000000000000004	0.7	6	4	1.8000000000000005	2.8	valid	0.8331180839995795	51200	0	0	1	53248	0	53248	0	51200	1	0.7	53248	red	blue	0	0	ml	2.7.3	bip	sub-14_ses-02_task-ml_proj-bip_2021-03-08-10-12-34.377911
210	14	2	5	211	volatile	2	40	11	sv	red	blue	blue	red	right	left	0.30000000000000004	0.7	2	6	0.6000000000000001	4.199999999999998	0	1	0.7	0.30000000000000004	6	2	4.199999999999998	0.6000000000000001	valid	0.4498958429994673	51200	0	0	2	51200	1	51200	1	51200	1	0.7	51200	red	blue	1	6	ml	2.7.3	bip	sub-14_ses-02_task-ml_proj-bip_2021-03-08-10-12-34.377911
211	14	2	5	212	volatile	2	40	12	sv	red	blue	blue	red	right	left	0.30000000000000004	0.7	6	6	1.8000000000000005	4.199999999999998	0	1	0.7	0.30000000000000004	6	6	4.199999999999998	1.8000000000000005	valid	0.4665675810010725	53248	0	1	1	51200	0	51200	0	53248	1	0.7	51200	red	blue	1	0	ml	2.7.3	bip	sub-14_ses-02_task-ml_proj-bip_2021-03-08-10-12-34.377911
212	14	2	5	213	volatile	2	40	13	sv	red	blue	blue	red	right	left	0.30000000000000004	0.7	4	2	1.2000000000000002	1.4	0	1	0.7	0.30000000000000004	2	4	1.4	1.2000000000000002	valid	0.4498963219994039	51200	0	0	2	51200	1	51200	1	53248	0	0.7	51200	red	blue	0	2	ml	2.7.3	bip	sub-14_ses-02_task-ml_proj-bip_2021-03-08-10-12-34.377911
213	14	2	5	214	volatile	2	40	14	sv	red	blue	blue	red	right	left	0.30000000000000004	0.7	2	2	0.6000000000000001	1.4	0	1	0.7	0.30000000000000004	2	2	1.4	0.6000000000000001	valid	0.39991154100061976	51200	0	0	2	51200	1	51200	1	53248	0	0.7	51200	red	blue	1	2	ml	2.7.3	bip	sub-14_ses-02_task-ml_proj-bip_2021-03-08-10-12-34.377911
214	14	2	5	215	volatile	2	40	15	sv	red	blue	blue	red	right	left	0.30000000000000004	0.7	2	2	0.6000000000000001	1.4	0	1	0.7	0.30000000000000004	2	2	1.4	0.6000000000000001	valid	0.5332032269998308	51200	0	0	2	51200	1	51200	1	53248	0	0.7	51200	red	blue	1	2	ml	2.7.3	bip	sub-14_ses-02_task-ml_proj-bip_2021-03-08-10-12-34.377911
215	14	2	5	216	volatile	2	40	16	sv	red	blue	blue	red	right	left	0.30000000000000004	0.7	2	10	0.6000000000000001	7.0	0	1	0.7	0.30000000000000004	10	2	7.0	0.6000000000000001	valid	0.5831890999997995	51200	0	0	2	51200	1	51200	1	51200	1	0.7	51200	red	blue	1	10	ml	2.7.3	bip	sub-14_ses-02_task-ml_proj-bip_2021-03-08-10-12-34.377911
216	14	2	5	217	volatile	2	40	17	sv	red	blue	blue	red	right	left	0.30000000000000004	0.7	2	6	0.6000000000000001	4.199999999999998	0	1	0.7	0.30000000000000004	6	2	4.199999999999998	0.6000000000000001	valid	0.4998807899992244	51200	0	0	2	51200	1	51200	1	51200	1	0.7	51200	red	blue	1	6	ml	2.7.3	bip	sub-14_ses-02_task-ml_proj-bip_2021-03-08-10-12-34.377911
217	14	2	5	218	volatile	2	40	18	sv	red	blue	blue	red	right	left	0.30000000000000004	0.7	6	2	1.8000000000000005	1.4	0	1	0.7	0.30000000000000004	2	6	1.4	1.8000000000000005	valid	0.6998449980001169	53248	0	1	1	53248	1	51200	0	53248	1	0.7	51200	red	blue	0	0	ml	2.7.3	bip	sub-14_ses-02_task-ml_proj-bip_2021-03-08-10-12-34.377911
218	14	2	5	219	volatile	2	40	19	sv	blue	red	blue	red	left	right	0.30000000000000004	0.7	2	2	0.6000000000000001	1.4	0	1	0.30000000000000004	0.7	2	2	0.6000000000000001	1.4	valid	1.166364603999682	53248	0	1	2	53248	1	53248	1	53248	1	0.7	53248	red	blue	0	2	ml	2.7.3	bip	sub-14_ses-02_task-ml_proj-bip_2021-03-08-10-12-34.377911
219	14	2	5	220	volatile	2	40	20	sv	blue	red	blue	red	left	right	0.30000000000000004	0.7	10	2	3.0000000000000004	1.4	0	1	0.30000000000000004	0.7	10	2	3.0000000000000004	1.4	valid	1.149687115999768	51200	0	0	1	51200	1	53248	0	51200	1	0.7	53248	red	blue	0	0	ml	2.7.3	bip	sub-14_ses-02_task-ml_proj-bip_2021-03-08-10-12-34.377911
220	14	2	5	221	volatile	2	40	21	sv	red	blue	blue	red	right	left	0.30000000000000004	0.7	4	6	1.2000000000000002	4.199999999999998	1	0	0.7	0.30000000000000004	6	4	4.199999999999998	1.2000000000000002	invalid	1.3996219159998873	51200	0	0	2	51200	1	51200	1	51200	1	0.7	51200	red	blue	1	0	ml	2.7.3	bip	sub-14_ses-02_task-ml_proj-bip_2021-03-08-10-12-34.377911
221	14	2	5	222	volatile	2	40	22	sv	red	blue	blue	red	right	left	0.30000000000000004	0.7	6	6	1.8000000000000005	4.199999999999998	0	1	0.7	0.30000000000000004	6	6	4.199999999999998	1.8000000000000005	valid	0.9830754710001202	51200	0	0	2	51200	1	51200	1	53248	0	0.7	51200	red	blue	1	6	ml	2.7.3	bip	sub-14_ses-02_task-ml_proj-bip_2021-03-08-10-12-34.377911
222	14	2	5	223	volatile	2	40	23	sv	blue	red	blue	red	left	right	0.30000000000000004	0.7	10	2	3.0000000000000004	1.4	0	1	0.30000000000000004	0.7	10	2	3.0000000000000004	1.4	valid	0.6165144570004486	51200	0	0	1	51200	1	53248	0	51200	1	0.7	53248	red	blue	0	0	ml	2.7.3	bip	sub-14_ses-02_task-ml_proj-bip_2021-03-08-10-12-34.377911
223	14	2	5	224	volatile	2	40	24	sv	red	blue	blue	red	right	left	0.30000000000000004	0.7	6	2	1.8000000000000005	1.4	1	0	0.7	0.30000000000000004	2	6	1.4	1.8000000000000005	invalid	0.6165270560013596	53248	0	1	1	53248	1	51200	0	53248	1	0.7	51200	red	blue	0	6	ml	2.7.3	bip	sub-14_ses-02_task-ml_proj-bip_2021-03-08-10-12-34.377911
224	14	2	5	225	volatile	2	40	25	sv	blue	red	blue	red	left	right	0.30000000000000004	0.7	6	6	1.8000000000000005	4.199999999999998	1	0	0.30000000000000004	0.7	6	6	1.8000000000000005	4.199999999999998	invalid	0.7997949010004959	51200	0	0	1	53248	0	53248	0	53248	0	0.7	53248	red	blue	0	6	ml	2.7.3	bip	sub-14_ses-02_task-ml_proj-bip_2021-03-08-10-12-34.377911
225	14	2	5	226	volatile	2	40	26	sv	red	blue	blue	red	right	left	0.30000000000000004	0.7	6	4	1.8000000000000005	2.8	1	0	0.7	0.30000000000000004	4	6	2.8	1.8000000000000005	invalid	0.8164577679999638	51200	0	0	2	51200	1	51200	1	53248	0	0.7	51200	red	blue	0	0	ml	2.7.3	bip	sub-14_ses-02_task-ml_proj-bip_2021-03-08-10-12-34.377911
226	14	2	5	227	volatile	2	40	27	sv	blue	red	blue	red	left	right	0.30000000000000004	0.7	4	2	1.2000000000000002	1.4	1	0	0.30000000000000004	0.7	4	2	1.2000000000000002	1.4	invalid	0.7498097200004851	51200	0	0	1	53248	0	53248	0	51200	1	0.7	53248	red	blue	0	4	ml	2.7.3	bip	sub-14_ses-02_task-ml_proj-bip_2021-03-08-10-12-34.377911
227	14	2	5	228	volatile	2	40	28	sv	blue	red	blue	red	left	right	0.30000000000000004	0.7	10	2	3.0000000000000004	1.4	1	0	0.30000000000000004	0.7	10	2	3.0000000000000004	1.4	invalid	0.5998536550014251	51200	0	0	1	51200	1	53248	0	51200	1	0.7	53248	red	blue	0	10	ml	2.7.3	bip	sub-14_ses-02_task-ml_proj-bip_2021-03-08-10-12-34.377911
228	14	2	5	229	volatile	2	40	29	sv	red	blue	blue	red	right	left	0.30000000000000004	0.7	2	2	0.6000000000000001	1.4	1	0	0.7	0.30000000000000004	2	2	1.4	0.6000000000000001	invalid	0.8664448659983464	53248	0	1	1	51200	0	51200	0	53248	1	0.7	51200	red	blue	1	2	ml	2.7.3	bip	sub-14_ses-02_task-ml_proj-bip_2021-03-08-10-12-34.377911
229	14	2	5	230	volatile	2	40	30	sv	blue	red	blue	red	left	right	0.30000000000000004	0.7	4	2	1.2000000000000002	1.4	0	1	0.30000000000000004	0.7	4	2	1.2000000000000002	1.4	valid	0.5998597100006009	51200	0	0	1	53248	0	53248	0	51200	1	0.7	53248	red	blue	0	0	ml	2.7.3	bip	sub-14_ses-02_task-ml_proj-bip_2021-03-08-10-12-34.377911
230	14	2	5	231	volatile	2	40	31	sv	red	blue	blue	red	right	left	0.30000000000000004	0.7	6	4	1.8000000000000005	2.8	0	1	0.7	0.30000000000000004	4	6	2.8	1.8000000000000005	valid	0.6331926520015259	53248	0	1	1	51200	0	51200	0	53248	1	0.7	51200	red	blue	0	0	ml	2.7.3	bip	sub-14_ses-02_task-ml_proj-bip_2021-03-08-10-12-34.377911
231	14	2	5	232	volatile	2	40	32	sv	blue	red	blue	red	left	right	0.30000000000000004	0.7	2	4	0.6000000000000001	2.8	0	1	0.30000000000000004	0.7	2	4	0.6000000000000001	2.8	valid	1.0497208249998948	51200	0	0	1	53248	0	53248	0	53248	0	0.7	53248	red	blue	1	0	ml	2.7.3	bip	sub-14_ses-02_task-ml_proj-bip_2021-03-08-10-12-34.377911
232	14	2	5	233	volatile	2	40	33	sv	blue	red	blue	red	left	right	0.30000000000000004	0.7	6	4	1.8000000000000005	2.8	0	1	0.30000000000000004	0.7	6	4	1.8000000000000005	2.8	valid	0.5165377449993684	51200	0	0	1	53248	0	53248	0	51200	1	0.7	53248	red	blue	0	0	ml	2.7.3	bip	sub-14_ses-02_task-ml_proj-bip_2021-03-08-10-12-34.377911
233	14	2	5	234	volatile	2	40	34	sv	blue	red	blue	red	left	right	0.30000000000000004	0.7	2	6	0.6000000000000001	4.199999999999998	0	1	0.30000000000000004	0.7	2	6	0.6000000000000001	4.199999999999998	valid	0.7664821300004405	53248	0	1	2	53248	1	53248	1	53248	1	0.7	53248	red	blue	1	6	ml	2.7.3	bip	sub-14_ses-02_task-ml_proj-bip_2021-03-08-10-12-34.377911
234	14	2	5	235	volatile	2	40	35	sv	blue	red	blue	red	left	right	0.30000000000000004	0.7	6	4	1.8000000000000005	2.8	0	1	0.30000000000000004	0.7	6	4	1.8000000000000005	2.8	valid	1.2829950909999752	51200	0	0	1	53248	0	53248	0	51200	1	0.7	53248	red	blue	0	0	ml	2.7.3	bip	sub-14_ses-02_task-ml_proj-bip_2021-03-08-10-12-34.377911
235	14	2	5	236	volatile	2	40	36	sv	blue	red	blue	red	left	right	0.30000000000000004	0.7	2	10	0.6000000000000001	7.0	1	0	0.30000000000000004	0.7	2	10	0.6000000000000001	7.0	invalid	0.5998603620009817	53248	0	1	2	53248	1	53248	1	53248	1	0.7	53248	red	blue	1	0	ml	2.7.3	bip	sub-14_ses-02_task-ml_proj-bip_2021-03-08-10-12-34.377911
236	14	2	5	237	volatile	2	40	37	sv	blue	red	blue	red	left	right	0.30000000000000004	0.7	2	6	0.6000000000000001	4.199999999999998	0	1	0.30000000000000004	0.7	2	6	0.6000000000000001	4.199999999999998	valid	0.4832308400000329	53248	0	1	2	53248	1	53248	1	53248	1	0.7	53248	red	blue	1	6	ml	2.7.3	bip	sub-14_ses-02_task-ml_proj-bip_2021-03-08-10-12-34.377911
237	14	2	5	238	volatile	2	40	38	sv	red	blue	blue	red	right	left	0.30000000000000004	0.7	10	2	3.0000000000000004	1.4	0	1	0.7	0.30000000000000004	2	10	1.4	3.0000000000000004	valid	0.5832014700008585	53248	0	1	1	53248	1	51200	0	53248	1	0.7	51200	red	blue	0	0	ml	2.7.3	bip	sub-14_ses-02_task-ml_proj-bip_2021-03-08-10-12-34.377911
238	14	2	5	239	volatile	2	40	39	sv	blue	red	blue	red	left	right	0.30000000000000004	0.7	2	4	0.6000000000000001	2.8	0	1	0.30000000000000004	0.7	2	4	0.6000000000000001	2.8	valid	0.7831425799995486	53248	0	1	2	53248	1	53248	1	53248	1	0.7	53248	red	blue	1	4	ml	2.7.3	bip	sub-14_ses-02_task-ml_proj-bip_2021-03-08-10-12-34.377911
239	14	2	5	240	volatile	2	40	40	sv	red	blue	blue	red	right	left	0.30000000000000004	0.7	6	4	1.8000000000000005	2.8	0	1	0.7	0.30000000000000004	4	6	2.8	1.8000000000000005	valid	0.6998352390000946	53248	0	1	1	51200	0	51200	0	53248	1	0.7	51200	red	blue	0	0	ml	2.7.3	bip	sub-14_ses-02_task-ml_proj-bip_2021-03-08-10-12-34.377911
240	14	2	5	241	volatile	3	40	1	sv	blue	red	blue	red	left	right	0.7	0.30000000000000004	6	4	4.199999999999998	1.2000000000000002	1	0	0.7	0.30000000000000004	6	4	4.199999999999998	1.2000000000000002	valid	0.5831845350003277	51200	0	0	1	51200	1	51200	1	51200	1	0.7	51200	blue	red	1	6	ml	2.7.3	bip	sub-14_ses-02_task-ml_proj-bip_2021-03-08-10-12-34.377911
241	14	2	5	242	volatile	3	40	2	sv	red	blue	blue	red	right	left	0.7	0.30000000000000004	2	2	1.4	0.6000000000000001	1	0	0.30000000000000004	0.7	2	2	0.6000000000000001	1.4	valid	0.3999291680011083	53248	0	1	1	53248	1	53248	1	53248	1	0.7	53248	blue	red	0	2	ml	2.7.3	bip	sub-14_ses-02_task-ml_proj-bip_2021-03-08-10-12-34.377911
242	14	2	5	243	volatile	3	40	3	sv	red	blue	blue	red	right	left	0.7	0.30000000000000004	6	4	4.199999999999998	1.2000000000000002	0	1	0.30000000000000004	0.7	4	6	1.2000000000000002	4.199999999999998	invalid	0.4832389870007319	53248	0	1	1	53248	1	53248	1	53248	1	0.7	53248	blue	red	1	0	ml	2.7.3	bip	sub-14_ses-02_task-ml_proj-bip_2021-03-08-10-12-34.377911
243	14	2	5	244	volatile	3	40	4	sv	red	blue	blue	red	right	left	0.7	0.30000000000000004	2	6	1.4	1.8000000000000005	1	0	0.30000000000000004	0.7	6	2	1.8000000000000005	1.4	valid	0.5832033620008588	53248	0	1	1	51200	0	53248	1	51200	0	0.7	53248	blue	red	0	2	ml	2.7.3	bip	sub-14_ses-02_task-ml_proj-bip_2021-03-08-10-12-34.377911
244	14	2	5	245	volatile	3	40	5	sv	blue	red	blue	red	left	right	0.7	0.30000000000000004	4	2	2.8	0.6000000000000001	0	1	0.7	0.30000000000000004	4	2	2.8	0.6000000000000001	invalid	0.5998521900000924	51200	0	0	1	51200	1	51200	1	51200	1	0.7	51200	blue	red	1	0	ml	2.7.3	bip	sub-14_ses-02_task-ml_proj-bip_2021-03-08-10-12-34.377911
245	14	2	5	246	volatile	3	40	6	sv	red	blue	blue	red	right	left	0.7	0.30000000000000004	4	2	2.8	0.6000000000000001	0	1	0.30000000000000004	0.7	2	4	0.6000000000000001	2.8	invalid	1.0164143259989942	53248	0	1	1	53248	1	53248	1	53248	1	0.7	53248	blue	red	1	0	ml	2.7.3	bip	sub-14_ses-02_task-ml_proj-bip_2021-03-08-10-12-34.377911
246	14	2	5	247	volatile	3	40	7	sv	red	blue	blue	red	right	left	0.7	0.30000000000000004	6	2	4.199999999999998	0.6000000000000001	0	1	0.30000000000000004	0.7	2	6	0.6000000000000001	4.199999999999998	invalid	0.3499236980005662	51200	0	0	2	53248	0	53248	0	53248	0	0.7	53248	blue	red	1	2	ml	2.7.3	bip	sub-14_ses-02_task-ml_proj-bip_2021-03-08-10-12-34.377911
247	14	2	5	248	volatile	3	40	8	sv	blue	red	blue	red	left	right	0.7	0.30000000000000004	2	6	1.4	1.8000000000000005	1	0	0.7	0.30000000000000004	2	6	1.4	1.8000000000000005	valid	0.749820119001015	53248	0	1	2	53248	1	51200	0	53248	1	0.7	51200	blue	red	0	0	ml	2.7.3	bip	sub-14_ses-02_task-ml_proj-bip_2021-03-08-10-12-34.377911
248	14	2	5	249	volatile	3	40	9	sv	blue	red	blue	red	left	right	0.7	0.30000000000000004	2	4	1.4	1.2000000000000002	1	0	0.7	0.30000000000000004	2	4	1.4	1.2000000000000002	valid	0.4832502179997391	53248	0	1	2	51200	0	51200	0	53248	1	0.7	51200	blue	red	0	0	ml	2.7.3	bip	sub-14_ses-02_task-ml_proj-bip_2021-03-08-10-12-34.377911
249	14	2	5	250	volatile	3	40	10	sv	red	blue	blue	red	right	left	0.7	0.30000000000000004	2	2	1.4	0.6000000000000001	1	0	0.30000000000000004	0.7	2	2	0.6000000000000001	1.4	valid	0.9164384409996272	53248	0	1	1	53248	1	53248	1	53248	1	0.7	53248	blue	red	0	2	ml	2.7.3	bip	sub-14_ses-02_task-ml_proj-bip_2021-03-08-10-12-34.377911
250	14	2	6	251	volatile	3	40	11	sv	red	blue	blue	red	right	left	0.7	0.30000000000000004	2	10	1.4	3.0000000000000004	1	0	0.30000000000000004	0.7	10	2	3.0000000000000004	1.4	valid	0.5831908769996517	51200	0	0	2	51200	1	53248	0	51200	1	0.7	53248	blue	red	0	0	ml	2.7.3	bip	sub-14_ses-02_task-ml_proj-bip_2021-03-08-10-12-34.377911
251	14	2	6	252	volatile	3	40	12	sv	blue	red	blue	red	left	right	0.7	0.30000000000000004	2	4	1.4	1.2000000000000002	0	1	0.7	0.30000000000000004	2	4	1.4	1.2000000000000002	invalid	0.7664883199995529	53248	0	1	2	51200	0	51200	0	53248	1	0.7	51200	blue	red	0	4	ml	2.7.3	bip	sub-14_ses-02_task-ml_proj-bip_2021-03-08-10-12-34.377911
252	14	2	6	253	volatile	3	40	13	sv	red	blue	blue	red	right	left	0.7	0.30000000000000004	6	6	4.199999999999998	1.8000000000000005	1	0	0.30000000000000004	0.7	6	6	1.8000000000000005	4.199999999999998	valid	0.7331457929994941	51200	0	0	2	53248	0	53248	0	53248	0	0.7	53248	blue	red	0	0	ml	2.7.3	bip	sub-14_ses-02_task-ml_proj-bip_2021-03-08-10-12-34.377911
253	14	2	6	254	volatile	3	40	14	sv	blue	red	blue	red	left	right	0.7	0.30000000000000004	4	6	2.8	1.8000000000000005	1	0	0.7	0.30000000000000004	4	6	2.8	1.8000000000000005	valid	0.6165135249993909	51200	0	0	1	51200	1	51200	1	53248	0	0.7	51200	blue	red	0	4	ml	2.7.3	bip	sub-14_ses-02_task-ml_proj-bip_2021-03-08-10-12-34.377911
254	14	2	6	255	volatile	3	40	15	sv	blue	red	blue	red	left	right	0.7	0.30000000000000004	4	2	2.8	0.6000000000000001	0	1	0.7	0.30000000000000004	4	2	2.8	0.6000000000000001	invalid	0.44988450900018506	51200	0	0	1	51200	1	51200	1	51200	1	0.7	51200	blue	red	1	0	ml	2.7.3	bip	sub-14_ses-02_task-ml_proj-bip_2021-03-08-10-12-34.377911
255	14	2	6	256	volatile	3	40	16	sv	blue	red	blue	red	left	right	0.7	0.30000000000000004	4	6	2.8	1.8000000000000005	1	0	0.7	0.30000000000000004	4	6	2.8	1.8000000000000005	valid	0.4998905770007696	53248	0	1	2	51200	0	51200	0	53248	1	0.7	51200	blue	red	0	0	ml	2.7.3	bip	sub-14_ses-02_task-ml_proj-bip_2021-03-08-10-12-34.377911
256	14	2	6	257	volatile	3	40	17	sv	blue	red	blue	red	left	right	0.7	0.30000000000000004	2	10	1.4	3.0000000000000004	1	0	0.7	0.30000000000000004	2	10	1.4	3.0000000000000004	valid	0.3665977560012834	53248	0	1	2	53248	1	51200	0	53248	1	0.7	51200	blue	red	0	0	ml	2.7.3	bip	sub-14_ses-02_task-ml_proj-bip_2021-03-08-10-12-34.377911
257	14	2	6	258	volatile	3	40	18	sv	blue	red	blue	red	left	right	0.7	0.30000000000000004	6	6	4.199999999999998	1.8000000000000005	1	0	0.7	0.30000000000000004	6	6	4.199999999999998	1.8000000000000005	valid	0.6165138140004274	51200	0	0	1	51200	1	51200	1	53248	0	0.7	51200	blue	red	1	6	ml	2.7.3	bip	sub-14_ses-02_task-ml_proj-bip_2021-03-08-10-12-34.377911
258	14	2	6	259	volatile	3	40	19	sv	blue	red	blue	red	left	right	0.7	0.30000000000000004	4	6	2.8	1.8000000000000005	1	0	0.7	0.30000000000000004	4	6	2.8	1.8000000000000005	valid	0.6498369630007801	51200	0	0	1	51200	1	51200	1	53248	0	0.7	51200	blue	red	0	4	ml	2.7.3	bip	sub-14_ses-02_task-ml_proj-bip_2021-03-08-10-12-34.377911
259	14	2	6	260	volatile	3	40	20	sv	red	blue	blue	red	right	left	0.7	0.30000000000000004	2	10	1.4	3.0000000000000004	1	0	0.30000000000000004	0.7	10	2	3.0000000000000004	1.4	valid	0.5332141530016088	53248	0	1	1	51200	0	53248	1	51200	0	0.7	53248	blue	red	0	2	ml	2.7.3	bip	sub-14_ses-02_task-ml_proj-bip_2021-03-08-10-12-34.377911
260	14	2	6	261	volatile	3	40	21	sv	red	blue	blue	red	right	left	0.7	0.30000000000000004	2	10	1.4	3.0000000000000004	1	0	0.30000000000000004	0.7	10	2	3.0000000000000004	1.4	valid	0.5998543050009175	51200	0	0	2	51200	1	53248	0	51200	1	0.7	53248	blue	red	0	0	ml	2.7.3	bip	sub-14_ses-02_task-ml_proj-bip_2021-03-08-10-12-34.377911
261	14	2	6	262	volatile	3	40	22	sv	blue	red	blue	red	left	right	0.7	0.30000000000000004	6	2	4.199999999999998	0.6000000000000001	1	0	0.7	0.30000000000000004	6	2	4.199999999999998	0.6000000000000001	valid	0.8497796430001472	51200	0	0	1	51200	1	51200	1	51200	1	0.7	51200	blue	red	1	6	ml	2.7.3	bip	sub-14_ses-02_task-ml_proj-bip_2021-03-08-10-12-34.377911
262	14	2	6	263	volatile	3	40	23	sv	red	blue	blue	red	right	left	0.7	0.30000000000000004	2	2	1.4	0.6000000000000001	1	0	0.30000000000000004	0.7	2	2	0.6000000000000001	1.4	valid	0.6165242319984827	53248	0	1	1	53248	1	53248	1	53248	1	0.7	53248	blue	red	0	2	ml	2.7.3	bip	sub-14_ses-02_task-ml_proj-bip_2021-03-08-10-12-34.377911
263	14	2	6	264	volatile	3	40	24	sv	red	blue	blue	red	right	left	0.7	0.30000000000000004	10	2	7.0	0.6000000000000001	1	0	0.30000000000000004	0.7	2	10	0.6000000000000001	7.0	valid	0.4998900319988024	53248	0	1	1	53248	1	53248	1	53248	1	0.7	53248	blue	red	1	10	ml	2.7.3	bip	sub-14_ses-02_task-ml_proj-bip_2021-03-08-10-12-34.377911
264	14	2	6	265	volatile	3	40	25	sv	red	blue	blue	red	right	left	0.7	0.30000000000000004	4	2	2.8	0.6000000000000001	1	0	0.30000000000000004	0.7	2	4	0.6000000000000001	2.8	valid	0.4665747960007138	53248	0	1	1	53248	1	53248	1	53248	1	0.7	53248	blue	red	1	4	ml	2.7.3	bip	sub-14_ses-02_task-ml_proj-bip_2021-03-08-10-12-34.377911
265	14	2	6	266	volatile	3	40	26	sv	red	blue	blue	red	right	left	0.7	0.30000000000000004	6	2	4.199999999999998	0.6000000000000001	0	1	0.30000000000000004	0.7	2	6	0.6000000000000001	4.199999999999998	invalid	0.6165228879999631	53248	0	1	1	53248	1	53248	1	53248	1	0.7	53248	blue	red	1	0	ml	2.7.3	bip	sub-14_ses-02_task-ml_proj-bip_2021-03-08-10-12-34.377911
266	14	2	6	267	volatile	3	40	27	sv	blue	red	blue	red	left	right	0.7	0.30000000000000004	6	4	4.199999999999998	1.2000000000000002	0	1	0.7	0.30000000000000004	6	4	4.199999999999998	1.2000000000000002	invalid	0.6331728500008467	51200	0	0	1	51200	1	51200	1	51200	1	0.7	51200	blue	red	1	0	ml	2.7.3	bip	sub-14_ses-02_task-ml_proj-bip_2021-03-08-10-12-34.377911
267	14	2	6	268	volatile	3	40	28	sv	blue	red	blue	red	left	right	0.7	0.30000000000000004	6	6	4.199999999999998	1.8000000000000005	1	0	0.7	0.30000000000000004	6	6	4.199999999999998	1.8000000000000005	valid	0.39991987999928813	53248	0	1	2	51200	0	51200	0	53248	1	0.7	51200	blue	red	1	0	ml	2.7.3	bip	sub-14_ses-02_task-ml_proj-bip_2021-03-08-10-12-34.377911
268	14	2	6	269	volatile	3	40	29	sv	blue	red	blue	red	left	right	0.7	0.30000000000000004	4	2	2.8	0.6000000000000001	1	0	0.7	0.30000000000000004	4	2	2.8	0.6000000000000001	valid	0.3332740589994501	53248	0	1	2	51200	0	51200	0	51200	0	0.7	51200	blue	red	1	0	ml	2.7.3	bip	sub-14_ses-02_task-ml_proj-bip_2021-03-08-10-12-34.377911
269	14	2	6	270	volatile	3	40	30	sv	red	blue	blue	red	right	left	0.7	0.30000000000000004	2	6	1.4	1.8000000000000005	1	0	0.30000000000000004	0.7	6	2	1.8000000000000005	1.4	valid	0.6165130459994543	51200	0	0	2	51200	1	53248	0	51200	1	0.7	53248	blue	red	0	0	ml	2.7.3	bip	sub-14_ses-02_task-ml_proj-bip_2021-03-08-10-12-34.377911
270	14	2	6	271	volatile	3	40	31	sv	blue	red	blue	red	left	right	0.7	0.30000000000000004	4	2	2.8	0.6000000000000001	1	0	0.7	0.30000000000000004	4	2	2.8	0.6000000000000001	valid	0.5165475289995811	51200	0	0	1	51200	1	51200	1	51200	1	0.7	51200	blue	red	1	4	ml	2.7.3	bip	sub-14_ses-02_task-ml_proj-bip_2021-03-08-10-12-34.377911
271	14	2	6	272	volatile	3	40	32	sv	red	blue	blue	red	right	left	0.7	0.30000000000000004	4	6	2.8	1.8000000000000005	1	0	0.30000000000000004	0.7	6	4	1.8000000000000005	2.8	valid	0.4832277570003498	53248	0	1	1	53248	1	53248	1	51200	0	0.7	53248	blue	red	0	4	ml	2.7.3	bip	sub-14_ses-02_task-ml_proj-bip_2021-03-08-10-12-34.377911
272	14	2	6	273	volatile	3	40	33	sv	red	blue	blue	red	right	left	0.7	0.30000000000000004	10	2	7.0	0.6000000000000001	1	0	0.30000000000000004	0.7	2	10	0.6000000000000001	7.0	valid	0.4665703360005864	53248	0	1	1	53248	1	53248	1	53248	1	0.7	53248	blue	red	1	10	ml	2.7.3	bip	sub-14_ses-02_task-ml_proj-bip_2021-03-08-10-12-34.377911
273	14	2	6	274	volatile	3	40	34	sv	blue	red	blue	red	left	right	0.7	0.30000000000000004	10	2	7.0	0.6000000000000001	0	1	0.7	0.30000000000000004	10	2	7.0	0.6000000000000001	invalid	0.533205175999683	51200	0	0	1	51200	1	51200	1	51200	1	0.7	51200	blue	red	1	0	ml	2.7.3	bip	sub-14_ses-02_task-ml_proj-bip_2021-03-08-10-12-34.377911
274	14	2	6	275	volatile	3	40	35	sv	red	blue	blue	red	right	left	0.7	0.30000000000000004	6	2	4.199999999999998	0.6000000000000001	1	0	0.30000000000000004	0.7	2	6	0.6000000000000001	4.199999999999998	valid	0.6498488179986452	53248	0	1	1	53248	1	53248	1	53248	1	0.7	53248	blue	red	1	6	ml	2.7.3	bip	sub-14_ses-02_task-ml_proj-bip_2021-03-08-10-12-34.377911
275	14	2	6	276	volatile	3	40	36	sv	blue	red	blue	red	left	right	0.7	0.30000000000000004	6	2	4.199999999999998	0.6000000000000001	0	1	0.7	0.30000000000000004	6	2	4.199999999999998	0.6000000000000001	invalid	0.5665283639991685	51200	0	0	1	51200	1	51200	1	51200	1	0.7	51200	blue	red	1	0	ml	2.7.3	bip	sub-14_ses-02_task-ml_proj-bip_2021-03-08-10-12-34.377911
276	14	2	6	277	volatile	3	40	37	sv	blue	red	blue	red	left	right	0.7	0.30000000000000004	6	4	4.199999999999998	1.2000000000000002	1	0	0.7	0.30000000000000004	6	4	4.199999999999998	1.2000000000000002	valid	0.5332152150003822	53248	0	1	2	51200	0	51200	0	51200	0	0.7	51200	blue	red	1	0	ml	2.7.3	bip	sub-14_ses-02_task-ml_proj-bip_2021-03-08-10-12-34.377911
277	14	2	6	278	volatile	3	40	38	sv	red	blue	blue	red	right	left	0.7	0.30000000000000004	2	2	1.4	0.6000000000000001	0	1	0.30000000000000004	0.7	2	2	0.6000000000000001	1.4	invalid	0.4665543810006056	51200	0	0	2	53248	0	53248	0	53248	0	0.7	53248	blue	red	0	2	ml	2.7.3	bip	sub-14_ses-02_task-ml_proj-bip_2021-03-08-10-12-34.377911
278	14	2	6	279	volatile	3	40	39	sv	blue	red	blue	red	left	right	0.7	0.30000000000000004	2	10	1.4	3.0000000000000004	1	0	0.7	0.30000000000000004	2	10	1.4	3.0000000000000004	valid	0.4665678250003111	53248	0	1	2	53248	1	51200	0	53248	1	0.7	51200	blue	red	0	0	ml	2.7.3	bip	sub-14_ses-02_task-ml_proj-bip_2021-03-08-10-12-34.377911
279	14	2	6	280	volatile	3	40	40	sv	red	blue	blue	red	right	left	0.7	0.30000000000000004	6	6	4.199999999999998	1.8000000000000005	0	1	0.30000000000000004	0.7	6	6	1.8000000000000005	4.199999999999998	invalid	0.7331494589998329	53248	0	1	1	53248	1	53248	1	53248	1	0.7	53248	blue	red	0	0	ml	2.7.3	bip	sub-14_ses-02_task-ml_proj-bip_2021-03-08-10-12-34.377911
280	14	2	6	281	volatile	4	20	1	sv	red	blue	blue	red	right	left	0.30000000000000004	0.7	10	2	3.0000000000000004	1.4	0	1	0.7	0.30000000000000004	2	10	1.4	3.0000000000000004	valid	0.36660318499889394	53248	0	1	1	53248	1	51200	0	53248	1	0.7	51200	red	blue	0	0	ml	2.7.3	bip	sub-14_ses-02_task-ml_proj-bip_2021-03-08-10-12-34.377911
281	14	2	6	282	volatile	4	20	2	sv	blue	red	blue	red	left	right	0.30000000000000004	0.7	4	6	1.2000000000000002	4.199999999999998	0	1	0.30000000000000004	0.7	4	6	1.2000000000000002	4.199999999999998	valid	0.9997507030002452	53248	0	1	2	53248	1	53248	1	53248	1	0.7	53248	red	blue	1	6	ml	2.7.3	bip	sub-14_ses-02_task-ml_proj-bip_2021-03-08-10-12-34.377911
282	14	2	6	283	volatile	4	20	3	sv	red	blue	blue	red	right	left	0.30000000000000004	0.7	4	6	1.2000000000000002	4.199999999999998	0	1	0.7	0.30000000000000004	6	4	4.199999999999998	1.2000000000000002	valid	0.3832519690004119	51200	0	0	2	51200	1	51200	1	51200	1	0.7	51200	red	blue	1	6	ml	2.7.3	bip	sub-14_ses-02_task-ml_proj-bip_2021-03-08-10-12-34.377911
283	14	2	6	284	volatile	4	20	4	sv	blue	red	blue	red	left	right	0.30000000000000004	0.7	10	2	3.0000000000000004	1.4	0	1	0.30000000000000004	0.7	10	2	3.0000000000000004	1.4	valid	0.7664717370007565	51200	0	0	1	51200	1	53248	0	51200	1	0.7	53248	red	blue	0	0	ml	2.7.3	bip	sub-14_ses-02_task-ml_proj-bip_2021-03-08-10-12-34.377911
284	14	2	6	285	volatile	4	20	5	sv	blue	red	blue	red	left	right	0.30000000000000004	0.7	6	2	1.8000000000000005	1.4	1	0	0.30000000000000004	0.7	6	2	1.8000000000000005	1.4	invalid	0.41658398099934857	53248	0	1	2	51200	0	53248	1	51200	0	0.7	53248	red	blue	0	0	ml	2.7.3	bip	sub-14_ses-02_task-ml_proj-bip_2021-03-08-10-12-34.377911
285	14	2	6	286	volatile	4	20	6	sv	red	blue	blue	red	right	left	0.30000000000000004	0.7	2	4	0.6000000000000001	2.8	1	0	0.7	0.30000000000000004	4	2	2.8	0.6000000000000001	invalid	0.5665317380007764	53248	0	1	1	51200	0	51200	0	51200	0	0.7	51200	red	blue	1	2	ml	2.7.3	bip	sub-14_ses-02_task-ml_proj-bip_2021-03-08-10-12-34.377911
286	14	2	6	287	volatile	4	20	7	sv	blue	red	blue	red	left	right	0.30000000000000004	0.7	2	6	0.6000000000000001	4.199999999999998	0	1	0.30000000000000004	0.7	2	6	0.6000000000000001	4.199999999999998	valid	0.5665279580007336	51200	0	0	1	53248	0	53248	0	53248	0	0.7	53248	red	blue	1	0	ml	2.7.3	bip	sub-14_ses-02_task-ml_proj-bip_2021-03-08-10-12-34.377911
287	14	2	6	288	volatile	4	20	8	sv	red	blue	blue	red	right	left	0.30000000000000004	0.7	6	2	1.8000000000000005	1.4	1	0	0.7	0.30000000000000004	2	6	1.4	1.8000000000000005	invalid	0.8997759430003498	53248	0	1	1	53248	1	51200	0	53248	1	0.7	51200	red	blue	0	6	ml	2.7.3	bip	sub-14_ses-02_task-ml_proj-bip_2021-03-08-10-12-34.377911
288	14	2	6	289	volatile	4	20	9	sv	blue	red	blue	red	left	right	0.30000000000000004	0.7	4	2	1.2000000000000002	1.4	1	0	0.30000000000000004	0.7	4	2	1.2000000000000002	1.4	invalid	0.6998197019984218	51200	0	0	1	53248	0	53248	0	51200	1	0.7	53248	red	blue	0	4	ml	2.7.3	bip	sub-14_ses-02_task-ml_proj-bip_2021-03-08-10-12-34.377911
289	14	2	6	290	volatile	4	20	10	sv	red	blue	blue	red	right	left	0.30000000000000004	0.7	2	10	0.6000000000000001	7.0	0	1	0.7	0.30000000000000004	10	2	7.0	0.6000000000000001	valid	0.5665314409998246	51200	0	0	2	51200	1	51200	1	51200	1	0.7	51200	red	blue	1	10	ml	2.7.3	bip	sub-14_ses-02_task-ml_proj-bip_2021-03-08-10-12-34.377911
290	14	2	6	291	volatile	4	20	11	sv	blue	red	blue	red	left	right	0.30000000000000004	0.7	2	2	0.6000000000000001	1.4	0	1	0.30000000000000004	0.7	2	2	0.6000000000000001	1.4	valid	0.6998329620000732	53248	0	1	2	53248	1	53248	1	53248	1	0.7	53248	red	blue	0	2	ml	2.7.3	bip	sub-14_ses-02_task-ml_proj-bip_2021-03-08-10-12-34.377911
291	14	2	6	292	volatile	4	20	12	sv	blue	red	blue	red	left	right	0.30000000000000004	0.7	2	4	0.6000000000000001	2.8	0	1	0.30000000000000004	0.7	2	4	0.6000000000000001	2.8	valid	1.2663319940002111	53248	0	1	2	53248	1	53248	1	53248	1	0.7	53248	red	blue	1	4	ml	2.7.3	bip	sub-14_ses-02_task-ml_proj-bip_2021-03-08-10-12-34.377911
292	14	2	6	293	volatile	4	20	13	sv	red	blue	blue	red	right	left	0.30000000000000004	0.7	6	6	1.8000000000000005	4.199999999999998	0	1	0.7	0.30000000000000004	6	6	4.199999999999998	1.8000000000000005	valid	1.083051171000989	53248	0	1	1	51200	0	51200	0	53248	1	0.7	51200	red	blue	1	0	ml	2.7.3	bip	sub-14_ses-02_task-ml_proj-bip_2021-03-08-10-12-34.377911
293	14	2	6	294	volatile	4	20	14	sv	blue	red	blue	red	left	right	0.30000000000000004	0.7	6	6	1.8000000000000005	4.199999999999998	0	1	0.30000000000000004	0.7	6	6	1.8000000000000005	4.199999999999998	valid	0.6665051639993179	51200	0	0	1	53248	0	53248	0	53248	0	0.7	53248	red	blue	0	0	ml	2.7.3	bip	sub-14_ses-02_task-ml_proj-bip_2021-03-08-10-12-34.377911
294	14	2	6	295	volatile	4	20	15	sv	red	blue	blue	red	right	left	0.30000000000000004	0.7	4	6	1.2000000000000002	4.199999999999998	0	1	0.7	0.30000000000000004	6	4	4.199999999999998	1.2000000000000002	valid	0.6331697370005713	51200	0	0	2	51200	1	51200	1	51200	1	0.7	51200	red	blue	1	6	ml	2.7.3	bip	sub-14_ses-02_task-ml_proj-bip_2021-03-08-10-12-34.377911
295	14	2	6	296	volatile	4	20	16	sv	red	blue	blue	red	right	left	0.30000000000000004	0.7	6	4	1.8000000000000005	2.8	0	1	0.7	0.30000000000000004	4	6	2.8	1.8000000000000005	valid	0.7331576729993685	53248	0	1	1	51200	0	51200	0	53248	1	0.7	51200	red	blue	0	0	ml	2.7.3	bip	sub-14_ses-02_task-ml_proj-bip_2021-03-08-10-12-34.377911
296	14	2	6	297	volatile	4	20	17	sv	blue	red	blue	red	left	right	0.30000000000000004	0.7	2	2	0.6000000000000001	1.4	1	0	0.30000000000000004	0.7	2	2	0.6000000000000001	1.4	invalid	1.183010524000565	51200	0	0	1	53248	0	53248	0	53248	0	0.7	53248	red	blue	0	2	ml	2.7.3	bip	sub-14_ses-02_task-ml_proj-bip_2021-03-08-10-12-34.377911
297	14	2	6	298	volatile	4	20	18	sv	blue	red	blue	red	left	right	0.30000000000000004	0.7	6	2	1.8000000000000005	1.4	0	1	0.30000000000000004	0.7	6	2	1.8000000000000005	1.4	valid	0.7997939749984653	51200	0	0	1	51200	1	53248	0	51200	1	0.7	53248	red	blue	0	0	ml	2.7.3	bip	sub-14_ses-02_task-ml_proj-bip_2021-03-08-10-12-34.377911
