Unnamed: 0	sub_id	ses_id	block_no	trial_no	phase_type	phase_no	phase_length	trialInPhase_no	phase_type_order	color_left	color_right	color1	color2	position1	position2	prob1	prob2	mag1	mag2	ev1	ev2	outcome1	outcome2	prob_left	prob_right	mag_left	mag_right	ev_left	ev_right	reward_validity	resp_time	resp_key	timeout	choice_side	choice	ev_corr_resp	ev_correct	prob_corr_resp	prob_correct	mag_corr_resp	mag_correct	high_prob	high_prob_side	high_prob_color	low_prob_color	no_brain	reward	name	version	proj_id	logFileID
0	2	2	1	1	volatile	1	20	1	vs	turquoise	purple	turquoise	purple	left	right	0.7	0.30000000000000004	6	2	4.199999999999998	0.6000000000000001	0	1	0.7	0.30000000000000004	6	2	4.199999999999998	0.6000000000000001	invalid	1.2163449630024843	51200	0	0	1	51200	1	51200	1	51200	1	0.7	51200	turquoise	purple	1	0	ml	2.7.3	lorasick	sub-02_ses-02_task-ml_proj-lorasick_2020-11-20-13-57-41.381163
1	2	2	1	2	volatile	1	20	2	vs	turquoise	purple	turquoise	purple	left	right	0.7	0.30000000000000004	6	6	4.199999999999998	1.8000000000000005	1	0	0.7	0.30000000000000004	6	6	4.199999999999998	1.8000000000000005	valid	0.5498765279990039	53248	0	1	2	51200	0	51200	0	53248	1	0.7	51200	turquoise	purple	1	0	ml	2.7.3	lorasick	sub-02_ses-02_task-ml_proj-lorasick_2020-11-20-13-57-41.381163
2	2	2	1	3	volatile	1	20	3	vs	turquoise	purple	turquoise	purple	left	right	0.7	0.30000000000000004	4	6	2.8	1.8000000000000005	1	0	0.7	0.30000000000000004	4	6	2.8	1.8000000000000005	valid	0.7331587490007223	53248	0	1	2	51200	0	51200	0	53248	1	0.7	51200	turquoise	purple	0	0	ml	2.7.3	lorasick	sub-02_ses-02_task-ml_proj-lorasick_2020-11-20-13-57-41.381163
3	2	2	1	4	volatile	1	20	4	vs	purple	turquoise	turquoise	purple	right	left	0.7	0.30000000000000004	6	4	4.199999999999998	1.2000000000000002	0	1	0.30000000000000004	0.7	4	6	1.2000000000000002	4.199999999999998	invalid	0.4165843880000466	53248	0	1	1	53248	1	53248	1	53248	1	0.7	53248	turquoise	purple	1	0	ml	2.7.3	lorasick	sub-02_ses-02_task-ml_proj-lorasick_2020-11-20-13-57-41.381163
4	2	2	1	5	volatile	1	20	5	vs	turquoise	purple	turquoise	purple	left	right	0.7	0.30000000000000004	2	6	1.4	1.8000000000000005	1	0	0.7	0.30000000000000004	2	6	1.4	1.8000000000000005	valid	0.6165156839997508	51200	0	0	1	53248	0	51200	1	53248	0	0.7	51200	turquoise	purple	0	2	ml	2.7.3	lorasick	sub-02_ses-02_task-ml_proj-lorasick_2020-11-20-13-57-41.381163
5	2	2	1	6	volatile	1	20	6	vs	turquoise	purple	turquoise	purple	left	right	0.7	0.30000000000000004	2	2	1.4	0.6000000000000001	1	0	0.7	0.30000000000000004	2	2	1.4	0.6000000000000001	valid	0.4498969919986848	51200	0	0	1	51200	1	51200	1	53248	0	0.7	51200	turquoise	purple	1	2	ml	2.7.3	lorasick	sub-02_ses-02_task-ml_proj-lorasick_2020-11-20-13-57-41.381163
6	2	2	1	7	volatile	1	20	7	vs	turquoise	purple	turquoise	purple	left	right	0.7	0.30000000000000004	10	2	7.0	0.6000000000000001	1	0	0.7	0.30000000000000004	10	2	7.0	0.6000000000000001	valid	1.116361708001932	51200	0	0	1	51200	1	51200	1	51200	1	0.7	51200	turquoise	purple	1	10	ml	2.7.3	lorasick	sub-02_ses-02_task-ml_proj-lorasick_2020-11-20-13-57-41.381163
7	2	2	1	8	volatile	1	20	8	vs	purple	turquoise	turquoise	purple	right	left	0.7	0.30000000000000004	10	2	7.0	0.6000000000000001	1	0	0.30000000000000004	0.7	2	10	0.6000000000000001	7.0	valid	0.4832310420024442	53248	0	1	1	53248	1	53248	1	53248	1	0.7	53248	turquoise	purple	1	10	ml	2.7.3	lorasick	sub-02_ses-02_task-ml_proj-lorasick_2020-11-20-13-57-41.381163
8	2	2	1	9	volatile	1	20	9	vs	purple	turquoise	turquoise	purple	right	left	0.7	0.30000000000000004	4	6	2.8	1.8000000000000005	1	0	0.30000000000000004	0.7	6	4	1.8000000000000005	2.8	valid	0.4332445159998315	53248	0	1	1	53248	1	53248	1	51200	0	0.7	53248	turquoise	purple	0	4	ml	2.7.3	lorasick	sub-02_ses-02_task-ml_proj-lorasick_2020-11-20-13-57-41.381163
9	2	2	1	10	volatile	1	20	10	vs	purple	turquoise	turquoise	purple	right	left	0.7	0.30000000000000004	2	4	1.4	1.2000000000000002	1	0	0.30000000000000004	0.7	4	2	1.2000000000000002	1.4	valid	0.4499067430006107	53248	0	1	1	53248	1	53248	1	51200	0	0.7	53248	turquoise	purple	0	2	ml	2.7.3	lorasick	sub-02_ses-02_task-ml_proj-lorasick_2020-11-20-13-57-41.381163
10	2	2	1	11	volatile	1	20	11	vs	turquoise	purple	turquoise	purple	left	right	0.7	0.30000000000000004	2	6	1.4	1.8000000000000005	0	1	0.7	0.30000000000000004	2	6	1.4	1.8000000000000005	invalid	0.5332060449982237	51200	0	0	1	53248	0	51200	1	53248	0	0.7	51200	turquoise	purple	0	0	ml	2.7.3	lorasick	sub-02_ses-02_task-ml_proj-lorasick_2020-11-20-13-57-41.381163
11	2	2	1	12	volatile	1	20	12	vs	turquoise	purple	turquoise	purple	left	right	0.7	0.30000000000000004	10	2	7.0	0.6000000000000001	1	0	0.7	0.30000000000000004	10	2	7.0	0.6000000000000001	valid	0.4998906790024194	53248	0	1	2	51200	0	51200	0	51200	0	0.7	51200	turquoise	purple	1	0	ml	2.7.3	lorasick	sub-02_ses-02_task-ml_proj-lorasick_2020-11-20-13-57-41.381163
12	2	2	1	13	volatile	1	20	13	vs	purple	turquoise	turquoise	purple	right	left	0.7	0.30000000000000004	4	6	2.8	1.8000000000000005	1	0	0.30000000000000004	0.7	6	4	1.8000000000000005	2.8	valid	0.3999141540007258	53248	0	1	1	53248	1	53248	1	51200	0	0.7	53248	turquoise	purple	0	4	ml	2.7.3	lorasick	sub-02_ses-02_task-ml_proj-lorasick_2020-11-20-13-57-41.381163
13	2	2	1	14	volatile	1	20	14	vs	purple	turquoise	turquoise	purple	right	left	0.7	0.30000000000000004	4	2	2.8	0.6000000000000001	0	1	0.30000000000000004	0.7	2	4	0.6000000000000001	2.8	invalid	0.4332414659984352	53248	0	1	1	53248	1	53248	1	53248	1	0.7	53248	turquoise	purple	1	0	ml	2.7.3	lorasick	sub-02_ses-02_task-ml_proj-lorasick_2020-11-20-13-57-41.381163
14	2	2	1	15	volatile	1	20	15	vs	purple	turquoise	turquoise	purple	right	left	0.7	0.30000000000000004	10	2	7.0	0.6000000000000001	1	0	0.30000000000000004	0.7	2	10	0.6000000000000001	7.0	valid	0.4665684289975616	53248	0	1	1	53248	1	53248	1	53248	1	0.7	53248	turquoise	purple	1	10	ml	2.7.3	lorasick	sub-02_ses-02_task-ml_proj-lorasick_2020-11-20-13-57-41.381163
15	2	2	1	16	volatile	1	20	16	vs	purple	turquoise	turquoise	purple	right	left	0.7	0.30000000000000004	4	2	2.8	0.6000000000000001	1	0	0.30000000000000004	0.7	2	4	0.6000000000000001	2.8	valid	0.4332472099995357	53248	0	1	1	53248	1	53248	1	53248	1	0.7	53248	turquoise	purple	1	4	ml	2.7.3	lorasick	sub-02_ses-02_task-ml_proj-lorasick_2020-11-20-13-57-41.381163
16	2	2	1	17	volatile	1	20	17	vs	purple	turquoise	turquoise	purple	right	left	0.7	0.30000000000000004	2	6	1.4	1.8000000000000005	1	0	0.30000000000000004	0.7	6	2	1.8000000000000005	1.4	valid	0.5332148060006148	53248	0	1	1	51200	0	53248	1	51200	0	0.7	53248	turquoise	purple	0	2	ml	2.7.3	lorasick	sub-02_ses-02_task-ml_proj-lorasick_2020-11-20-13-57-41.381163
17	2	2	1	18	volatile	1	20	18	vs	purple	turquoise	turquoise	purple	right	left	0.7	0.30000000000000004	2	4	1.4	1.2000000000000002	0	1	0.30000000000000004	0.7	4	2	1.2000000000000002	1.4	invalid	0.4332362720015226	53248	0	1	1	53248	1	53248	1	51200	0	0.7	53248	turquoise	purple	0	0	ml	2.7.3	lorasick	sub-02_ses-02_task-ml_proj-lorasick_2020-11-20-13-57-41.381163
18	2	2	1	19	volatile	1	20	19	vs	turquoise	purple	turquoise	purple	left	right	0.7	0.30000000000000004	2	2	1.4	0.6000000000000001	0	1	0.7	0.30000000000000004	2	2	1.4	0.6000000000000001	invalid	0.6664997469997616	51200	0	0	1	51200	1	51200	1	53248	0	0.7	51200	turquoise	purple	1	0	ml	2.7.3	lorasick	sub-02_ses-02_task-ml_proj-lorasick_2020-11-20-13-57-41.381163
19	2	2	1	20	volatile	1	20	20	vs	turquoise	purple	turquoise	purple	left	right	0.7	0.30000000000000004	6	6	4.199999999999998	1.8000000000000005	1	0	0.7	0.30000000000000004	6	6	4.199999999999998	1.8000000000000005	valid	0.4999030039980426	53248	0	1	2	51200	0	51200	0	53248	1	0.7	51200	turquoise	purple	1	0	ml	2.7.3	lorasick	sub-02_ses-02_task-ml_proj-lorasick_2020-11-20-13-57-41.381163
20	2	2	1	21	volatile	2	40	1	vs	purple	turquoise	turquoise	purple	right	left	0.30000000000000004	0.7	10	2	3.0000000000000004	1.4	1	0	0.7	0.30000000000000004	2	10	1.4	3.0000000000000004	invalid	0.7664794110023649	53248	0	1	1	53248	1	51200	0	53248	1	0.7	51200	purple	turquoise	0	10	ml	2.7.3	lorasick	sub-02_ses-02_task-ml_proj-lorasick_2020-11-20-13-57-41.381163
21	2	2	1	22	volatile	2	40	2	vs	turquoise	purple	turquoise	purple	left	right	0.30000000000000004	0.7	10	2	3.0000000000000004	1.4	0	1	0.30000000000000004	0.7	10	2	3.0000000000000004	1.4	valid	0.4165848150005331	51200	0	0	1	51200	1	53248	0	51200	1	0.7	53248	purple	turquoise	0	0	ml	2.7.3	lorasick	sub-02_ses-02_task-ml_proj-lorasick_2020-11-20-13-57-41.381163
22	2	2	1	23	volatile	2	40	3	vs	turquoise	purple	turquoise	purple	left	right	0.30000000000000004	0.7	10	2	3.0000000000000004	1.4	1	0	0.30000000000000004	0.7	10	2	3.0000000000000004	1.4	invalid	0.4499047310018796	51200	0	0	1	51200	1	53248	0	51200	1	0.7	53248	purple	turquoise	0	10	ml	2.7.3	lorasick	sub-02_ses-02_task-ml_proj-lorasick_2020-11-20-13-57-41.381163
23	2	2	1	24	volatile	2	40	4	vs	purple	turquoise	turquoise	purple	right	left	0.30000000000000004	0.7	6	2	1.8000000000000005	1.4	0	1	0.7	0.30000000000000004	2	6	1.4	1.8000000000000005	valid	0.6498477269997238	53248	0	1	1	53248	1	51200	0	53248	1	0.7	51200	purple	turquoise	0	0	ml	2.7.3	lorasick	sub-02_ses-02_task-ml_proj-lorasick_2020-11-20-13-57-41.381163
24	2	2	1	25	volatile	2	40	5	vs	turquoise	purple	turquoise	purple	left	right	0.30000000000000004	0.7	4	6	1.2000000000000002	4.199999999999998	0	1	0.30000000000000004	0.7	4	6	1.2000000000000002	4.199999999999998	valid	0.5332056509978429	51200	0	0	1	53248	0	53248	0	53248	0	0.7	53248	purple	turquoise	1	0	ml	2.7.3	lorasick	sub-02_ses-02_task-ml_proj-lorasick_2020-11-20-13-57-41.381163
25	2	2	1	26	volatile	2	40	6	vs	purple	turquoise	turquoise	purple	right	left	0.30000000000000004	0.7	6	2	1.8000000000000005	1.4	1	0	0.7	0.30000000000000004	2	6	1.4	1.8000000000000005	invalid	0.41657289499926253	51200	0	0	2	53248	0	51200	1	53248	0	0.7	51200	purple	turquoise	0	0	ml	2.7.3	lorasick	sub-02_ses-02_task-ml_proj-lorasick_2020-11-20-13-57-41.381163
26	2	2	1	27	volatile	2	40	7	vs	turquoise	purple	turquoise	purple	left	right	0.30000000000000004	0.7	2	2	0.6000000000000001	1.4	0	1	0.30000000000000004	0.7	2	2	0.6000000000000001	1.4	valid	0.3999200580001343	53248	0	1	2	53248	1	53248	1	53248	1	0.7	53248	purple	turquoise	0	2	ml	2.7.3	lorasick	sub-02_ses-02_task-ml_proj-lorasick_2020-11-20-13-57-41.381163
27	2	2	1	28	volatile	2	40	8	vs	turquoise	purple	turquoise	purple	left	right	0.30000000000000004	0.7	2	2	0.6000000000000001	1.4	0	1	0.30000000000000004	0.7	2	2	0.6000000000000001	1.4	valid	0.43324886100162985	53248	0	1	2	53248	1	53248	1	53248	1	0.7	53248	purple	turquoise	0	2	ml	2.7.3	lorasick	sub-02_ses-02_task-ml_proj-lorasick_2020-11-20-13-57-41.381163
28	2	2	1	29	volatile	2	40	9	vs	turquoise	purple	turquoise	purple	left	right	0.30000000000000004	0.7	6	6	1.8000000000000005	4.199999999999998	0	1	0.30000000000000004	0.7	6	6	1.8000000000000005	4.199999999999998	valid	0.4998909140012984	53248	0	1	2	53248	1	53248	1	53248	1	0.7	53248	purple	turquoise	0	6	ml	2.7.3	lorasick	sub-02_ses-02_task-ml_proj-lorasick_2020-11-20-13-57-41.381163
29	2	2	1	30	volatile	2	40	10	vs	purple	turquoise	turquoise	purple	right	left	0.30000000000000004	0.7	10	2	3.0000000000000004	1.4	0	1	0.7	0.30000000000000004	2	10	1.4	3.0000000000000004	valid	0.4665563090020442	51200	0	0	2	53248	0	51200	1	53248	0	0.7	51200	purple	turquoise	0	2	ml	2.7.3	lorasick	sub-02_ses-02_task-ml_proj-lorasick_2020-11-20-13-57-41.381163
30	2	2	1	31	volatile	2	40	11	vs	purple	turquoise	turquoise	purple	right	left	0.30000000000000004	0.7	10	2	3.0000000000000004	1.4	0	1	0.7	0.30000000000000004	2	10	1.4	3.0000000000000004	valid	0.416572191999876	51200	0	0	2	53248	0	51200	1	53248	0	0.7	51200	purple	turquoise	0	2	ml	2.7.3	lorasick	sub-02_ses-02_task-ml_proj-lorasick_2020-11-20-13-57-41.381163
31	2	2	1	32	volatile	2	40	12	vs	turquoise	purple	turquoise	purple	left	right	0.30000000000000004	0.7	6	4	1.8000000000000005	2.8	0	1	0.30000000000000004	0.7	6	4	1.8000000000000005	2.8	valid	0.5165546030002588	53248	0	1	2	53248	1	53248	1	51200	0	0.7	53248	purple	turquoise	0	4	ml	2.7.3	lorasick	sub-02_ses-02_task-ml_proj-lorasick_2020-11-20-13-57-41.381163
32	2	2	1	33	volatile	2	40	13	vs	turquoise	purple	turquoise	purple	left	right	0.30000000000000004	0.7	6	2	1.8000000000000005	1.4	0	1	0.30000000000000004	0.7	6	2	1.8000000000000005	1.4	valid	0.4499078920016473	53248	0	1	2	51200	0	53248	1	51200	0	0.7	53248	purple	turquoise	0	2	ml	2.7.3	lorasick	sub-02_ses-02_task-ml_proj-lorasick_2020-11-20-13-57-41.381163
33	2	2	1	34	volatile	2	40	14	vs	purple	turquoise	turquoise	purple	right	left	0.30000000000000004	0.7	2	6	0.6000000000000001	4.199999999999998	0	1	0.7	0.30000000000000004	6	2	4.199999999999998	0.6000000000000001	valid	0.43323805600084603	51200	0	0	2	51200	1	51200	1	51200	1	0.7	51200	purple	turquoise	1	6	ml	2.7.3	lorasick	sub-02_ses-02_task-ml_proj-lorasick_2020-11-20-13-57-41.381163
34	2	2	1	35	volatile	2	40	15	vs	turquoise	purple	turquoise	purple	left	right	0.30000000000000004	0.7	6	2	1.8000000000000005	1.4	1	0	0.30000000000000004	0.7	6	2	1.8000000000000005	1.4	invalid	0.4832301629976428	53248	0	1	2	51200	0	53248	1	51200	0	0.7	53248	purple	turquoise	0	0	ml	2.7.3	lorasick	sub-02_ses-02_task-ml_proj-lorasick_2020-11-20-13-57-41.381163
35	2	2	1	36	volatile	2	40	16	vs	turquoise	purple	turquoise	purple	left	right	0.30000000000000004	0.7	6	6	1.8000000000000005	4.199999999999998	0	1	0.30000000000000004	0.7	6	6	1.8000000000000005	4.199999999999998	valid	0.3499319350012229	51200	0	0	1	53248	0	53248	0	53248	0	0.7	53248	purple	turquoise	0	0	ml	2.7.3	lorasick	sub-02_ses-02_task-ml_proj-lorasick_2020-11-20-13-57-41.381163
36	2	2	1	37	volatile	2	40	17	vs	purple	turquoise	turquoise	purple	right	left	0.30000000000000004	0.7	2	10	0.6000000000000001	7.0	0	1	0.7	0.30000000000000004	10	2	7.0	0.6000000000000001	valid	0.8664419600027031	51200	0	0	2	51200	1	51200	1	51200	1	0.7	51200	purple	turquoise	1	10	ml	2.7.3	lorasick	sub-02_ses-02_task-ml_proj-lorasick_2020-11-20-13-57-41.381163
37	2	2	1	38	volatile	2	40	18	vs	purple	turquoise	turquoise	purple	right	left	0.30000000000000004	0.7	2	10	0.6000000000000001	7.0	0	1	0.7	0.30000000000000004	10	2	7.0	0.6000000000000001	valid	0.4498937149983249	51200	0	0	2	51200	1	51200	1	51200	1	0.7	51200	purple	turquoise	1	10	ml	2.7.3	lorasick	sub-02_ses-02_task-ml_proj-lorasick_2020-11-20-13-57-41.381163
38	2	2	1	39	volatile	2	40	19	vs	purple	turquoise	turquoise	purple	right	left	0.30000000000000004	0.7	2	4	0.6000000000000001	2.8	0	1	0.7	0.30000000000000004	4	2	2.8	0.6000000000000001	valid	0.5332045199975255	51200	0	0	2	51200	1	51200	1	51200	1	0.7	51200	purple	turquoise	1	4	ml	2.7.3	lorasick	sub-02_ses-02_task-ml_proj-lorasick_2020-11-20-13-57-41.381163
39	2	2	1	40	volatile	2	40	20	vs	turquoise	purple	turquoise	purple	left	right	0.30000000000000004	0.7	4	6	1.2000000000000002	4.199999999999998	1	0	0.30000000000000004	0.7	4	6	1.2000000000000002	4.199999999999998	invalid	0.9497759730002144	51200	0	0	1	53248	0	53248	0	53248	0	0.7	53248	purple	turquoise	1	4	ml	2.7.3	lorasick	sub-02_ses-02_task-ml_proj-lorasick_2020-11-20-13-57-41.381163
40	2	2	1	41	volatile	2	40	21	vs	turquoise	purple	turquoise	purple	left	right	0.30000000000000004	0.7	4	6	1.2000000000000002	4.199999999999998	0	1	0.30000000000000004	0.7	4	6	1.2000000000000002	4.199999999999998	valid	0.5498674209993624	51200	0	0	1	53248	0	53248	0	53248	0	0.7	53248	purple	turquoise	1	0	ml	2.7.3	lorasick	sub-02_ses-02_task-ml_proj-lorasick_2020-11-20-13-57-41.381163
41	2	2	1	42	volatile	2	40	22	vs	purple	turquoise	turquoise	purple	right	left	0.30000000000000004	0.7	6	4	1.8000000000000005	2.8	1	0	0.7	0.30000000000000004	4	6	2.8	1.8000000000000005	invalid	0.6498476910019235	53248	0	1	1	51200	0	51200	0	53248	1	0.7	51200	purple	turquoise	0	6	ml	2.7.3	lorasick	sub-02_ses-02_task-ml_proj-lorasick_2020-11-20-13-57-41.381163
42	2	2	1	43	volatile	2	40	23	vs	turquoise	purple	turquoise	purple	left	right	0.30000000000000004	0.7	6	4	1.8000000000000005	2.8	0	1	0.30000000000000004	0.7	6	4	1.8000000000000005	2.8	valid	0.3166012670008058	51200	0	0	1	53248	0	53248	0	51200	1	0.7	53248	purple	turquoise	0	0	ml	2.7.3	lorasick	sub-02_ses-02_task-ml_proj-lorasick_2020-11-20-13-57-41.381163
43	2	2	1	44	volatile	2	40	24	vs	turquoise	purple	turquoise	purple	left	right	0.30000000000000004	0.7	2	4	0.6000000000000001	2.8	0	1	0.30000000000000004	0.7	2	4	0.6000000000000001	2.8	valid	0.4165633800002979	53248	0	1	2	53248	1	53248	1	53248	1	0.7	53248	purple	turquoise	1	4	ml	2.7.3	lorasick	sub-02_ses-02_task-ml_proj-lorasick_2020-11-20-13-57-41.381163
44	2	2	1	45	volatile	2	40	25	vs	purple	turquoise	turquoise	purple	right	left	0.30000000000000004	0.7	2	2	0.6000000000000001	1.4	0	1	0.7	0.30000000000000004	2	2	1.4	0.6000000000000001	valid	0.4832181509991642	51200	0	0	2	51200	1	51200	1	53248	0	0.7	51200	purple	turquoise	1	2	ml	2.7.3	lorasick	sub-02_ses-02_task-ml_proj-lorasick_2020-11-20-13-57-41.381163
45	2	2	1	46	volatile	2	40	26	vs	turquoise	purple	turquoise	purple	left	right	0.30000000000000004	0.7	2	10	0.6000000000000001	7.0	0	1	0.30000000000000004	0.7	2	10	0.6000000000000001	7.0	valid	0.4499063160001242	53248	0	1	2	53248	1	53248	1	53248	1	0.7	53248	purple	turquoise	1	10	ml	2.7.3	lorasick	sub-02_ses-02_task-ml_proj-lorasick_2020-11-20-13-57-41.381163
46	2	2	1	47	volatile	2	40	27	vs	turquoise	purple	turquoise	purple	left	right	0.30000000000000004	0.7	2	2	0.6000000000000001	1.4	0	1	0.30000000000000004	0.7	2	2	0.6000000000000001	1.4	valid	0.5831973409985949	53248	0	1	2	53248	1	53248	1	53248	1	0.7	53248	purple	turquoise	0	2	ml	2.7.3	lorasick	sub-02_ses-02_task-ml_proj-lorasick_2020-11-20-13-57-41.381163
47	2	2	1	48	volatile	2	40	28	vs	purple	turquoise	turquoise	purple	right	left	0.30000000000000004	0.7	2	4	0.6000000000000001	2.8	0	1	0.7	0.30000000000000004	4	2	2.8	0.6000000000000001	valid	0.3999105690018041	51200	0	0	2	51200	1	51200	1	51200	1	0.7	51200	purple	turquoise	1	4	ml	2.7.3	lorasick	sub-02_ses-02_task-ml_proj-lorasick_2020-11-20-13-57-41.381163
48	2	2	1	49	volatile	2	40	29	vs	turquoise	purple	turquoise	purple	left	right	0.30000000000000004	0.7	2	4	0.6000000000000001	2.8	1	0	0.30000000000000004	0.7	2	4	0.6000000000000001	2.8	invalid	0.4998932449998392	53248	0	1	2	53248	1	53248	1	53248	1	0.7	53248	purple	turquoise	1	0	ml	2.7.3	lorasick	sub-02_ses-02_task-ml_proj-lorasick_2020-11-20-13-57-41.381163
49	2	2	1	50	volatile	2	40	30	vs	purple	turquoise	turquoise	purple	right	left	0.30000000000000004	0.7	2	4	0.6000000000000001	2.8	1	0	0.7	0.30000000000000004	4	2	2.8	0.6000000000000001	invalid	0.3665891920027207	51200	0	0	2	51200	1	51200	1	51200	1	0.7	51200	purple	turquoise	1	0	ml	2.7.3	lorasick	sub-02_ses-02_task-ml_proj-lorasick_2020-11-20-13-57-41.381163
50	2	2	2	51	volatile	2	40	31	vs	purple	turquoise	turquoise	purple	right	left	0.30000000000000004	0.7	6	6	1.8000000000000005	4.199999999999998	1	0	0.7	0.30000000000000004	6	6	4.199999999999998	1.8000000000000005	invalid	0.4832163799983391	51200	0	0	2	51200	1	51200	1	53248	0	0.7	51200	purple	turquoise	1	0	ml	2.7.3	lorasick	sub-02_ses-02_task-ml_proj-lorasick_2020-11-20-13-57-41.381163
51	2	2	2	52	volatile	2	40	32	vs	purple	turquoise	turquoise	purple	right	left	0.30000000000000004	0.7	6	2	1.8000000000000005	1.4	1	0	0.7	0.30000000000000004	2	6	1.4	1.8000000000000005	invalid	0.4165794500004267	53248	0	1	1	53248	1	51200	0	53248	1	0.7	51200	purple	turquoise	0	6	ml	2.7.3	lorasick	sub-02_ses-02_task-ml_proj-lorasick_2020-11-20-13-57-41.381163
52	2	2	2	53	volatile	2	40	33	vs	purple	turquoise	turquoise	purple	right	left	0.30000000000000004	0.7	4	2	1.2000000000000002	1.4	0	1	0.7	0.30000000000000004	2	4	1.4	1.2000000000000002	valid	0.4665681189981114	53248	0	1	1	51200	0	51200	0	53248	1	0.7	51200	purple	turquoise	0	0	ml	2.7.3	lorasick	sub-02_ses-02_task-ml_proj-lorasick_2020-11-20-13-57-41.381163
53	2	2	2	54	volatile	2	40	34	vs	turquoise	purple	turquoise	purple	left	right	0.30000000000000004	0.7	6	4	1.8000000000000005	2.8	1	0	0.30000000000000004	0.7	6	4	1.8000000000000005	2.8	invalid	0.3832422939995013	51200	0	0	1	53248	0	53248	0	51200	1	0.7	53248	purple	turquoise	0	6	ml	2.7.3	lorasick	sub-02_ses-02_task-ml_proj-lorasick_2020-11-20-13-57-41.381163
54	2	2	2	55	volatile	2	40	35	vs	purple	turquoise	turquoise	purple	right	left	0.30000000000000004	0.7	2	6	0.6000000000000001	4.199999999999998	0	1	0.7	0.30000000000000004	6	2	4.199999999999998	0.6000000000000001	valid	0.4665702240017709	53248	0	1	1	51200	0	51200	0	51200	0	0.7	51200	purple	turquoise	1	0	ml	2.7.3	lorasick	sub-02_ses-02_task-ml_proj-lorasick_2020-11-20-13-57-41.381163
55	2	2	2	56	volatile	2	40	36	vs	purple	turquoise	turquoise	purple	right	left	0.30000000000000004	0.7	6	6	1.8000000000000005	4.199999999999998	0	1	0.7	0.30000000000000004	6	6	4.199999999999998	1.8000000000000005	valid	0.4165827959986928	53248	0	1	1	51200	0	51200	0	53248	1	0.7	51200	purple	turquoise	1	0	ml	2.7.3	lorasick	sub-02_ses-02_task-ml_proj-lorasick_2020-11-20-13-57-41.381163
56	2	2	2	57	volatile	2	40	37	vs	turquoise	purple	turquoise	purple	left	right	0.30000000000000004	0.7	6	4	1.8000000000000005	2.8	0	1	0.30000000000000004	0.7	6	4	1.8000000000000005	2.8	valid	0.4165778669994325	53248	0	1	2	53248	1	53248	1	51200	0	0.7	53248	purple	turquoise	0	4	ml	2.7.3	lorasick	sub-02_ses-02_task-ml_proj-lorasick_2020-11-20-13-57-41.381163
57	2	2	2	58	volatile	2	40	38	vs	purple	turquoise	turquoise	purple	right	left	0.30000000000000004	0.7	4	2	1.2000000000000002	1.4	0	1	0.7	0.30000000000000004	2	4	1.4	1.2000000000000002	valid	0.6664992840014747	51200	0	0	2	51200	1	51200	1	53248	0	0.7	51200	purple	turquoise	0	2	ml	2.7.3	lorasick	sub-02_ses-02_task-ml_proj-lorasick_2020-11-20-13-57-41.381163
58	2	2	2	59	volatile	2	40	39	vs	turquoise	purple	turquoise	purple	left	right	0.30000000000000004	0.7	2	6	0.6000000000000001	4.199999999999998	1	0	0.30000000000000004	0.7	2	6	0.6000000000000001	4.199999999999998	invalid	0.5165529099976993	53248	0	1	2	53248	1	53248	1	53248	1	0.7	53248	purple	turquoise	1	0	ml	2.7.3	lorasick	sub-02_ses-02_task-ml_proj-lorasick_2020-11-20-13-57-41.381163
59	2	2	2	60	volatile	2	40	40	vs	purple	turquoise	turquoise	purple	right	left	0.30000000000000004	0.7	2	4	0.6000000000000001	2.8	0	1	0.7	0.30000000000000004	4	2	2.8	0.6000000000000001	valid	0.3499562959987088	51200	0	0	2	51200	1	51200	1	51200	1	0.7	51200	purple	turquoise	1	4	ml	2.7.3	lorasick	sub-02_ses-02_task-ml_proj-lorasick_2020-11-20-13-57-41.381163
60	2	2	2	61	volatile	3	40	1	vs	turquoise	purple	turquoise	purple	left	right	0.7	0.30000000000000004	6	4	4.199999999999998	1.2000000000000002	1	0	0.7	0.30000000000000004	6	4	4.199999999999998	1.2000000000000002	valid	0.3832599720008147	53248	0	1	2	51200	0	51200	0	51200	0	0.7	51200	turquoise	purple	1	0	ml	2.7.3	lorasick	sub-02_ses-02_task-ml_proj-lorasick_2020-11-20-13-57-41.381163
61	2	2	2	62	volatile	3	40	2	vs	turquoise	purple	turquoise	purple	left	right	0.7	0.30000000000000004	4	2	2.8	0.6000000000000001	0	1	0.7	0.30000000000000004	4	2	2.8	0.6000000000000001	invalid	0.4665661100007128	53248	0	1	2	51200	0	51200	0	51200	0	0.7	51200	turquoise	purple	1	2	ml	2.7.3	lorasick	sub-02_ses-02_task-ml_proj-lorasick_2020-11-20-13-57-41.381163
62	2	2	2	63	volatile	3	40	3	vs	turquoise	purple	turquoise	purple	left	right	0.7	0.30000000000000004	10	2	7.0	0.6000000000000001	1	0	0.7	0.30000000000000004	10	2	7.0	0.6000000000000001	valid	0.4165836629981641	53248	0	1	2	51200	0	51200	0	51200	0	0.7	51200	turquoise	purple	1	0	ml	2.7.3	lorasick	sub-02_ses-02_task-ml_proj-lorasick_2020-11-20-13-57-41.381163
63	2	2	2	64	volatile	3	40	4	vs	turquoise	purple	turquoise	purple	left	right	0.7	0.30000000000000004	4	6	2.8	1.8000000000000005	1	0	0.7	0.30000000000000004	4	6	2.8	1.8000000000000005	valid	0.4998935330004315	53248	0	1	2	51200	0	51200	0	53248	1	0.7	51200	turquoise	purple	0	0	ml	2.7.3	lorasick	sub-02_ses-02_task-ml_proj-lorasick_2020-11-20-13-57-41.381163
64	2	2	2	65	volatile	3	40	5	vs	turquoise	purple	turquoise	purple	left	right	0.7	0.30000000000000004	2	4	1.4	1.2000000000000002	1	0	0.7	0.30000000000000004	2	4	1.4	1.2000000000000002	valid	0.4332436709992179	51200	0	0	1	51200	1	51200	1	53248	0	0.7	51200	turquoise	purple	0	2	ml	2.7.3	lorasick	sub-02_ses-02_task-ml_proj-lorasick_2020-11-20-13-57-41.381163
65	2	2	2	66	volatile	3	40	6	vs	purple	turquoise	turquoise	purple	right	left	0.7	0.30000000000000004	4	6	2.8	1.8000000000000005	1	0	0.30000000000000004	0.7	6	4	1.8000000000000005	2.8	valid	0.383254880001914	53248	0	1	1	53248	1	53248	1	51200	0	0.7	53248	turquoise	purple	0	4	ml	2.7.3	lorasick	sub-02_ses-02_task-ml_proj-lorasick_2020-11-20-13-57-41.381163
66	2	2	2	67	volatile	3	40	7	vs	purple	turquoise	turquoise	purple	right	left	0.7	0.30000000000000004	2	2	1.4	0.6000000000000001	0	1	0.30000000000000004	0.7	2	2	0.6000000000000001	1.4	invalid	0.383258633002697	53248	0	1	1	53248	1	53248	1	53248	1	0.7	53248	turquoise	purple	0	0	ml	2.7.3	lorasick	sub-02_ses-02_task-ml_proj-lorasick_2020-11-20-13-57-41.381163
67	2	2	2	68	volatile	3	40	8	vs	purple	turquoise	turquoise	purple	right	left	0.7	0.30000000000000004	6	6	4.199999999999998	1.8000000000000005	0	1	0.30000000000000004	0.7	6	6	1.8000000000000005	4.199999999999998	invalid	0.41657635199953796	53248	0	1	1	53248	1	53248	1	53248	1	0.7	53248	turquoise	purple	0	0	ml	2.7.3	lorasick	sub-02_ses-02_task-ml_proj-lorasick_2020-11-20-13-57-41.381163
68	2	2	2	69	volatile	3	40	9	vs	purple	turquoise	turquoise	purple	right	left	0.7	0.30000000000000004	2	4	1.4	1.2000000000000002	1	0	0.30000000000000004	0.7	4	2	1.2000000000000002	1.4	valid	0.5498679599986644	51200	0	0	2	53248	0	53248	0	51200	1	0.7	53248	turquoise	purple	0	0	ml	2.7.3	lorasick	sub-02_ses-02_task-ml_proj-lorasick_2020-11-20-13-57-41.381163
69	2	2	2	70	volatile	3	40	10	vs	turquoise	purple	turquoise	purple	left	right	0.7	0.30000000000000004	6	4	4.199999999999998	1.2000000000000002	1	0	0.7	0.30000000000000004	6	4	4.199999999999998	1.2000000000000002	valid	0.7498096859999351	51200	0	0	1	51200	1	51200	1	51200	1	0.7	51200	turquoise	purple	1	6	ml	2.7.3	lorasick	sub-02_ses-02_task-ml_proj-lorasick_2020-11-20-13-57-41.381163
70	2	2	2	71	volatile	3	40	11	vs	purple	turquoise	turquoise	purple	right	left	0.7	0.30000000000000004	2	2	1.4	0.6000000000000001	1	0	0.30000000000000004	0.7	2	2	0.6000000000000001	1.4	valid	0.8164656509979977	53248	0	1	1	53248	1	53248	1	53248	1	0.7	53248	turquoise	purple	0	2	ml	2.7.3	lorasick	sub-02_ses-02_task-ml_proj-lorasick_2020-11-20-13-57-41.381163
71	2	2	2	72	volatile	3	40	12	vs	purple	turquoise	turquoise	purple	right	left	0.7	0.30000000000000004	6	6	4.199999999999998	1.8000000000000005	1	0	0.30000000000000004	0.7	6	6	1.8000000000000005	4.199999999999998	valid	0.4665827259996149	53248	0	1	1	53248	1	53248	1	53248	1	0.7	53248	turquoise	purple	0	6	ml	2.7.3	lorasick	sub-02_ses-02_task-ml_proj-lorasick_2020-11-20-13-57-41.381163
72	2	2	2	73	volatile	3	40	13	vs	purple	turquoise	turquoise	purple	right	left	0.7	0.30000000000000004	10	2	7.0	0.6000000000000001	1	0	0.30000000000000004	0.7	2	10	0.6000000000000001	7.0	valid	0.5832013979998011	53248	0	1	1	53248	1	53248	1	53248	1	0.7	53248	turquoise	purple	1	10	ml	2.7.3	lorasick	sub-02_ses-02_task-ml_proj-lorasick_2020-11-20-13-57-41.381163
73	2	2	2	74	volatile	3	40	14	vs	turquoise	purple	turquoise	purple	left	right	0.7	0.30000000000000004	10	2	7.0	0.6000000000000001	1	0	0.7	0.30000000000000004	10	2	7.0	0.6000000000000001	valid	0.4332336320003378	51200	0	0	1	51200	1	51200	1	51200	1	0.7	51200	turquoise	purple	1	10	ml	2.7.3	lorasick	sub-02_ses-02_task-ml_proj-lorasick_2020-11-20-13-57-41.381163
74	2	2	2	75	volatile	3	40	15	vs	purple	turquoise	turquoise	purple	right	left	0.7	0.30000000000000004	6	2	4.199999999999998	0.6000000000000001	1	0	0.30000000000000004	0.7	2	6	0.6000000000000001	4.199999999999998	valid	0.3999039230002381	53248	0	1	1	53248	1	53248	1	53248	1	0.7	53248	turquoise	purple	1	6	ml	2.7.3	lorasick	sub-02_ses-02_task-ml_proj-lorasick_2020-11-20-13-57-41.381163
75	2	2	2	76	volatile	3	40	16	vs	turquoise	purple	turquoise	purple	left	right	0.7	0.30000000000000004	4	6	2.8	1.8000000000000005	1	0	0.7	0.30000000000000004	4	6	2.8	1.8000000000000005	valid	0.4498913290008204	51200	0	0	1	51200	1	51200	1	53248	0	0.7	51200	turquoise	purple	0	4	ml	2.7.3	lorasick	sub-02_ses-02_task-ml_proj-lorasick_2020-11-20-13-57-41.381163
76	2	2	2	77	volatile	3	40	17	vs	purple	turquoise	turquoise	purple	right	left	0.7	0.30000000000000004	6	2	4.199999999999998	0.6000000000000001	1	0	0.30000000000000004	0.7	2	6	0.6000000000000001	4.199999999999998	valid	0.3332720109974616	53248	0	1	1	53248	1	53248	1	53248	1	0.7	53248	turquoise	purple	1	6	ml	2.7.3	lorasick	sub-02_ses-02_task-ml_proj-lorasick_2020-11-20-13-57-41.381163
77	2	2	2	78	volatile	3	40	18	vs	purple	turquoise	turquoise	purple	right	left	0.7	0.30000000000000004	2	4	1.4	1.2000000000000002	1	0	0.30000000000000004	0.7	4	2	1.2000000000000002	1.4	valid	0.5165537389984821	53248	0	1	1	53248	1	53248	1	51200	0	0.7	53248	turquoise	purple	0	2	ml	2.7.3	lorasick	sub-02_ses-02_task-ml_proj-lorasick_2020-11-20-13-57-41.381163
78	2	2	2	79	volatile	3	40	19	vs	turquoise	purple	turquoise	purple	left	right	0.7	0.30000000000000004	4	6	2.8	1.8000000000000005	1	0	0.7	0.30000000000000004	4	6	2.8	1.8000000000000005	valid	0.3332629469987296	51200	0	0	1	51200	1	51200	1	53248	0	0.7	51200	turquoise	purple	0	4	ml	2.7.3	lorasick	sub-02_ses-02_task-ml_proj-lorasick_2020-11-20-13-57-41.381163
79	2	2	2	80	volatile	3	40	20	vs	turquoise	purple	turquoise	purple	left	right	0.7	0.30000000000000004	6	2	4.199999999999998	0.6000000000000001	1	0	0.7	0.30000000000000004	6	2	4.199999999999998	0.6000000000000001	valid	0.41658439700040617	51200	0	0	1	51200	1	51200	1	51200	1	0.7	51200	turquoise	purple	1	6	ml	2.7.3	lorasick	sub-02_ses-02_task-ml_proj-lorasick_2020-11-20-13-57-41.381163
80	2	2	2	81	volatile	3	40	21	vs	purple	turquoise	turquoise	purple	right	left	0.7	0.30000000000000004	2	4	1.4	1.2000000000000002	1	0	0.30000000000000004	0.7	4	2	1.2000000000000002	1.4	valid	0.3665903760011133	53248	0	1	1	53248	1	53248	1	51200	0	0.7	53248	turquoise	purple	0	2	ml	2.7.3	lorasick	sub-02_ses-02_task-ml_proj-lorasick_2020-11-20-13-57-41.381163
81	2	2	2	82	volatile	3	40	22	vs	purple	turquoise	turquoise	purple	right	left	0.7	0.30000000000000004	10	2	7.0	0.6000000000000001	1	0	0.30000000000000004	0.7	2	10	0.6000000000000001	7.0	valid	0.3665966709995701	53248	0	1	1	53248	1	53248	1	53248	1	0.7	53248	turquoise	purple	1	10	ml	2.7.3	lorasick	sub-02_ses-02_task-ml_proj-lorasick_2020-11-20-13-57-41.381163
82	2	2	2	83	volatile	3	40	23	vs	purple	turquoise	turquoise	purple	right	left	0.7	0.30000000000000004	6	4	4.199999999999998	1.2000000000000002	0	1	0.30000000000000004	0.7	4	6	1.2000000000000002	4.199999999999998	invalid	0.39992534200064256	53248	0	1	1	53248	1	53248	1	53248	1	0.7	53248	turquoise	purple	1	0	ml	2.7.3	lorasick	sub-02_ses-02_task-ml_proj-lorasick_2020-11-20-13-57-41.381163
83	2	2	2	84	volatile	3	40	24	vs	purple	turquoise	turquoise	purple	right	left	0.7	0.30000000000000004	6	2	4.199999999999998	0.6000000000000001	1	0	0.30000000000000004	0.7	2	6	0.6000000000000001	4.199999999999998	valid	0.3999198480014456	53248	0	1	1	53248	1	53248	1	53248	1	0.7	53248	turquoise	purple	1	6	ml	2.7.3	lorasick	sub-02_ses-02_task-ml_proj-lorasick_2020-11-20-13-57-41.381163
84	2	2	2	85	volatile	3	40	25	vs	turquoise	purple	turquoise	purple	left	right	0.7	0.30000000000000004	6	4	4.199999999999998	1.2000000000000002	1	0	0.7	0.30000000000000004	6	4	4.199999999999998	1.2000000000000002	valid	0.34992448600314674	51200	0	0	1	51200	1	51200	1	51200	1	0.7	51200	turquoise	purple	1	6	ml	2.7.3	lorasick	sub-02_ses-02_task-ml_proj-lorasick_2020-11-20-13-57-41.381163
85	2	2	2	86	volatile	3	40	26	vs	turquoise	purple	turquoise	purple	left	right	0.7	0.30000000000000004	6	6	4.199999999999998	1.8000000000000005	0	1	0.7	0.30000000000000004	6	6	4.199999999999998	1.8000000000000005	invalid	0.3665845750001608	51200	0	0	1	51200	1	51200	1	53248	0	0.7	51200	turquoise	purple	1	0	ml	2.7.3	lorasick	sub-02_ses-02_task-ml_proj-lorasick_2020-11-20-13-57-41.381163
86	2	2	2	87	volatile	3	40	27	vs	purple	turquoise	turquoise	purple	right	left	0.7	0.30000000000000004	4	2	2.8	0.6000000000000001	0	1	0.30000000000000004	0.7	2	4	0.6000000000000001	2.8	invalid	0.3665974889991048	53248	0	1	1	53248	1	53248	1	53248	1	0.7	53248	turquoise	purple	1	0	ml	2.7.3	lorasick	sub-02_ses-02_task-ml_proj-lorasick_2020-11-20-13-57-41.381163
87	2	2	2	88	volatile	3	40	28	vs	purple	turquoise	turquoise	purple	right	left	0.7	0.30000000000000004	2	2	1.4	0.6000000000000001	0	1	0.30000000000000004	0.7	2	2	0.6000000000000001	1.4	invalid	0.3832479539996712	51200	0	0	2	53248	0	53248	0	53248	0	0.7	53248	turquoise	purple	0	2	ml	2.7.3	lorasick	sub-02_ses-02_task-ml_proj-lorasick_2020-11-20-13-57-41.381163
88	2	2	2	89	volatile	3	40	29	vs	purple	turquoise	turquoise	purple	right	left	0.7	0.30000000000000004	10	2	7.0	0.6000000000000001	0	1	0.30000000000000004	0.7	2	10	0.6000000000000001	7.0	invalid	0.38326983699880657	51200	0	0	2	53248	0	53248	0	53248	0	0.7	53248	turquoise	purple	1	2	ml	2.7.3	lorasick	sub-02_ses-02_task-ml_proj-lorasick_2020-11-20-13-57-41.381163
89	2	2	2	90	volatile	3	40	30	vs	turquoise	purple	turquoise	purple	left	right	0.7	0.30000000000000004	2	2	1.4	0.6000000000000001	1	0	0.7	0.30000000000000004	2	2	1.4	0.6000000000000001	valid	0.3665973330025736	53248	0	1	2	51200	0	51200	0	53248	1	0.7	51200	turquoise	purple	1	0	ml	2.7.3	lorasick	sub-02_ses-02_task-ml_proj-lorasick_2020-11-20-13-57-41.381163
90	2	2	2	91	volatile	3	40	31	vs	turquoise	purple	turquoise	purple	left	right	0.7	0.30000000000000004	6	2	4.199999999999998	0.6000000000000001	0	1	0.7	0.30000000000000004	6	2	4.199999999999998	0.6000000000000001	invalid	0.39991444000042975	53248	0	1	2	51200	0	51200	0	51200	0	0.7	51200	turquoise	purple	1	2	ml	2.7.3	lorasick	sub-02_ses-02_task-ml_proj-lorasick_2020-11-20-13-57-41.381163
91	2	2	2	92	volatile	3	40	32	vs	turquoise	purple	turquoise	purple	left	right	0.7	0.30000000000000004	6	2	4.199999999999998	0.6000000000000001	0	1	0.7	0.30000000000000004	6	2	4.199999999999998	0.6000000000000001	invalid	0.4332523660013976	53248	0	1	2	51200	0	51200	0	51200	0	0.7	51200	turquoise	purple	1	2	ml	2.7.3	lorasick	sub-02_ses-02_task-ml_proj-lorasick_2020-11-20-13-57-41.381163
92	2	2	2	93	volatile	3	40	33	vs	turquoise	purple	turquoise	purple	left	right	0.7	0.30000000000000004	6	2	4.199999999999998	0.6000000000000001	0	1	0.7	0.30000000000000004	6	2	4.199999999999998	0.6000000000000001	invalid	0.4665967450018798	53248	0	1	2	51200	0	51200	0	51200	0	0.7	51200	turquoise	purple	1	2	ml	2.7.3	lorasick	sub-02_ses-02_task-ml_proj-lorasick_2020-11-20-13-57-41.381163
93	2	2	2	94	volatile	3	40	34	vs	purple	turquoise	turquoise	purple	right	left	0.7	0.30000000000000004	4	2	2.8	0.6000000000000001	1	0	0.30000000000000004	0.7	2	4	0.6000000000000001	2.8	valid	0.4332307229997241	51200	0	0	2	53248	0	53248	0	53248	0	0.7	53248	turquoise	purple	1	0	ml	2.7.3	lorasick	sub-02_ses-02_task-ml_proj-lorasick_2020-11-20-13-57-41.381163
94	2	2	2	95	volatile	3	40	35	vs	turquoise	purple	turquoise	purple	left	right	0.7	0.30000000000000004	10	2	7.0	0.6000000000000001	1	0	0.7	0.30000000000000004	10	2	7.0	0.6000000000000001	valid	0.3999191410002823	53248	0	1	2	51200	0	51200	0	51200	0	0.7	51200	turquoise	purple	1	0	ml	2.7.3	lorasick	sub-02_ses-02_task-ml_proj-lorasick_2020-11-20-13-57-41.381163
95	2	2	2	96	volatile	3	40	36	vs	purple	turquoise	turquoise	purple	right	left	0.7	0.30000000000000004	6	2	4.199999999999998	0.6000000000000001	1	0	0.30000000000000004	0.7	2	6	0.6000000000000001	4.199999999999998	valid	0.4332399919985619	51200	0	0	2	53248	0	53248	0	53248	0	0.7	53248	turquoise	purple	1	0	ml	2.7.3	lorasick	sub-02_ses-02_task-ml_proj-lorasick_2020-11-20-13-57-41.381163
96	2	2	2	97	volatile	3	40	37	vs	turquoise	purple	turquoise	purple	left	right	0.7	0.30000000000000004	2	10	1.4	3.0000000000000004	1	0	0.7	0.30000000000000004	2	10	1.4	3.0000000000000004	valid	0.34992341800170834	51200	0	0	1	53248	0	51200	1	53248	0	0.7	51200	turquoise	purple	0	2	ml	2.7.3	lorasick	sub-02_ses-02_task-ml_proj-lorasick_2020-11-20-13-57-41.381163
97	2	2	2	98	volatile	3	40	38	vs	turquoise	purple	turquoise	purple	left	right	0.7	0.30000000000000004	2	4	1.4	1.2000000000000002	1	0	0.7	0.30000000000000004	2	4	1.4	1.2000000000000002	valid	0.3832473879992904	51200	0	0	1	51200	1	51200	1	53248	0	0.7	51200	turquoise	purple	0	2	ml	2.7.3	lorasick	sub-02_ses-02_task-ml_proj-lorasick_2020-11-20-13-57-41.381163
98	2	2	2	99	volatile	3	40	39	vs	purple	turquoise	turquoise	purple	right	left	0.7	0.30000000000000004	2	10	1.4	3.0000000000000004	1	0	0.30000000000000004	0.7	10	2	3.0000000000000004	1.4	valid	1.0663980660028756	53248	0	1	1	51200	0	53248	1	51200	0	0.7	53248	turquoise	purple	0	2	ml	2.7.3	lorasick	sub-02_ses-02_task-ml_proj-lorasick_2020-11-20-13-57-41.381163
99	2	2	2	100	volatile	3	40	40	vs	turquoise	purple	turquoise	purple	left	right	0.7	0.30000000000000004	6	6	4.199999999999998	1.8000000000000005	0	1	0.7	0.30000000000000004	6	6	4.199999999999998	1.8000000000000005	invalid	0.4665559090026363	51200	0	0	1	51200	1	51200	1	53248	0	0.7	51200	turquoise	purple	1	0	ml	2.7.3	lorasick	sub-02_ses-02_task-ml_proj-lorasick_2020-11-20-13-57-41.381163
100	2	2	3	101	volatile	4	40	1	vs	turquoise	purple	turquoise	purple	left	right	0.30000000000000004	0.7	2	4	0.6000000000000001	2.8	0	1	0.30000000000000004	0.7	2	4	0.6000000000000001	2.8	valid	0.5998510780009383	51200	0	0	1	53248	0	53248	0	53248	0	0.7	53248	purple	turquoise	1	0	ml	2.7.3	lorasick	sub-02_ses-02_task-ml_proj-lorasick_2020-11-20-13-57-41.381163
101	2	2	3	102	volatile	4	40	2	vs	purple	turquoise	turquoise	purple	right	left	0.30000000000000004	0.7	2	4	0.6000000000000001	2.8	1	0	0.7	0.30000000000000004	4	2	2.8	0.6000000000000001	invalid	0.4165641919971677	51200	0	0	2	51200	1	51200	1	51200	1	0.7	51200	purple	turquoise	1	0	ml	2.7.3	lorasick	sub-02_ses-02_task-ml_proj-lorasick_2020-11-20-13-57-41.381163
102	2	2	3	103	volatile	4	40	3	vs	turquoise	purple	turquoise	purple	left	right	0.30000000000000004	0.7	4	2	1.2000000000000002	1.4	0	1	0.30000000000000004	0.7	4	2	1.2000000000000002	1.4	valid	0.4165852269979951	53248	0	1	2	53248	1	53248	1	51200	0	0.7	53248	purple	turquoise	0	2	ml	2.7.3	lorasick	sub-02_ses-02_task-ml_proj-lorasick_2020-11-20-13-57-41.381163
103	2	2	3	104	volatile	4	40	4	vs	turquoise	purple	turquoise	purple	left	right	0.30000000000000004	0.7	4	2	1.2000000000000002	1.4	1	0	0.30000000000000004	0.7	4	2	1.2000000000000002	1.4	invalid	0.4832298859982984	53248	0	1	2	53248	1	53248	1	51200	0	0.7	53248	purple	turquoise	0	0	ml	2.7.3	lorasick	sub-02_ses-02_task-ml_proj-lorasick_2020-11-20-13-57-41.381163
104	2	2	3	105	volatile	4	40	5	vs	turquoise	purple	turquoise	purple	left	right	0.30000000000000004	0.7	6	2	1.8000000000000005	1.4	0	1	0.30000000000000004	0.7	6	2	1.8000000000000005	1.4	valid	0.5165524430012738	53248	0	1	2	51200	0	53248	1	51200	0	0.7	53248	purple	turquoise	0	2	ml	2.7.3	lorasick	sub-02_ses-02_task-ml_proj-lorasick_2020-11-20-13-57-41.381163
105	2	2	3	106	volatile	4	40	6	vs	turquoise	purple	turquoise	purple	left	right	0.30000000000000004	0.7	2	4	0.6000000000000001	2.8	1	0	0.30000000000000004	0.7	2	4	0.6000000000000001	2.8	invalid	0.4332440969992604	53248	0	1	2	53248	1	53248	1	53248	1	0.7	53248	purple	turquoise	1	0	ml	2.7.3	lorasick	sub-02_ses-02_task-ml_proj-lorasick_2020-11-20-13-57-41.381163
106	2	2	3	107	volatile	4	40	7	vs	turquoise	purple	turquoise	purple	left	right	0.30000000000000004	0.7	6	4	1.8000000000000005	2.8	0	1	0.30000000000000004	0.7	6	4	1.8000000000000005	2.8	valid	0.33326448400111985	51200	0	0	1	53248	0	53248	0	51200	1	0.7	53248	purple	turquoise	0	0	ml	2.7.3	lorasick	sub-02_ses-02_task-ml_proj-lorasick_2020-11-20-13-57-41.381163
107	2	2	3	108	volatile	4	40	8	vs	purple	turquoise	turquoise	purple	right	left	0.30000000000000004	0.7	4	2	1.2000000000000002	1.4	1	0	0.7	0.30000000000000004	2	4	1.4	1.2000000000000002	invalid	0.6165156089991797	51200	0	0	2	51200	1	51200	1	53248	0	0.7	51200	purple	turquoise	0	0	ml	2.7.3	lorasick	sub-02_ses-02_task-ml_proj-lorasick_2020-11-20-13-57-41.381163
108	2	2	3	109	volatile	4	40	9	vs	turquoise	purple	turquoise	purple	left	right	0.30000000000000004	0.7	10	2	3.0000000000000004	1.4	0	1	0.30000000000000004	0.7	10	2	3.0000000000000004	1.4	valid	1.0164013309986328	51200	0	0	1	51200	1	53248	0	51200	1	0.7	53248	purple	turquoise	0	0	ml	2.7.3	lorasick	sub-02_ses-02_task-ml_proj-lorasick_2020-11-20-13-57-41.381163
109	2	2	3	110	volatile	4	40	10	vs	turquoise	purple	turquoise	purple	left	right	0.30000000000000004	0.7	2	2	0.6000000000000001	1.4	0	1	0.30000000000000004	0.7	2	2	0.6000000000000001	1.4	valid	0.8831025489998865	51200	0	0	1	53248	0	53248	0	53248	0	0.7	53248	purple	turquoise	0	0	ml	2.7.3	lorasick	sub-02_ses-02_task-ml_proj-lorasick_2020-11-20-13-57-41.381163
110	2	2	3	111	volatile	4	40	11	vs	purple	turquoise	turquoise	purple	right	left	0.30000000000000004	0.7	6	4	1.8000000000000005	2.8	1	0	0.7	0.30000000000000004	4	6	2.8	1.8000000000000005	invalid	0.4332349129981594	51200	0	0	2	51200	1	51200	1	53248	0	0.7	51200	purple	turquoise	0	0	ml	2.7.3	lorasick	sub-02_ses-02_task-ml_proj-lorasick_2020-11-20-13-57-41.381163
111	2	2	3	112	volatile	4	40	12	vs	purple	turquoise	turquoise	purple	right	left	0.30000000000000004	0.7	6	2	1.8000000000000005	1.4	0	1	0.7	0.30000000000000004	2	6	1.4	1.8000000000000005	valid	0.2999486720000277	53248	0	1	1	53248	1	51200	0	53248	1	0.7	51200	purple	turquoise	0	0	ml	2.7.3	lorasick	sub-02_ses-02_task-ml_proj-lorasick_2020-11-20-13-57-41.381163
112	2	2	3	113	volatile	4	40	13	vs	purple	turquoise	turquoise	purple	right	left	0.30000000000000004	0.7	6	6	1.8000000000000005	4.199999999999998	0	1	0.7	0.30000000000000004	6	6	4.199999999999998	1.8000000000000005	valid	0.5498722099982842	51200	0	0	2	51200	1	51200	1	53248	0	0.7	51200	purple	turquoise	1	6	ml	2.7.3	lorasick	sub-02_ses-02_task-ml_proj-lorasick_2020-11-20-13-57-41.381163
113	2	2	3	114	volatile	4	40	14	vs	purple	turquoise	turquoise	purple	right	left	0.30000000000000004	0.7	2	10	0.6000000000000001	7.0	0	1	0.7	0.30000000000000004	10	2	7.0	0.6000000000000001	valid	0.4665595180013042	51200	0	0	2	51200	1	51200	1	51200	1	0.7	51200	purple	turquoise	1	10	ml	2.7.3	lorasick	sub-02_ses-02_task-ml_proj-lorasick_2020-11-20-13-57-41.381163
114	2	2	3	115	volatile	4	40	15	vs	turquoise	purple	turquoise	purple	left	right	0.30000000000000004	0.7	4	2	1.2000000000000002	1.4	0	1	0.30000000000000004	0.7	4	2	1.2000000000000002	1.4	valid	0.4332434690004448	53248	0	1	2	53248	1	53248	1	51200	0	0.7	53248	purple	turquoise	0	2	ml	2.7.3	lorasick	sub-02_ses-02_task-ml_proj-lorasick_2020-11-20-13-57-41.381163
115	2	2	3	116	volatile	4	40	16	vs	purple	turquoise	turquoise	purple	right	left	0.30000000000000004	0.7	6	2	1.8000000000000005	1.4	0	1	0.7	0.30000000000000004	2	6	1.4	1.8000000000000005	valid	0.3665999490003742	51200	0	0	2	53248	0	51200	1	53248	0	0.7	51200	purple	turquoise	0	2	ml	2.7.3	lorasick	sub-02_ses-02_task-ml_proj-lorasick_2020-11-20-13-57-41.381163
116	2	2	3	117	volatile	4	40	17	vs	turquoise	purple	turquoise	purple	left	right	0.30000000000000004	0.7	2	2	0.6000000000000001	1.4	0	1	0.30000000000000004	0.7	2	2	0.6000000000000001	1.4	valid	0.4332467770000221	53248	0	1	2	53248	1	53248	1	53248	1	0.7	53248	purple	turquoise	0	2	ml	2.7.3	lorasick	sub-02_ses-02_task-ml_proj-lorasick_2020-11-20-13-57-41.381163
117	2	2	3	118	volatile	4	40	18	vs	purple	turquoise	turquoise	purple	right	left	0.30000000000000004	0.7	4	2	1.2000000000000002	1.4	1	0	0.7	0.30000000000000004	2	4	1.4	1.2000000000000002	invalid	0.3665834680032276	51200	0	0	2	51200	1	51200	1	53248	0	0.7	51200	purple	turquoise	0	0	ml	2.7.3	lorasick	sub-02_ses-02_task-ml_proj-lorasick_2020-11-20-13-57-41.381163
118	2	2	3	119	volatile	4	40	19	vs	purple	turquoise	turquoise	purple	right	left	0.30000000000000004	0.7	2	10	0.6000000000000001	7.0	0	1	0.7	0.30000000000000004	10	2	7.0	0.6000000000000001	valid	0.3832492139990791	51200	0	0	2	51200	1	51200	1	51200	1	0.7	51200	purple	turquoise	1	10	ml	2.7.3	lorasick	sub-02_ses-02_task-ml_proj-lorasick_2020-11-20-13-57-41.381163
119	2	2	3	120	volatile	4	40	20	vs	turquoise	purple	turquoise	purple	left	right	0.30000000000000004	0.7	6	6	1.8000000000000005	4.199999999999998	0	1	0.30000000000000004	0.7	6	6	1.8000000000000005	4.199999999999998	valid	0.3832579390000319	53248	0	1	2	53248	1	53248	1	53248	1	0.7	53248	purple	turquoise	0	6	ml	2.7.3	lorasick	sub-02_ses-02_task-ml_proj-lorasick_2020-11-20-13-57-41.381163
120	2	2	3	121	volatile	4	40	21	vs	turquoise	purple	turquoise	purple	left	right	0.30000000000000004	0.7	2	2	0.6000000000000001	1.4	0	1	0.30000000000000004	0.7	2	2	0.6000000000000001	1.4	valid	0.6831694180000341	53248	0	1	2	53248	1	53248	1	53248	1	0.7	53248	purple	turquoise	0	2	ml	2.7.3	lorasick	sub-02_ses-02_task-ml_proj-lorasick_2020-11-20-13-57-41.381163
121	2	2	3	122	volatile	4	40	22	vs	purple	turquoise	turquoise	purple	right	left	0.30000000000000004	0.7	6	4	1.8000000000000005	2.8	1	0	0.7	0.30000000000000004	4	6	2.8	1.8000000000000005	invalid	0.1666432479978539	51200	0	0	2	51200	1	51200	1	53248	0	0.7	51200	purple	turquoise	0	0	ml	2.7.3	lorasick	sub-02_ses-02_task-ml_proj-lorasick_2020-11-20-13-57-41.381163
122	2	2	3	123	volatile	4	40	23	vs	purple	turquoise	turquoise	purple	right	left	0.30000000000000004	0.7	2	6	0.6000000000000001	4.199999999999998	0	1	0.7	0.30000000000000004	6	2	4.199999999999998	0.6000000000000001	valid	0.4332552019986906	53248	0	1	1	51200	0	51200	0	51200	0	0.7	51200	purple	turquoise	1	0	ml	2.7.3	lorasick	sub-02_ses-02_task-ml_proj-lorasick_2020-11-20-13-57-41.381163
123	2	2	3	124	volatile	4	40	24	vs	turquoise	purple	turquoise	purple	left	right	0.30000000000000004	0.7	6	4	1.8000000000000005	2.8	0	1	0.30000000000000004	0.7	6	4	1.8000000000000005	2.8	valid	0.3665951190014312	53248	0	1	2	53248	1	53248	1	51200	0	0.7	53248	purple	turquoise	0	4	ml	2.7.3	lorasick	sub-02_ses-02_task-ml_proj-lorasick_2020-11-20-13-57-41.381163
124	2	2	3	125	volatile	4	40	25	vs	purple	turquoise	turquoise	purple	right	left	0.30000000000000004	0.7	10	2	3.0000000000000004	1.4	0	1	0.7	0.30000000000000004	2	10	1.4	3.0000000000000004	valid	0.4665569429998868	51200	0	0	2	53248	0	51200	1	53248	0	0.7	51200	purple	turquoise	0	2	ml	2.7.3	lorasick	sub-02_ses-02_task-ml_proj-lorasick_2020-11-20-13-57-41.381163
125	2	2	3	126	volatile	4	40	26	vs	purple	turquoise	turquoise	purple	right	left	0.30000000000000004	0.7	6	4	1.8000000000000005	2.8	0	1	0.7	0.30000000000000004	4	6	2.8	1.8000000000000005	valid	0.5165456309987349	51200	0	0	2	51200	1	51200	1	53248	0	0.7	51200	purple	turquoise	0	4	ml	2.7.3	lorasick	sub-02_ses-02_task-ml_proj-lorasick_2020-11-20-13-57-41.381163
126	2	2	3	127	volatile	4	40	27	vs	turquoise	purple	turquoise	purple	left	right	0.30000000000000004	0.7	6	6	1.8000000000000005	4.199999999999998	1	0	0.30000000000000004	0.7	6	6	1.8000000000000005	4.199999999999998	invalid	0.4332447750020947	53248	0	1	2	53248	1	53248	1	53248	1	0.7	53248	purple	turquoise	0	0	ml	2.7.3	lorasick	sub-02_ses-02_task-ml_proj-lorasick_2020-11-20-13-57-41.381163
127	2	2	3	128	volatile	4	40	28	vs	purple	turquoise	turquoise	purple	right	left	0.30000000000000004	0.7	2	10	0.6000000000000001	7.0	0	1	0.7	0.30000000000000004	10	2	7.0	0.6000000000000001	valid	0.3332618860004004	51200	0	0	2	51200	1	51200	1	51200	1	0.7	51200	purple	turquoise	1	10	ml	2.7.3	lorasick	sub-02_ses-02_task-ml_proj-lorasick_2020-11-20-13-57-41.381163
128	2	2	3	129	volatile	4	40	29	vs	turquoise	purple	turquoise	purple	left	right	0.30000000000000004	0.7	6	6	1.8000000000000005	4.199999999999998	1	0	0.30000000000000004	0.7	6	6	1.8000000000000005	4.199999999999998	invalid	0.5998528140007693	51200	0	0	1	53248	0	53248	0	53248	0	0.7	53248	purple	turquoise	0	6	ml	2.7.3	lorasick	sub-02_ses-02_task-ml_proj-lorasick_2020-11-20-13-57-41.381163
129	2	2	3	130	volatile	4	40	30	vs	turquoise	purple	turquoise	purple	left	right	0.30000000000000004	0.7	2	10	0.6000000000000001	7.0	0	1	0.30000000000000004	0.7	2	10	0.6000000000000001	7.0	valid	0.7831373709996114	53248	0	1	2	53248	1	53248	1	53248	1	0.7	53248	purple	turquoise	1	10	ml	2.7.3	lorasick	sub-02_ses-02_task-ml_proj-lorasick_2020-11-20-13-57-41.381163
130	2	2	3	131	volatile	4	40	31	vs	turquoise	purple	turquoise	purple	left	right	0.30000000000000004	0.7	6	4	1.8000000000000005	2.8	1	0	0.30000000000000004	0.7	6	4	1.8000000000000005	2.8	invalid	0.7498177460001898	53248	0	1	2	53248	1	53248	1	51200	0	0.7	53248	purple	turquoise	0	0	ml	2.7.3	lorasick	sub-02_ses-02_task-ml_proj-lorasick_2020-11-20-13-57-41.381163
131	2	2	3	132	volatile	4	40	32	vs	purple	turquoise	turquoise	purple	right	left	0.30000000000000004	0.7	2	6	0.6000000000000001	4.199999999999998	0	1	0.7	0.30000000000000004	6	2	4.199999999999998	0.6000000000000001	valid	0.38324833599835983	51200	0	0	2	51200	1	51200	1	51200	1	0.7	51200	purple	turquoise	1	6	ml	2.7.3	lorasick	sub-02_ses-02_task-ml_proj-lorasick_2020-11-20-13-57-41.381163
132	2	2	3	133	volatile	4	40	33	vs	purple	turquoise	turquoise	purple	right	left	0.30000000000000004	0.7	2	2	0.6000000000000001	1.4	0	1	0.7	0.30000000000000004	2	2	1.4	0.6000000000000001	valid	0.5498647360000177	51200	0	0	2	51200	1	51200	1	53248	0	0.7	51200	purple	turquoise	1	2	ml	2.7.3	lorasick	sub-02_ses-02_task-ml_proj-lorasick_2020-11-20-13-57-41.381163
133	2	2	3	134	volatile	4	40	34	vs	purple	turquoise	turquoise	purple	right	left	0.30000000000000004	0.7	2	6	0.6000000000000001	4.199999999999998	0	1	0.7	0.30000000000000004	6	2	4.199999999999998	0.6000000000000001	valid	0.4665557320004154	51200	0	0	2	51200	1	51200	1	51200	1	0.7	51200	purple	turquoise	1	6	ml	2.7.3	lorasick	sub-02_ses-02_task-ml_proj-lorasick_2020-11-20-13-57-41.381163
134	2	2	3	135	volatile	4	40	35	vs	purple	turquoise	turquoise	purple	right	left	0.30000000000000004	0.7	4	6	1.2000000000000002	4.199999999999998	0	1	0.7	0.30000000000000004	6	4	4.199999999999998	1.2000000000000002	valid	0.4832193029978953	51200	0	0	2	51200	1	51200	1	51200	1	0.7	51200	purple	turquoise	1	6	ml	2.7.3	lorasick	sub-02_ses-02_task-ml_proj-lorasick_2020-11-20-13-57-41.381163
135	2	2	3	136	volatile	4	40	36	vs	purple	turquoise	turquoise	purple	right	left	0.30000000000000004	0.7	10	2	3.0000000000000004	1.4	0	1	0.7	0.30000000000000004	2	10	1.4	3.0000000000000004	valid	0.5831906940002227	51200	0	0	2	53248	0	51200	1	53248	0	0.7	51200	purple	turquoise	0	2	ml	2.7.3	lorasick	sub-02_ses-02_task-ml_proj-lorasick_2020-11-20-13-57-41.381163
136	2	2	3	137	volatile	4	40	37	vs	turquoise	purple	turquoise	purple	left	right	0.30000000000000004	0.7	2	6	0.6000000000000001	4.199999999999998	1	0	0.30000000000000004	0.7	2	6	0.6000000000000001	4.199999999999998	invalid	1.632882818998041	51200	0	0	1	53248	0	53248	0	53248	0	0.7	53248	purple	turquoise	1	2	ml	2.7.3	lorasick	sub-02_ses-02_task-ml_proj-lorasick_2020-11-20-13-57-41.381163
137	2	2	3	138	volatile	4	40	38	vs	turquoise	purple	turquoise	purple	left	right	0.30000000000000004	0.7	2	10	0.6000000000000001	7.0	0	1	0.30000000000000004	0.7	2	10	0.6000000000000001	7.0	valid	0.4499052669998491	53248	0	1	2	53248	1	53248	1	53248	1	0.7	53248	purple	turquoise	1	10	ml	2.7.3	lorasick	sub-02_ses-02_task-ml_proj-lorasick_2020-11-20-13-57-41.381163
138	2	2	3	139	volatile	4	40	39	vs	turquoise	purple	turquoise	purple	left	right	0.30000000000000004	0.7	2	6	0.6000000000000001	4.199999999999998	0	1	0.30000000000000004	0.7	2	6	0.6000000000000001	4.199999999999998	valid	0.4998931779991835	53248	0	1	2	53248	1	53248	1	53248	1	0.7	53248	purple	turquoise	1	6	ml	2.7.3	lorasick	sub-02_ses-02_task-ml_proj-lorasick_2020-11-20-13-57-41.381163
139	2	2	3	140	volatile	4	40	40	vs	purple	turquoise	turquoise	purple	right	left	0.30000000000000004	0.7	6	4	1.8000000000000005	2.8	1	0	0.7	0.30000000000000004	4	6	2.8	1.8000000000000005	invalid	0.41657463400042616	51200	0	0	2	51200	1	51200	1	53248	0	0.7	51200	purple	turquoise	0	0	ml	2.7.3	lorasick	sub-02_ses-02_task-ml_proj-lorasick_2020-11-20-13-57-41.381163
140	2	2	3	141	volatile	5	20	1	vs	purple	turquoise	turquoise	purple	right	left	0.7	0.30000000000000004	6	2	4.199999999999998	0.6000000000000001	1	0	0.30000000000000004	0.7	2	6	0.6000000000000001	4.199999999999998	valid	0.3332566339995537	51200	0	0	2	53248	0	53248	0	53248	0	0.7	53248	turquoise	purple	1	0	ml	2.7.3	lorasick	sub-02_ses-02_task-ml_proj-lorasick_2020-11-20-13-57-41.381163
141	2	2	3	142	volatile	5	20	2	vs	turquoise	purple	turquoise	purple	left	right	0.7	0.30000000000000004	6	4	4.199999999999998	1.2000000000000002	1	0	0.7	0.30000000000000004	6	4	4.199999999999998	1.2000000000000002	valid	0.9664124349983468	51200	0	0	1	51200	1	51200	1	51200	1	0.7	51200	turquoise	purple	1	6	ml	2.7.3	lorasick	sub-02_ses-02_task-ml_proj-lorasick_2020-11-20-13-57-41.381163
142	2	2	3	143	volatile	5	20	3	vs	purple	turquoise	turquoise	purple	right	left	0.7	0.30000000000000004	6	4	4.199999999999998	1.2000000000000002	1	0	0.30000000000000004	0.7	4	6	1.2000000000000002	4.199999999999998	valid	0.5998377780015289	53248	0	1	1	53248	1	53248	1	53248	1	0.7	53248	turquoise	purple	1	6	ml	2.7.3	lorasick	sub-02_ses-02_task-ml_proj-lorasick_2020-11-20-13-57-41.381163
143	2	2	3	144	volatile	5	20	4	vs	turquoise	purple	turquoise	purple	left	right	0.7	0.30000000000000004	2	2	1.4	0.6000000000000001	1	0	0.7	0.30000000000000004	2	2	1.4	0.6000000000000001	valid	0.3499184560023423	51200	0	0	1	51200	1	51200	1	53248	0	0.7	51200	turquoise	purple	1	2	ml	2.7.3	lorasick	sub-02_ses-02_task-ml_proj-lorasick_2020-11-20-13-57-41.381163
144	2	2	3	145	volatile	5	20	5	vs	turquoise	purple	turquoise	purple	left	right	0.7	0.30000000000000004	4	2	2.8	0.6000000000000001	0	1	0.7	0.30000000000000004	4	2	2.8	0.6000000000000001	invalid	0.383247746998677	51200	0	0	1	51200	1	51200	1	51200	1	0.7	51200	turquoise	purple	1	0	ml	2.7.3	lorasick	sub-02_ses-02_task-ml_proj-lorasick_2020-11-20-13-57-41.381163
145	2	2	3	146	volatile	5	20	6	vs	turquoise	purple	turquoise	purple	left	right	0.7	0.30000000000000004	6	6	4.199999999999998	1.8000000000000005	1	0	0.7	0.30000000000000004	6	6	4.199999999999998	1.8000000000000005	valid	0.6665064779990644	51200	0	0	1	51200	1	51200	1	53248	0	0.7	51200	turquoise	purple	1	6	ml	2.7.3	lorasick	sub-02_ses-02_task-ml_proj-lorasick_2020-11-20-13-57-41.381163
146	2	2	3	147	volatile	5	20	7	vs	turquoise	purple	turquoise	purple	left	right	0.7	0.30000000000000004	2	10	1.4	3.0000000000000004	0	1	0.7	0.30000000000000004	2	10	1.4	3.0000000000000004	invalid	0.4165754370005743	51200	0	0	1	53248	0	51200	1	53248	0	0.7	51200	turquoise	purple	0	0	ml	2.7.3	lorasick	sub-02_ses-02_task-ml_proj-lorasick_2020-11-20-13-57-41.381163
147	2	2	3	148	volatile	5	20	8	vs	turquoise	purple	turquoise	purple	left	right	0.7	0.30000000000000004	6	2	4.199999999999998	0.6000000000000001	0	1	0.7	0.30000000000000004	6	2	4.199999999999998	0.6000000000000001	invalid	0.4665562119989772	51200	0	0	1	51200	1	51200	1	51200	1	0.7	51200	turquoise	purple	1	0	ml	2.7.3	lorasick	sub-02_ses-02_task-ml_proj-lorasick_2020-11-20-13-57-41.381163
148	2	2	3	149	volatile	5	20	9	vs	purple	turquoise	turquoise	purple	right	left	0.7	0.30000000000000004	6	6	4.199999999999998	1.8000000000000005	1	0	0.30000000000000004	0.7	6	6	1.8000000000000005	4.199999999999998	valid	0.4998824450012762	51200	0	0	2	53248	0	53248	0	53248	0	0.7	53248	turquoise	purple	0	0	ml	2.7.3	lorasick	sub-02_ses-02_task-ml_proj-lorasick_2020-11-20-13-57-41.381163
149	2	2	3	150	volatile	5	20	10	vs	purple	turquoise	turquoise	purple	right	left	0.7	0.30000000000000004	2	2	1.4	0.6000000000000001	0	1	0.30000000000000004	0.7	2	2	0.6000000000000001	1.4	invalid	0.5665288700001838	51200	0	0	2	53248	0	53248	0	53248	0	0.7	53248	turquoise	purple	0	2	ml	2.7.3	lorasick	sub-02_ses-02_task-ml_proj-lorasick_2020-11-20-13-57-41.381163
150	2	2	4	151	volatile	5	20	11	vs	purple	turquoise	turquoise	purple	right	left	0.7	0.30000000000000004	4	6	2.8	1.8000000000000005	1	0	0.30000000000000004	0.7	6	4	1.8000000000000005	2.8	valid	0.5665274769999087	51200	0	0	2	53248	0	53248	0	51200	1	0.7	53248	turquoise	purple	0	0	ml	2.7.3	lorasick	sub-02_ses-02_task-ml_proj-lorasick_2020-11-20-13-57-41.381163
151	2	2	4	152	volatile	5	20	12	vs	purple	turquoise	turquoise	purple	right	left	0.7	0.30000000000000004	4	2	2.8	0.6000000000000001	1	0	0.30000000000000004	0.7	2	4	0.6000000000000001	2.8	valid	0.5665353270014748	53248	0	1	1	53248	1	53248	1	53248	1	0.7	53248	turquoise	purple	1	4	ml	2.7.3	lorasick	sub-02_ses-02_task-ml_proj-lorasick_2020-11-20-13-57-41.381163
152	2	2	4	153	volatile	5	20	13	vs	purple	turquoise	turquoise	purple	right	left	0.7	0.30000000000000004	6	2	4.199999999999998	0.6000000000000001	0	1	0.30000000000000004	0.7	2	6	0.6000000000000001	4.199999999999998	invalid	0.4665675979995285	53248	0	1	1	53248	1	53248	1	53248	1	0.7	53248	turquoise	purple	1	0	ml	2.7.3	lorasick	sub-02_ses-02_task-ml_proj-lorasick_2020-11-20-13-57-41.381163
153	2	2	4	154	volatile	5	20	14	vs	purple	turquoise	turquoise	purple	right	left	0.7	0.30000000000000004	2	10	1.4	3.0000000000000004	1	0	0.30000000000000004	0.7	10	2	3.0000000000000004	1.4	valid	0.4998907780027366	53248	0	1	1	51200	0	53248	1	51200	0	0.7	53248	turquoise	purple	0	2	ml	2.7.3	lorasick	sub-02_ses-02_task-ml_proj-lorasick_2020-11-20-13-57-41.381163
154	2	2	4	155	volatile	5	20	15	vs	turquoise	purple	turquoise	purple	left	right	0.7	0.30000000000000004	4	6	2.8	1.8000000000000005	1	0	0.7	0.30000000000000004	4	6	2.8	1.8000000000000005	valid	0.4499115040016477	53248	0	1	2	51200	0	51200	0	53248	1	0.7	51200	turquoise	purple	0	0	ml	2.7.3	lorasick	sub-02_ses-02_task-ml_proj-lorasick_2020-11-20-13-57-41.381163
155	2	2	4	156	volatile	5	20	16	vs	purple	turquoise	turquoise	purple	right	left	0.7	0.30000000000000004	2	6	1.4	1.8000000000000005	1	0	0.30000000000000004	0.7	6	2	1.8000000000000005	1.4	valid	0.4332471979978436	53248	0	1	1	51200	0	53248	1	51200	0	0.7	53248	turquoise	purple	0	2	ml	2.7.3	lorasick	sub-02_ses-02_task-ml_proj-lorasick_2020-11-20-13-57-41.381163
156	2	2	4	157	volatile	5	20	17	vs	purple	turquoise	turquoise	purple	right	left	0.7	0.30000000000000004	2	10	1.4	3.0000000000000004	0	1	0.30000000000000004	0.7	10	2	3.0000000000000004	1.4	invalid	0.4499048280013085	53248	0	1	1	51200	0	53248	1	51200	0	0.7	53248	turquoise	purple	0	0	ml	2.7.3	lorasick	sub-02_ses-02_task-ml_proj-lorasick_2020-11-20-13-57-41.381163
157	2	2	4	158	volatile	5	20	18	vs	turquoise	purple	turquoise	purple	left	right	0.7	0.30000000000000004	2	4	1.4	1.2000000000000002	1	0	0.7	0.30000000000000004	2	4	1.4	1.2000000000000002	valid	0.0001021169991872739	51200	0	0	1	51200	1	51200	1	53248	0	0.7	51200	turquoise	purple	0	2	ml	2.7.3	lorasick	sub-02_ses-02_task-ml_proj-lorasick_2020-11-20-13-57-41.381163
158	2	2	4	159	volatile	5	20	19	vs	turquoise	purple	turquoise	purple	left	right	0.7	0.30000000000000004	2	10	1.4	3.0000000000000004	1	0	0.7	0.30000000000000004	2	10	1.4	3.0000000000000004	valid	0.23330514099870925	53248	0	1	2	53248	1	51200	0	53248	1	0.7	51200	turquoise	purple	0	0	ml	2.7.3	lorasick	sub-02_ses-02_task-ml_proj-lorasick_2020-11-20-13-57-41.381163
159	2	2	4	160	volatile	5	20	20	vs	turquoise	purple	turquoise	purple	left	right	0.7	0.30000000000000004	4	2	2.8	0.6000000000000001	1	0	0.7	0.30000000000000004	4	2	2.8	0.6000000000000001	valid	0.5831901980018301	51200	0	0	1	51200	1	51200	1	51200	1	0.7	51200	turquoise	purple	1	4	ml	2.7.3	lorasick	sub-02_ses-02_task-ml_proj-lorasick_2020-11-20-13-57-41.381163
160	2	2	4	161	volatile	6	20	1	vs	turquoise	purple	turquoise	purple	left	right	0.30000000000000004	0.7	2	2	0.6000000000000001	1.4	0	1	0.30000000000000004	0.7	2	2	0.6000000000000001	1.4	valid	0.05001183399872389	51200	0	0	1	53248	0	53248	0	53248	0	0.7	53248	purple	turquoise	0	0	ml	2.7.3	lorasick	sub-02_ses-02_task-ml_proj-lorasick_2020-11-20-13-57-41.381163
161	2	2	4	162	volatile	6	20	2	vs	purple	turquoise	turquoise	purple	right	left	0.30000000000000004	0.7	10	2	3.0000000000000004	1.4	0	1	0.7	0.30000000000000004	2	10	1.4	3.0000000000000004	valid	0.8997720929983188	51200	0	0	2	53248	0	51200	1	53248	0	0.7	51200	purple	turquoise	0	2	ml	2.7.3	lorasick	sub-02_ses-02_task-ml_proj-lorasick_2020-11-20-13-57-41.381163
162	2	2	4	163	volatile	6	20	3	vs	purple	turquoise	turquoise	purple	right	left	0.30000000000000004	0.7	2	2	0.6000000000000001	1.4	1	0	0.7	0.30000000000000004	2	2	1.4	0.6000000000000001	invalid	0.4665622490028909	51200	0	0	2	51200	1	51200	1	53248	0	0.7	51200	purple	turquoise	1	0	ml	2.7.3	lorasick	sub-02_ses-02_task-ml_proj-lorasick_2020-11-20-13-57-41.381163
163	2	2	4	164	volatile	6	20	4	vs	turquoise	purple	turquoise	purple	left	right	0.30000000000000004	0.7	6	6	1.8000000000000005	4.199999999999998	0	1	0.30000000000000004	0.7	6	6	1.8000000000000005	4.199999999999998	valid	0.9330929850002576	53248	0	1	2	53248	1	53248	1	53248	1	0.7	53248	purple	turquoise	0	6	ml	2.7.3	lorasick	sub-02_ses-02_task-ml_proj-lorasick_2020-11-20-13-57-41.381163
164	2	2	4	165	volatile	6	20	5	vs	purple	turquoise	turquoise	purple	right	left	0.30000000000000004	0.7	6	4	1.8000000000000005	2.8	1	0	0.7	0.30000000000000004	4	6	2.8	1.8000000000000005	invalid	0.5165446060018439	51200	0	0	2	51200	1	51200	1	53248	0	0.7	51200	purple	turquoise	0	0	ml	2.7.3	lorasick	sub-02_ses-02_task-ml_proj-lorasick_2020-11-20-13-57-41.381163
165	2	2	4	166	volatile	6	20	6	vs	turquoise	purple	turquoise	purple	left	right	0.30000000000000004	0.7	2	6	0.6000000000000001	4.199999999999998	0	1	0.30000000000000004	0.7	2	6	0.6000000000000001	4.199999999999998	valid	0.7331500940017577	53248	0	1	2	53248	1	53248	1	53248	1	0.7	53248	purple	turquoise	1	6	ml	2.7.3	lorasick	sub-02_ses-02_task-ml_proj-lorasick_2020-11-20-13-57-41.381163
166	2	2	4	167	volatile	6	20	7	vs	turquoise	purple	turquoise	purple	left	right	0.30000000000000004	0.7	2	10	0.6000000000000001	7.0	0	1	0.30000000000000004	0.7	2	10	0.6000000000000001	7.0	valid	0.5332155910000438	53248	0	1	2	53248	1	53248	1	53248	1	0.7	53248	purple	turquoise	1	10	ml	2.7.3	lorasick	sub-02_ses-02_task-ml_proj-lorasick_2020-11-20-13-57-41.381163
167	2	2	4	168	volatile	6	20	8	vs	turquoise	purple	turquoise	purple	left	right	0.30000000000000004	0.7	6	4	1.8000000000000005	2.8	1	0	0.30000000000000004	0.7	6	4	1.8000000000000005	2.8	invalid	0.4499058370020066	53248	0	1	2	53248	1	53248	1	51200	0	0.7	53248	purple	turquoise	0	0	ml	2.7.3	lorasick	sub-02_ses-02_task-ml_proj-lorasick_2020-11-20-13-57-41.381163
168	2	2	4	169	volatile	6	20	9	vs	turquoise	purple	turquoise	purple	left	right	0.30000000000000004	0.7	2	6	0.6000000000000001	4.199999999999998	1	0	0.30000000000000004	0.7	2	6	0.6000000000000001	4.199999999999998	invalid	0.4832300540001597	53248	0	1	2	53248	1	53248	1	53248	1	0.7	53248	purple	turquoise	1	0	ml	2.7.3	lorasick	sub-02_ses-02_task-ml_proj-lorasick_2020-11-20-13-57-41.381163
169	2	2	4	170	volatile	6	20	10	vs	turquoise	purple	turquoise	purple	left	right	0.30000000000000004	0.7	2	4	0.6000000000000001	2.8	0	1	0.30000000000000004	0.7	2	4	0.6000000000000001	2.8	valid	0.4998925710024196	53248	0	1	2	53248	1	53248	1	53248	1	0.7	53248	purple	turquoise	1	4	ml	2.7.3	lorasick	sub-02_ses-02_task-ml_proj-lorasick_2020-11-20-13-57-41.381163
170	2	2	4	171	volatile	6	20	11	vs	turquoise	purple	turquoise	purple	left	right	0.30000000000000004	0.7	10	2	3.0000000000000004	1.4	1	0	0.30000000000000004	0.7	10	2	3.0000000000000004	1.4	invalid	0.5498771689999558	53248	0	1	2	51200	0	53248	1	51200	0	0.7	53248	purple	turquoise	0	0	ml	2.7.3	lorasick	sub-02_ses-02_task-ml_proj-lorasick_2020-11-20-13-57-41.381163
171	2	2	4	172	volatile	6	20	12	vs	purple	turquoise	turquoise	purple	right	left	0.30000000000000004	0.7	6	6	1.8000000000000005	4.199999999999998	0	1	0.7	0.30000000000000004	6	6	4.199999999999998	1.8000000000000005	valid	0.39992028399865376	51200	0	0	2	51200	1	51200	1	53248	0	0.7	51200	purple	turquoise	1	6	ml	2.7.3	lorasick	sub-02_ses-02_task-ml_proj-lorasick_2020-11-20-13-57-41.381163
172	2	2	4	173	volatile	6	20	13	vs	turquoise	purple	turquoise	purple	left	right	0.30000000000000004	0.7	6	4	1.8000000000000005	2.8	0	1	0.30000000000000004	0.7	6	4	1.8000000000000005	2.8	valid	0.5998510719982733	51200	0	0	1	53248	0	53248	0	51200	1	0.7	53248	purple	turquoise	0	0	ml	2.7.3	lorasick	sub-02_ses-02_task-ml_proj-lorasick_2020-11-20-13-57-41.381163
173	2	2	4	174	volatile	6	20	14	vs	purple	turquoise	turquoise	purple	right	left	0.30000000000000004	0.7	2	6	0.6000000000000001	4.199999999999998	0	1	0.7	0.30000000000000004	6	2	4.199999999999998	0.6000000000000001	valid	0.6998221979993104	51200	0	0	2	51200	1	51200	1	51200	1	0.7	51200	purple	turquoise	1	6	ml	2.7.3	lorasick	sub-02_ses-02_task-ml_proj-lorasick_2020-11-20-13-57-41.381163
174	2	2	4	175	volatile	6	20	15	vs	purple	turquoise	turquoise	purple	right	left	0.30000000000000004	0.7	2	4	0.6000000000000001	2.8	0	1	0.7	0.30000000000000004	4	2	2.8	0.6000000000000001	valid	0.5665264849994855	51200	0	0	2	51200	1	51200	1	51200	1	0.7	51200	purple	turquoise	1	4	ml	2.7.3	lorasick	sub-02_ses-02_task-ml_proj-lorasick_2020-11-20-13-57-41.381163
175	2	2	4	176	volatile	6	20	16	vs	purple	turquoise	turquoise	purple	right	left	0.30000000000000004	0.7	2	10	0.6000000000000001	7.0	0	1	0.7	0.30000000000000004	10	2	7.0	0.6000000000000001	valid	0.5998497549990134	51200	0	0	2	51200	1	51200	1	51200	1	0.7	51200	purple	turquoise	1	10	ml	2.7.3	lorasick	sub-02_ses-02_task-ml_proj-lorasick_2020-11-20-13-57-41.381163
176	2	2	4	177	volatile	6	20	17	vs	turquoise	purple	turquoise	purple	left	right	0.30000000000000004	0.7	4	2	1.2000000000000002	1.4	0	1	0.30000000000000004	0.7	4	2	1.2000000000000002	1.4	valid	0.5165502329982701	53248	0	1	2	53248	1	53248	1	51200	0	0.7	53248	purple	turquoise	0	2	ml	2.7.3	lorasick	sub-02_ses-02_task-ml_proj-lorasick_2020-11-20-13-57-41.381163
177	2	2	4	178	volatile	6	20	18	vs	purple	turquoise	turquoise	purple	right	left	0.30000000000000004	0.7	4	2	1.2000000000000002	1.4	0	1	0.7	0.30000000000000004	2	4	1.4	1.2000000000000002	valid	0.3499180920007348	51200	0	0	2	51200	1	51200	1	53248	0	0.7	51200	purple	turquoise	0	2	ml	2.7.3	lorasick	sub-02_ses-02_task-ml_proj-lorasick_2020-11-20-13-57-41.381163
178	2	2	4	179	volatile	6	20	19	vs	purple	turquoise	turquoise	purple	right	left	0.30000000000000004	0.7	2	6	0.6000000000000001	4.199999999999998	0	1	0.7	0.30000000000000004	6	2	4.199999999999998	0.6000000000000001	valid	0.38324708199797897	51200	0	0	2	51200	1	51200	1	51200	1	0.7	51200	purple	turquoise	1	6	ml	2.7.3	lorasick	sub-02_ses-02_task-ml_proj-lorasick_2020-11-20-13-57-41.381163
179	2	2	4	180	volatile	6	20	20	vs	purple	turquoise	turquoise	purple	right	left	0.30000000000000004	0.7	6	4	1.8000000000000005	2.8	1	0	0.7	0.30000000000000004	4	6	2.8	1.8000000000000005	invalid	0.3999107080016984	51200	0	0	2	51200	1	51200	1	53248	0	0.7	51200	purple	turquoise	0	0	ml	2.7.3	lorasick	sub-02_ses-02_task-ml_proj-lorasick_2020-11-20-13-57-41.381163
180	2	2	4	181	volatile	7	20	1	vs	purple	turquoise	turquoise	purple	right	left	0.7	0.30000000000000004	4	6	2.8	1.8000000000000005	1	0	0.30000000000000004	0.7	6	4	1.8000000000000005	2.8	valid	0.41656910399979097	51200	0	0	2	53248	0	53248	0	51200	1	0.7	53248	turquoise	purple	0	0	ml	2.7.3	lorasick	sub-02_ses-02_task-ml_proj-lorasick_2020-11-20-13-57-41.381163
181	2	2	4	182	volatile	7	20	2	vs	turquoise	purple	turquoise	purple	left	right	0.7	0.30000000000000004	2	10	1.4	3.0000000000000004	1	0	0.7	0.30000000000000004	2	10	1.4	3.0000000000000004	valid	0.33328274799714563	53248	0	1	2	53248	1	51200	0	53248	1	0.7	51200	turquoise	purple	0	0	ml	2.7.3	lorasick	sub-02_ses-02_task-ml_proj-lorasick_2020-11-20-13-57-41.381163
182	2	2	4	183	volatile	7	20	3	vs	turquoise	purple	turquoise	purple	left	right	0.7	0.30000000000000004	6	2	4.199999999999998	0.6000000000000001	1	0	0.7	0.30000000000000004	6	2	4.199999999999998	0.6000000000000001	valid	0.6165292119985679	53248	0	1	2	51200	0	51200	0	51200	0	0.7	51200	turquoise	purple	1	0	ml	2.7.3	lorasick	sub-02_ses-02_task-ml_proj-lorasick_2020-11-20-13-57-41.381163
183	2	2	4	184	volatile	7	20	4	vs	turquoise	purple	turquoise	purple	left	right	0.7	0.30000000000000004	2	4	1.4	1.2000000000000002	0	1	0.7	0.30000000000000004	2	4	1.4	1.2000000000000002	invalid	0.6165236899978481	53248	0	1	2	51200	0	51200	0	53248	1	0.7	51200	turquoise	purple	0	4	ml	2.7.3	lorasick	sub-02_ses-02_task-ml_proj-lorasick_2020-11-20-13-57-41.381163
184	2	2	4	185	volatile	7	20	5	vs	purple	turquoise	turquoise	purple	right	left	0.7	0.30000000000000004	6	4	4.199999999999998	1.2000000000000002	0	1	0.30000000000000004	0.7	4	6	1.2000000000000002	4.199999999999998	invalid	0.39990836499782745	51200	0	0	2	53248	0	53248	0	53248	0	0.7	53248	turquoise	purple	1	4	ml	2.7.3	lorasick	sub-02_ses-02_task-ml_proj-lorasick_2020-11-20-13-57-41.381163
185	2	2	4	186	volatile	7	20	6	vs	purple	turquoise	turquoise	purple	right	left	0.7	0.30000000000000004	2	6	1.4	1.8000000000000005	1	0	0.30000000000000004	0.7	6	2	1.8000000000000005	1.4	valid	0.4832207100007509	51200	0	0	2	51200	1	53248	0	51200	1	0.7	53248	turquoise	purple	0	0	ml	2.7.3	lorasick	sub-02_ses-02_task-ml_proj-lorasick_2020-11-20-13-57-41.381163
186	2	2	4	187	volatile	7	20	7	vs	turquoise	purple	turquoise	purple	left	right	0.7	0.30000000000000004	6	6	4.199999999999998	1.8000000000000005	1	0	0.7	0.30000000000000004	6	6	4.199999999999998	1.8000000000000005	valid	0.4332427109984565	53248	0	1	2	51200	0	51200	0	53248	1	0.7	51200	turquoise	purple	1	0	ml	2.7.3	lorasick	sub-02_ses-02_task-ml_proj-lorasick_2020-11-20-13-57-41.381163
187	2	2	4	188	volatile	7	20	8	vs	purple	turquoise	turquoise	purple	right	left	0.7	0.30000000000000004	6	2	4.199999999999998	0.6000000000000001	1	0	0.30000000000000004	0.7	2	6	0.6000000000000001	4.199999999999998	valid	0.3499255650021951	51200	0	0	2	53248	0	53248	0	53248	0	0.7	53248	turquoise	purple	1	0	ml	2.7.3	lorasick	sub-02_ses-02_task-ml_proj-lorasick_2020-11-20-13-57-41.381163
188	2	2	4	189	volatile	7	20	9	vs	turquoise	purple	turquoise	purple	left	right	0.7	0.30000000000000004	4	2	2.8	0.6000000000000001	0	1	0.7	0.30000000000000004	4	2	2.8	0.6000000000000001	invalid	1.0663855759994476	51200	0	0	1	51200	1	51200	1	51200	1	0.7	51200	turquoise	purple	1	0	ml	2.7.3	lorasick	sub-02_ses-02_task-ml_proj-lorasick_2020-11-20-13-57-41.381163
189	2	2	4	190	volatile	7	20	10	vs	turquoise	purple	turquoise	purple	left	right	0.7	0.30000000000000004	2	6	1.4	1.8000000000000005	0	1	0.7	0.30000000000000004	2	6	1.4	1.8000000000000005	invalid	0.5832013500003086	53248	0	1	2	53248	1	51200	0	53248	1	0.7	51200	turquoise	purple	0	6	ml	2.7.3	lorasick	sub-02_ses-02_task-ml_proj-lorasick_2020-11-20-13-57-41.381163
190	2	2	4	191	volatile	7	20	11	vs	purple	turquoise	turquoise	purple	right	left	0.7	0.30000000000000004	6	4	4.199999999999998	1.2000000000000002	1	0	0.30000000000000004	0.7	4	6	1.2000000000000002	4.199999999999998	valid	0.3832460770026955	51200	0	0	2	53248	0	53248	0	53248	0	0.7	53248	turquoise	purple	1	0	ml	2.7.3	lorasick	sub-02_ses-02_task-ml_proj-lorasick_2020-11-20-13-57-41.381163
191	2	2	4	192	volatile	7	20	12	vs	purple	turquoise	turquoise	purple	right	left	0.7	0.30000000000000004	2	10	1.4	3.0000000000000004	1	0	0.30000000000000004	0.7	10	2	3.0000000000000004	1.4	valid	0.4832154590003484	51200	0	0	2	51200	1	53248	0	51200	1	0.7	53248	turquoise	purple	0	0	ml	2.7.3	lorasick	sub-02_ses-02_task-ml_proj-lorasick_2020-11-20-13-57-41.381163
192	2	2	4	193	volatile	7	20	13	vs	turquoise	purple	turquoise	purple	left	right	0.7	0.30000000000000004	2	2	1.4	0.6000000000000001	1	0	0.7	0.30000000000000004	2	2	1.4	0.6000000000000001	valid	0.6998350440007925	53248	0	1	2	51200	0	51200	0	53248	1	0.7	51200	turquoise	purple	1	0	ml	2.7.3	lorasick	sub-02_ses-02_task-ml_proj-lorasick_2020-11-20-13-57-41.381163
193	2	2	4	194	volatile	7	20	14	vs	purple	turquoise	turquoise	purple	right	left	0.7	0.30000000000000004	4	2	2.8	0.6000000000000001	1	0	0.30000000000000004	0.7	2	4	0.6000000000000001	2.8	valid	0.4832306440002867	53248	0	1	1	53248	1	53248	1	53248	1	0.7	53248	turquoise	purple	1	4	ml	2.7.3	lorasick	sub-02_ses-02_task-ml_proj-lorasick_2020-11-20-13-57-41.381163
194	2	2	4	195	volatile	7	20	15	vs	turquoise	purple	turquoise	purple	left	right	0.7	0.30000000000000004	2	2	1.4	0.6000000000000001	1	0	0.7	0.30000000000000004	2	2	1.4	0.6000000000000001	valid	0.5831922039978963	51200	0	0	1	51200	1	51200	1	53248	0	0.7	51200	turquoise	purple	1	2	ml	2.7.3	lorasick	sub-02_ses-02_task-ml_proj-lorasick_2020-11-20-13-57-41.381163
195	2	2	4	196	volatile	7	20	16	vs	turquoise	purple	turquoise	purple	left	right	0.7	0.30000000000000004	6	4	4.199999999999998	1.2000000000000002	1	0	0.7	0.30000000000000004	6	4	4.199999999999998	1.2000000000000002	valid	0.4665575330000138	51200	0	0	1	51200	1	51200	1	51200	1	0.7	51200	turquoise	purple	1	6	ml	2.7.3	lorasick	sub-02_ses-02_task-ml_proj-lorasick_2020-11-20-13-57-41.381163
196	2	2	4	197	volatile	7	20	17	vs	purple	turquoise	turquoise	purple	right	left	0.7	0.30000000000000004	10	2	7.0	0.6000000000000001	0	1	0.30000000000000004	0.7	2	10	0.6000000000000001	7.0	invalid	0.4165815310007019	53248	0	1	1	53248	1	53248	1	53248	1	0.7	53248	turquoise	purple	1	0	ml	2.7.3	lorasick	sub-02_ses-02_task-ml_proj-lorasick_2020-11-20-13-57-41.381163
197	2	2	4	198	volatile	7	20	18	vs	purple	turquoise	turquoise	purple	right	left	0.7	0.30000000000000004	2	4	1.4	1.2000000000000002	0	1	0.30000000000000004	0.7	4	2	1.2000000000000002	1.4	invalid	0.3999205729996902	53248	0	1	1	53248	1	53248	1	51200	0	0.7	53248	turquoise	purple	0	0	ml	2.7.3	lorasick	sub-02_ses-02_task-ml_proj-lorasick_2020-11-20-13-57-41.381163
198	2	2	4	199	volatile	7	20	19	vs	turquoise	purple	turquoise	purple	left	right	0.7	0.30000000000000004	10	2	7.0	0.6000000000000001	1	0	0.7	0.30000000000000004	10	2	7.0	0.6000000000000001	valid	0.38325033000000985	51200	0	0	1	51200	1	51200	1	51200	1	0.7	51200	turquoise	purple	1	10	ml	2.7.3	lorasick	sub-02_ses-02_task-ml_proj-lorasick_2020-11-20-13-57-41.381163
199	2	2	4	200	volatile	7	20	20	vs	purple	turquoise	turquoise	purple	right	left	0.7	0.30000000000000004	6	6	4.199999999999998	1.8000000000000005	1	0	0.30000000000000004	0.7	6	6	1.8000000000000005	4.199999999999998	valid	0.3665973900024255	53248	0	1	1	53248	1	53248	1	53248	1	0.7	53248	turquoise	purple	0	6	ml	2.7.3	lorasick	sub-02_ses-02_task-ml_proj-lorasick_2020-11-20-13-57-41.381163
200	2	2	5	201	stable	8	200	1	vs	turquoise	purple	turquoise	purple	left	right	0.30000000000000004	0.7	2	4	0.6000000000000001	2.8	1	0	0.30000000000000004	0.7	2	4	0.6000000000000001	2.8	invalid	0.7498060500001884	51200	0	0	1	53248	0	53248	0	53248	0	0.7	53248	purple	turquoise	1	2	ml	2.7.3	lorasick	sub-02_ses-02_task-ml_proj-lorasick_2020-11-20-13-57-41.381163
201	2	2	5	202	stable	8	200	2	vs	purple	turquoise	turquoise	purple	right	left	0.30000000000000004	0.7	2	6	0.6000000000000001	4.199999999999998	0	1	0.7	0.30000000000000004	6	2	4.199999999999998	0.6000000000000001	valid	0.4165812270002789	53248	0	1	1	51200	0	51200	0	51200	0	0.7	51200	purple	turquoise	1	0	ml	2.7.3	lorasick	sub-02_ses-02_task-ml_proj-lorasick_2020-11-20-13-57-41.381163
202	2	2	5	203	stable	8	200	3	vs	purple	turquoise	turquoise	purple	right	left	0.30000000000000004	0.7	2	4	0.6000000000000001	2.8	0	1	0.7	0.30000000000000004	4	2	2.8	0.6000000000000001	valid	0.6498476430024311	53248	0	1	1	51200	0	51200	0	51200	0	0.7	51200	purple	turquoise	1	0	ml	2.7.3	lorasick	sub-02_ses-02_task-ml_proj-lorasick_2020-11-20-13-57-41.381163
203	2	2	5	204	stable	8	200	4	vs	turquoise	purple	turquoise	purple	left	right	0.30000000000000004	0.7	2	6	0.6000000000000001	4.199999999999998	0	1	0.30000000000000004	0.7	2	6	0.6000000000000001	4.199999999999998	valid	0.39992156800144585	53248	0	1	2	53248	1	53248	1	53248	1	0.7	53248	purple	turquoise	1	6	ml	2.7.3	lorasick	sub-02_ses-02_task-ml_proj-lorasick_2020-11-20-13-57-41.381163
204	2	2	5	205	stable	8	200	5	vs	turquoise	purple	turquoise	purple	left	right	0.30000000000000004	0.7	2	6	0.6000000000000001	4.199999999999998	1	0	0.30000000000000004	0.7	2	6	0.6000000000000001	4.199999999999998	invalid	0.4499080749992572	53248	0	1	2	53248	1	53248	1	53248	1	0.7	53248	purple	turquoise	1	0	ml	2.7.3	lorasick	sub-02_ses-02_task-ml_proj-lorasick_2020-11-20-13-57-41.381163
205	2	2	5	206	stable	8	200	6	vs	turquoise	purple	turquoise	purple	left	right	0.30000000000000004	0.7	6	2	1.8000000000000005	1.4	0	1	0.30000000000000004	0.7	6	2	1.8000000000000005	1.4	valid	0.4998865760026092	53248	0	1	2	51200	0	53248	1	51200	0	0.7	53248	purple	turquoise	0	2	ml	2.7.3	lorasick	sub-02_ses-02_task-ml_proj-lorasick_2020-11-20-13-57-41.381163
206	2	2	5	207	stable	8	200	7	vs	purple	turquoise	turquoise	purple	right	left	0.30000000000000004	0.7	2	6	0.6000000000000001	4.199999999999998	0	1	0.7	0.30000000000000004	6	2	4.199999999999998	0.6000000000000001	valid	0.38324960799945984	51200	0	0	2	51200	1	51200	1	51200	1	0.7	51200	purple	turquoise	1	6	ml	2.7.3	lorasick	sub-02_ses-02_task-ml_proj-lorasick_2020-11-20-13-57-41.381163
207	2	2	5	208	stable	8	200	8	vs	purple	turquoise	turquoise	purple	right	left	0.30000000000000004	0.7	4	6	1.2000000000000002	4.199999999999998	0	1	0.7	0.30000000000000004	6	4	4.199999999999998	1.2000000000000002	valid	0.4665586359988083	51200	0	0	2	51200	1	51200	1	51200	1	0.7	51200	purple	turquoise	1	6	ml	2.7.3	lorasick	sub-02_ses-02_task-ml_proj-lorasick_2020-11-20-13-57-41.381163
208	2	2	5	209	stable	8	200	9	vs	purple	turquoise	turquoise	purple	right	left	0.30000000000000004	0.7	2	6	0.6000000000000001	4.199999999999998	0	1	0.7	0.30000000000000004	6	2	4.199999999999998	0.6000000000000001	valid	0.4998834100006206	51200	0	0	2	51200	1	51200	1	51200	1	0.7	51200	purple	turquoise	1	6	ml	2.7.3	lorasick	sub-02_ses-02_task-ml_proj-lorasick_2020-11-20-13-57-41.381163
209	2	2	5	210	stable	8	200	10	vs	turquoise	purple	turquoise	purple	left	right	0.30000000000000004	0.7	4	2	1.2000000000000002	1.4	1	0	0.30000000000000004	0.7	4	2	1.2000000000000002	1.4	invalid	0.3832618699998421	53248	0	1	2	53248	1	53248	1	51200	0	0.7	53248	purple	turquoise	0	0	ml	2.7.3	lorasick	sub-02_ses-02_task-ml_proj-lorasick_2020-11-20-13-57-41.381163
210	2	2	5	211	stable	8	200	11	vs	purple	turquoise	turquoise	purple	right	left	0.30000000000000004	0.7	4	6	1.2000000000000002	4.199999999999998	1	0	0.7	0.30000000000000004	6	4	4.199999999999998	1.2000000000000002	invalid	0.3665844329989341	51200	0	0	2	51200	1	51200	1	51200	1	0.7	51200	purple	turquoise	1	0	ml	2.7.3	lorasick	sub-02_ses-02_task-ml_proj-lorasick_2020-11-20-13-57-41.381163
211	2	2	5	212	stable	8	200	12	vs	turquoise	purple	turquoise	purple	left	right	0.30000000000000004	0.7	2	10	0.6000000000000001	7.0	0	1	0.30000000000000004	0.7	2	10	0.6000000000000001	7.0	valid	0.39991068300150795	51200	0	0	1	53248	0	53248	0	53248	0	0.7	53248	purple	turquoise	1	0	ml	2.7.3	lorasick	sub-02_ses-02_task-ml_proj-lorasick_2020-11-20-13-57-41.381163
212	2	2	5	213	stable	8	200	13	vs	purple	turquoise	turquoise	purple	right	left	0.30000000000000004	0.7	2	10	0.6000000000000001	7.0	0	1	0.7	0.30000000000000004	10	2	7.0	0.6000000000000001	valid	0.4165822039976774	53248	0	1	1	51200	0	51200	0	51200	0	0.7	51200	purple	turquoise	1	0	ml	2.7.3	lorasick	sub-02_ses-02_task-ml_proj-lorasick_2020-11-20-13-57-41.381163
213	2	2	5	214	stable	8	200	14	vs	turquoise	purple	turquoise	purple	left	right	0.30000000000000004	0.7	2	10	0.6000000000000001	7.0	1	0	0.30000000000000004	0.7	2	10	0.6000000000000001	7.0	invalid	0.3999221119993308	53248	0	1	2	53248	1	53248	1	53248	1	0.7	53248	purple	turquoise	1	0	ml	2.7.3	lorasick	sub-02_ses-02_task-ml_proj-lorasick_2020-11-20-13-57-41.381163
214	2	2	5	215	stable	8	200	15	vs	purple	turquoise	turquoise	purple	right	left	0.30000000000000004	0.7	6	4	1.8000000000000005	2.8	0	1	0.7	0.30000000000000004	4	6	2.8	1.8000000000000005	valid	0.43323372800296056	51200	0	0	2	51200	1	51200	1	53248	0	0.7	51200	purple	turquoise	0	4	ml	2.7.3	lorasick	sub-02_ses-02_task-ml_proj-lorasick_2020-11-20-13-57-41.381163
215	2	2	5	216	stable	8	200	16	vs	purple	turquoise	turquoise	purple	right	left	0.30000000000000004	0.7	4	6	1.2000000000000002	4.199999999999998	1	0	0.7	0.30000000000000004	6	4	4.199999999999998	1.2000000000000002	invalid	0.4665544560011767	51200	0	0	2	51200	1	51200	1	51200	1	0.7	51200	purple	turquoise	1	0	ml	2.7.3	lorasick	sub-02_ses-02_task-ml_proj-lorasick_2020-11-20-13-57-41.381163
216	2	2	5	217	stable	8	200	17	vs	purple	turquoise	turquoise	purple	right	left	0.30000000000000004	0.7	4	2	1.2000000000000002	1.4	1	0	0.7	0.30000000000000004	2	4	1.4	1.2000000000000002	invalid	0.3665869030010072	51200	0	0	2	51200	1	51200	1	53248	0	0.7	51200	purple	turquoise	0	0	ml	2.7.3	lorasick	sub-02_ses-02_task-ml_proj-lorasick_2020-11-20-13-57-41.381163
217	2	2	5	218	stable	8	200	18	vs	turquoise	purple	turquoise	purple	left	right	0.30000000000000004	0.7	2	4	0.6000000000000001	2.8	0	1	0.30000000000000004	0.7	2	4	0.6000000000000001	2.8	valid	0.4165663120002137	51200	0	0	1	53248	0	53248	0	53248	0	0.7	53248	purple	turquoise	1	0	ml	2.7.3	lorasick	sub-02_ses-02_task-ml_proj-lorasick_2020-11-20-13-57-41.381163
218	2	2	5	219	stable	8	200	19	vs	purple	turquoise	turquoise	purple	right	left	0.30000000000000004	0.7	2	2	0.6000000000000001	1.4	1	0	0.7	0.30000000000000004	2	2	1.4	0.6000000000000001	invalid	0.4665688649984077	53248	0	1	1	51200	0	51200	0	53248	1	0.7	51200	purple	turquoise	1	2	ml	2.7.3	lorasick	sub-02_ses-02_task-ml_proj-lorasick_2020-11-20-13-57-41.381163
219	2	2	5	220	stable	8	200	20	vs	purple	turquoise	turquoise	purple	right	left	0.30000000000000004	0.7	6	6	1.8000000000000005	4.199999999999998	0	1	0.7	0.30000000000000004	6	6	4.199999999999998	1.8000000000000005	valid	0.4998960209995858	53248	0	1	1	51200	0	51200	0	53248	1	0.7	51200	purple	turquoise	1	0	ml	2.7.3	lorasick	sub-02_ses-02_task-ml_proj-lorasick_2020-11-20-13-57-41.381163
220	2	2	5	221	stable	8	200	21	vs	purple	turquoise	turquoise	purple	right	left	0.30000000000000004	0.7	10	2	3.0000000000000004	1.4	1	0	0.7	0.30000000000000004	2	10	1.4	3.0000000000000004	invalid	0.28327820200138376	51200	0	0	2	53248	0	51200	1	53248	0	0.7	51200	purple	turquoise	0	0	ml	2.7.3	lorasick	sub-02_ses-02_task-ml_proj-lorasick_2020-11-20-13-57-41.381163
221	2	2	5	222	stable	8	200	22	vs	purple	turquoise	turquoise	purple	right	left	0.30000000000000004	0.7	10	2	3.0000000000000004	1.4	0	1	0.7	0.30000000000000004	2	10	1.4	3.0000000000000004	valid	0.3832606520008994	53248	0	1	1	53248	1	51200	0	53248	1	0.7	51200	purple	turquoise	0	0	ml	2.7.3	lorasick	sub-02_ses-02_task-ml_proj-lorasick_2020-11-20-13-57-41.381163
222	2	2	5	223	stable	8	200	23	vs	turquoise	purple	turquoise	purple	left	right	0.30000000000000004	0.7	6	2	1.8000000000000005	1.4	0	1	0.30000000000000004	0.7	6	2	1.8000000000000005	1.4	valid	0.9830857569977524	53248	0	1	2	51200	0	53248	1	51200	0	0.7	53248	purple	turquoise	0	2	ml	2.7.3	lorasick	sub-02_ses-02_task-ml_proj-lorasick_2020-11-20-13-57-41.381163
223	2	2	5	224	stable	8	200	24	vs	turquoise	purple	turquoise	purple	left	right	0.30000000000000004	0.7	6	6	1.8000000000000005	4.199999999999998	0	1	0.30000000000000004	0.7	6	6	1.8000000000000005	4.199999999999998	valid	0.5332162369995785	53248	0	1	2	53248	1	53248	1	53248	1	0.7	53248	purple	turquoise	0	6	ml	2.7.3	lorasick	sub-02_ses-02_task-ml_proj-lorasick_2020-11-20-13-57-41.381163
224	2	2	5	225	stable	8	200	25	vs	purple	turquoise	turquoise	purple	right	left	0.30000000000000004	0.7	6	2	1.8000000000000005	1.4	0	1	0.7	0.30000000000000004	2	6	1.4	1.8000000000000005	valid	0.349922607998451	51200	0	0	2	53248	0	51200	1	53248	0	0.7	51200	purple	turquoise	0	2	ml	2.7.3	lorasick	sub-02_ses-02_task-ml_proj-lorasick_2020-11-20-13-57-41.381163
225	2	2	5	226	stable	8	200	26	vs	purple	turquoise	turquoise	purple	right	left	0.30000000000000004	0.7	2	4	0.6000000000000001	2.8	1	0	0.7	0.30000000000000004	4	2	2.8	0.6000000000000001	invalid	0.4332397760008462	51200	0	0	2	51200	1	51200	1	51200	1	0.7	51200	purple	turquoise	1	0	ml	2.7.3	lorasick	sub-02_ses-02_task-ml_proj-lorasick_2020-11-20-13-57-41.381163
226	2	2	5	227	stable	8	200	27	vs	turquoise	purple	turquoise	purple	left	right	0.30000000000000004	0.7	6	2	1.8000000000000005	1.4	0	1	0.30000000000000004	0.7	6	2	1.8000000000000005	1.4	valid	0.5498786449970794	53248	0	1	2	51200	0	53248	1	51200	0	0.7	53248	purple	turquoise	0	2	ml	2.7.3	lorasick	sub-02_ses-02_task-ml_proj-lorasick_2020-11-20-13-57-41.381163
227	2	2	5	228	stable	8	200	28	vs	turquoise	purple	turquoise	purple	left	right	0.30000000000000004	0.7	4	6	1.2000000000000002	4.199999999999998	1	0	0.30000000000000004	0.7	4	6	1.2000000000000002	4.199999999999998	invalid	0.43324438899799134	53248	0	1	2	53248	1	53248	1	53248	1	0.7	53248	purple	turquoise	1	0	ml	2.7.3	lorasick	sub-02_ses-02_task-ml_proj-lorasick_2020-11-20-13-57-41.381163
228	2	2	5	229	stable	8	200	29	vs	purple	turquoise	turquoise	purple	right	left	0.30000000000000004	0.7	6	2	1.8000000000000005	1.4	0	1	0.7	0.30000000000000004	2	6	1.4	1.8000000000000005	valid	0.41658508199907374	53248	0	1	1	53248	1	51200	0	53248	1	0.7	51200	purple	turquoise	0	0	ml	2.7.3	lorasick	sub-02_ses-02_task-ml_proj-lorasick_2020-11-20-13-57-41.381163
229	2	2	5	230	stable	8	200	30	vs	purple	turquoise	turquoise	purple	right	left	0.30000000000000004	0.7	4	2	1.2000000000000002	1.4	1	0	0.7	0.30000000000000004	2	4	1.4	1.2000000000000002	invalid	0.5332134130003396	53248	0	1	1	51200	0	51200	0	53248	1	0.7	51200	purple	turquoise	0	4	ml	2.7.3	lorasick	sub-02_ses-02_task-ml_proj-lorasick_2020-11-20-13-57-41.381163
230	2	2	5	231	stable	8	200	31	vs	turquoise	purple	turquoise	purple	left	right	0.30000000000000004	0.7	2	2	0.6000000000000001	1.4	0	1	0.30000000000000004	0.7	2	2	0.6000000000000001	1.4	valid	0.38324810800259	51200	0	0	1	53248	0	53248	0	53248	0	0.7	53248	purple	turquoise	0	0	ml	2.7.3	lorasick	sub-02_ses-02_task-ml_proj-lorasick_2020-11-20-13-57-41.381163
231	2	2	5	232	stable	8	200	32	vs	turquoise	purple	turquoise	purple	left	right	0.30000000000000004	0.7	10	2	3.0000000000000004	1.4	0	1	0.30000000000000004	0.7	10	2	3.0000000000000004	1.4	valid	0.5165542510003434	53248	0	1	2	51200	0	53248	1	51200	0	0.7	53248	purple	turquoise	0	2	ml	2.7.3	lorasick	sub-02_ses-02_task-ml_proj-lorasick_2020-11-20-13-57-41.381163
232	2	2	5	233	stable	8	200	33	vs	turquoise	purple	turquoise	purple	left	right	0.30000000000000004	0.7	2	2	0.6000000000000001	1.4	0	1	0.30000000000000004	0.7	2	2	0.6000000000000001	1.4	valid	0.4332423870000639	53248	0	1	2	53248	1	53248	1	53248	1	0.7	53248	purple	turquoise	0	2	ml	2.7.3	lorasick	sub-02_ses-02_task-ml_proj-lorasick_2020-11-20-13-57-41.381163
233	2	2	5	234	stable	8	200	34	vs	turquoise	purple	turquoise	purple	left	right	0.30000000000000004	0.7	4	2	1.2000000000000002	1.4	0	1	0.30000000000000004	0.7	4	2	1.2000000000000002	1.4	valid	1.0330759640019096	53248	0	1	2	53248	1	53248	1	51200	0	0.7	53248	purple	turquoise	0	2	ml	2.7.3	lorasick	sub-02_ses-02_task-ml_proj-lorasick_2020-11-20-13-57-41.381163
234	2	2	5	235	stable	8	200	35	vs	turquoise	purple	turquoise	purple	left	right	0.30000000000000004	0.7	2	10	0.6000000000000001	7.0	0	1	0.30000000000000004	0.7	2	10	0.6000000000000001	7.0	valid	0.6831752130019595	53248	0	1	2	53248	1	53248	1	53248	1	0.7	53248	purple	turquoise	1	10	ml	2.7.3	lorasick	sub-02_ses-02_task-ml_proj-lorasick_2020-11-20-13-57-41.381163
235	2	2	5	236	stable	8	200	36	vs	turquoise	purple	turquoise	purple	left	right	0.30000000000000004	0.7	4	2	1.2000000000000002	1.4	0	1	0.30000000000000004	0.7	4	2	1.2000000000000002	1.4	valid	0.6498485210031504	53248	0	1	2	53248	1	53248	1	51200	0	0.7	53248	purple	turquoise	0	2	ml	2.7.3	lorasick	sub-02_ses-02_task-ml_proj-lorasick_2020-11-20-13-57-41.381163
236	2	2	5	237	stable	8	200	37	vs	purple	turquoise	turquoise	purple	right	left	0.30000000000000004	0.7	2	2	0.6000000000000001	1.4	0	1	0.7	0.30000000000000004	2	2	1.4	0.6000000000000001	valid	0.7831347549981729	51200	0	0	2	51200	1	51200	1	53248	0	0.7	51200	purple	turquoise	1	2	ml	2.7.3	lorasick	sub-02_ses-02_task-ml_proj-lorasick_2020-11-20-13-57-41.381163
237	2	2	5	238	stable	8	200	38	vs	turquoise	purple	turquoise	purple	left	right	0.30000000000000004	0.7	4	6	1.2000000000000002	4.199999999999998	1	0	0.30000000000000004	0.7	4	6	1.2000000000000002	4.199999999999998	invalid	0.6331857730001502	53248	0	1	2	53248	1	53248	1	53248	1	0.7	53248	purple	turquoise	1	0	ml	2.7.3	lorasick	sub-02_ses-02_task-ml_proj-lorasick_2020-11-20-13-57-41.381163
238	2	2	5	239	stable	8	200	39	vs	turquoise	purple	turquoise	purple	left	right	0.30000000000000004	0.7	4	2	1.2000000000000002	1.4	1	0	0.30000000000000004	0.7	4	2	1.2000000000000002	1.4	invalid	0.5998617629993532	53248	0	1	2	53248	1	53248	1	51200	0	0.7	53248	purple	turquoise	0	0	ml	2.7.3	lorasick	sub-02_ses-02_task-ml_proj-lorasick_2020-11-20-13-57-41.381163
239	2	2	5	240	stable	8	200	40	vs	purple	turquoise	turquoise	purple	right	left	0.30000000000000004	0.7	6	6	1.8000000000000005	4.199999999999998	1	0	0.7	0.30000000000000004	6	6	4.199999999999998	1.8000000000000005	invalid	0.05001240300043719	51200	0	0	2	51200	1	51200	1	53248	0	0.7	51200	purple	turquoise	1	0	ml	2.7.3	lorasick	sub-02_ses-02_task-ml_proj-lorasick_2020-11-20-13-57-41.381163
240	2	2	5	241	stable	8	200	41	vs	turquoise	purple	turquoise	purple	left	right	0.30000000000000004	0.7	6	6	1.8000000000000005	4.199999999999998	0	1	0.30000000000000004	0.7	6	6	1.8000000000000005	4.199999999999998	valid	0.28328597899962915	51200	0	0	1	53248	0	53248	0	53248	0	0.7	53248	purple	turquoise	0	0	ml	2.7.3	lorasick	sub-02_ses-02_task-ml_proj-lorasick_2020-11-20-13-57-41.381163
241	2	2	5	242	stable	8	200	42	vs	turquoise	purple	turquoise	purple	left	right	0.30000000000000004	0.7	2	10	0.6000000000000001	7.0	0	1	0.30000000000000004	0.7	2	10	0.6000000000000001	7.0	valid	0.3665968060013256	53248	0	1	2	53248	1	53248	1	53248	1	0.7	53248	purple	turquoise	1	10	ml	2.7.3	lorasick	sub-02_ses-02_task-ml_proj-lorasick_2020-11-20-13-57-41.381163
242	2	2	5	243	stable	8	200	43	vs	turquoise	purple	turquoise	purple	left	right	0.30000000000000004	0.7	6	6	1.8000000000000005	4.199999999999998	0	1	0.30000000000000004	0.7	6	6	1.8000000000000005	4.199999999999998	valid	0.5498760320006113	53248	0	1	2	53248	1	53248	1	53248	1	0.7	53248	purple	turquoise	0	6	ml	2.7.3	lorasick	sub-02_ses-02_task-ml_proj-lorasick_2020-11-20-13-57-41.381163
243	2	2	5	244	stable	8	200	44	vs	purple	turquoise	turquoise	purple	right	left	0.30000000000000004	0.7	6	4	1.8000000000000005	2.8	0	1	0.7	0.30000000000000004	4	6	2.8	1.8000000000000005	valid	0.399908121999033	51200	0	0	2	51200	1	51200	1	53248	0	0.7	51200	purple	turquoise	0	4	ml	2.7.3	lorasick	sub-02_ses-02_task-ml_proj-lorasick_2020-11-20-13-57-41.381163
244	2	2	5	245	stable	8	200	45	vs	turquoise	purple	turquoise	purple	left	right	0.30000000000000004	0.7	2	10	0.6000000000000001	7.0	0	1	0.30000000000000004	0.7	2	10	0.6000000000000001	7.0	valid	0.4498976570030209	53248	0	1	2	53248	1	53248	1	53248	1	0.7	53248	purple	turquoise	1	10	ml	2.7.3	lorasick	sub-02_ses-02_task-ml_proj-lorasick_2020-11-20-13-57-41.381163
245	2	2	5	246	stable	8	200	46	vs	turquoise	purple	turquoise	purple	left	right	0.30000000000000004	0.7	2	4	0.6000000000000001	2.8	0	1	0.30000000000000004	0.7	2	4	0.6000000000000001	2.8	valid	0.4665532949984481	51200	0	0	1	53248	0	53248	0	53248	0	0.7	53248	purple	turquoise	1	0	ml	2.7.3	lorasick	sub-02_ses-02_task-ml_proj-lorasick_2020-11-20-13-57-41.381163
246	2	2	5	247	stable	8	200	47	vs	purple	turquoise	turquoise	purple	right	left	0.30000000000000004	0.7	4	6	1.2000000000000002	4.199999999999998	1	0	0.7	0.30000000000000004	6	4	4.199999999999998	1.2000000000000002	invalid	0.4998913710005581	53248	0	1	1	51200	0	51200	0	51200	0	0.7	51200	purple	turquoise	1	4	ml	2.7.3	lorasick	sub-02_ses-02_task-ml_proj-lorasick_2020-11-20-13-57-41.381163
247	2	2	5	248	stable	8	200	48	vs	turquoise	purple	turquoise	purple	left	right	0.30000000000000004	0.7	6	2	1.8000000000000005	1.4	1	0	0.30000000000000004	0.7	6	2	1.8000000000000005	1.4	invalid	0.4665573800011771	51200	0	0	1	51200	1	53248	0	51200	1	0.7	53248	purple	turquoise	0	6	ml	2.7.3	lorasick	sub-02_ses-02_task-ml_proj-lorasick_2020-11-20-13-57-41.381163
248	2	2	5	249	stable	8	200	49	vs	turquoise	purple	turquoise	purple	left	right	0.30000000000000004	0.7	6	4	1.8000000000000005	2.8	1	0	0.30000000000000004	0.7	6	4	1.8000000000000005	2.8	invalid	0.5165357389996643	51200	0	0	1	53248	0	53248	0	51200	1	0.7	53248	purple	turquoise	0	6	ml	2.7.3	lorasick	sub-02_ses-02_task-ml_proj-lorasick_2020-11-20-13-57-41.381163
249	2	2	5	250	stable	8	200	50	vs	purple	turquoise	turquoise	purple	right	left	0.30000000000000004	0.7	10	2	3.0000000000000004	1.4	0	1	0.7	0.30000000000000004	2	10	1.4	3.0000000000000004	valid	0.3332754639995983	53248	0	1	1	53248	1	51200	0	53248	1	0.7	51200	purple	turquoise	0	0	ml	2.7.3	lorasick	sub-02_ses-02_task-ml_proj-lorasick_2020-11-20-13-57-41.381163
250	2	2	6	251	stable	8	200	51	vs	purple	turquoise	turquoise	purple	right	left	0.30000000000000004	0.7	2	6	0.6000000000000001	4.199999999999998	1	0	0.7	0.30000000000000004	6	2	4.199999999999998	0.6000000000000001	invalid	0.5165432739995595	51200	0	0	2	51200	1	51200	1	51200	1	0.7	51200	purple	turquoise	1	0	ml	2.7.3	lorasick	sub-02_ses-02_task-ml_proj-lorasick_2020-11-20-13-57-41.381163
251	2	2	6	252	stable	8	200	52	vs	turquoise	purple	turquoise	purple	left	right	0.30000000000000004	0.7	10	2	3.0000000000000004	1.4	1	0	0.30000000000000004	0.7	10	2	3.0000000000000004	1.4	invalid	0.4165738189985859	51200	0	0	1	51200	1	53248	0	51200	1	0.7	53248	purple	turquoise	0	10	ml	2.7.3	lorasick	sub-02_ses-02_task-ml_proj-lorasick_2020-11-20-13-57-41.381163
252	2	2	6	253	stable	8	200	53	vs	purple	turquoise	turquoise	purple	right	left	0.30000000000000004	0.7	2	4	0.6000000000000001	2.8	0	1	0.7	0.30000000000000004	4	2	2.8	0.6000000000000001	valid	0.6665113820017723	53248	0	1	1	51200	0	51200	0	51200	0	0.7	51200	purple	turquoise	1	0	ml	2.7.3	lorasick	sub-02_ses-02_task-ml_proj-lorasick_2020-11-20-13-57-41.381163
253	2	2	6	254	stable	8	200	54	vs	turquoise	purple	turquoise	purple	left	right	0.30000000000000004	0.7	2	2	0.6000000000000001	1.4	0	1	0.30000000000000004	0.7	2	2	0.6000000000000001	1.4	valid	0.333266622001247	51200	0	0	1	53248	0	53248	0	53248	0	0.7	53248	purple	turquoise	0	0	ml	2.7.3	lorasick	sub-02_ses-02_task-ml_proj-lorasick_2020-11-20-13-57-41.381163
254	2	2	6	255	stable	8	200	55	vs	turquoise	purple	turquoise	purple	left	right	0.30000000000000004	0.7	4	2	1.2000000000000002	1.4	0	1	0.30000000000000004	0.7	4	2	1.2000000000000002	1.4	valid	0.3999218139979348	53248	0	1	2	53248	1	53248	1	51200	0	0.7	53248	purple	turquoise	0	2	ml	2.7.3	lorasick	sub-02_ses-02_task-ml_proj-lorasick_2020-11-20-13-57-41.381163
255	2	2	6	256	stable	8	200	56	vs	turquoise	purple	turquoise	purple	left	right	0.30000000000000004	0.7	2	6	0.6000000000000001	4.199999999999998	0	1	0.30000000000000004	0.7	2	6	0.6000000000000001	4.199999999999998	valid	0.4165846440009773	53248	0	1	2	53248	1	53248	1	53248	1	0.7	53248	purple	turquoise	1	6	ml	2.7.3	lorasick	sub-02_ses-02_task-ml_proj-lorasick_2020-11-20-13-57-41.381163
256	2	2	6	257	stable	8	200	57	vs	turquoise	purple	turquoise	purple	left	right	0.30000000000000004	0.7	6	4	1.8000000000000005	2.8	1	0	0.30000000000000004	0.7	6	4	1.8000000000000005	2.8	invalid	0.5498798299995542	53248	0	1	2	53248	1	53248	1	51200	0	0.7	53248	purple	turquoise	0	0	ml	2.7.3	lorasick	sub-02_ses-02_task-ml_proj-lorasick_2020-11-20-13-57-41.381163
257	2	2	6	258	stable	8	200	58	vs	turquoise	purple	turquoise	purple	left	right	0.30000000000000004	0.7	2	10	0.6000000000000001	7.0	1	0	0.30000000000000004	0.7	2	10	0.6000000000000001	7.0	invalid	0.4998838639985479	53248	0	1	2	53248	1	53248	1	53248	1	0.7	53248	purple	turquoise	1	0	ml	2.7.3	lorasick	sub-02_ses-02_task-ml_proj-lorasick_2020-11-20-13-57-41.381163
258	2	2	6	259	stable	8	200	59	vs	turquoise	purple	turquoise	purple	left	right	0.30000000000000004	0.7	2	4	0.6000000000000001	2.8	1	0	0.30000000000000004	0.7	2	4	0.6000000000000001	2.8	invalid	0.5332149050009319	53248	0	1	2	53248	1	53248	1	53248	1	0.7	53248	purple	turquoise	1	0	ml	2.7.3	lorasick	sub-02_ses-02_task-ml_proj-lorasick_2020-11-20-13-57-41.381163
259	2	2	6	260	stable	8	200	60	vs	purple	turquoise	turquoise	purple	right	left	0.30000000000000004	0.7	4	6	1.2000000000000002	4.199999999999998	1	0	0.7	0.30000000000000004	6	4	4.199999999999998	1.2000000000000002	invalid	0.3999153360018681	51200	0	0	2	51200	1	51200	1	51200	1	0.7	51200	purple	turquoise	1	0	ml	2.7.3	lorasick	sub-02_ses-02_task-ml_proj-lorasick_2020-11-20-13-57-41.381163
260	2	2	6	261	stable	8	200	61	vs	turquoise	purple	turquoise	purple	left	right	0.30000000000000004	0.7	4	6	1.2000000000000002	4.199999999999998	0	1	0.30000000000000004	0.7	4	6	1.2000000000000002	4.199999999999998	valid	0.4165721860008489	51200	0	0	1	53248	0	53248	0	53248	0	0.7	53248	purple	turquoise	1	0	ml	2.7.3	lorasick	sub-02_ses-02_task-ml_proj-lorasick_2020-11-20-13-57-41.381163
261	2	2	6	262	stable	8	200	62	vs	turquoise	purple	turquoise	purple	left	right	0.30000000000000004	0.7	2	6	0.6000000000000001	4.199999999999998	1	0	0.30000000000000004	0.7	2	6	0.6000000000000001	4.199999999999998	invalid	0.4998910100002831	53248	0	1	2	53248	1	53248	1	53248	1	0.7	53248	purple	turquoise	1	0	ml	2.7.3	lorasick	sub-02_ses-02_task-ml_proj-lorasick_2020-11-20-13-57-41.381163
262	2	2	6	263	stable	8	200	63	vs	purple	turquoise	turquoise	purple	right	left	0.30000000000000004	0.7	6	4	1.8000000000000005	2.8	0	1	0.7	0.30000000000000004	4	6	2.8	1.8000000000000005	valid	0.34992484699978377	51200	0	0	2	51200	1	51200	1	53248	0	0.7	51200	purple	turquoise	0	4	ml	2.7.3	lorasick	sub-02_ses-02_task-ml_proj-lorasick_2020-11-20-13-57-41.381163
263	2	2	6	264	stable	8	200	64	vs	purple	turquoise	turquoise	purple	right	left	0.30000000000000004	0.7	4	2	1.2000000000000002	1.4	1	0	0.7	0.30000000000000004	2	4	1.4	1.2000000000000002	invalid	0.4332311590005702	51200	0	0	2	51200	1	51200	1	53248	0	0.7	51200	purple	turquoise	0	0	ml	2.7.3	lorasick	sub-02_ses-02_task-ml_proj-lorasick_2020-11-20-13-57-41.381163
264	2	2	6	265	stable	8	200	65	vs	purple	turquoise	turquoise	purple	right	left	0.30000000000000004	0.7	2	10	0.6000000000000001	7.0	0	1	0.7	0.30000000000000004	10	2	7.0	0.6000000000000001	valid	0.3832543360003911	51200	0	0	2	51200	1	51200	1	51200	1	0.7	51200	purple	turquoise	1	10	ml	2.7.3	lorasick	sub-02_ses-02_task-ml_proj-lorasick_2020-11-20-13-57-41.381163
265	2	2	6	266	stable	8	200	66	vs	turquoise	purple	turquoise	purple	left	right	0.30000000000000004	0.7	2	6	0.6000000000000001	4.199999999999998	0	1	0.30000000000000004	0.7	2	6	0.6000000000000001	4.199999999999998	valid	0.6331749700002547	51200	0	0	1	53248	0	53248	0	53248	0	0.7	53248	purple	turquoise	1	0	ml	2.7.3	lorasick	sub-02_ses-02_task-ml_proj-lorasick_2020-11-20-13-57-41.381163
266	2	2	6	267	stable	8	200	67	vs	purple	turquoise	turquoise	purple	right	left	0.30000000000000004	0.7	2	6	0.6000000000000001	4.199999999999998	0	1	0.7	0.30000000000000004	6	2	4.199999999999998	0.6000000000000001	valid	0.5165411109992419	51200	0	0	2	51200	1	51200	1	51200	1	0.7	51200	purple	turquoise	1	6	ml	2.7.3	lorasick	sub-02_ses-02_task-ml_proj-lorasick_2020-11-20-13-57-41.381163
267	2	2	6	268	stable	8	200	68	vs	turquoise	purple	turquoise	purple	left	right	0.30000000000000004	0.7	10	2	3.0000000000000004	1.4	1	0	0.30000000000000004	0.7	10	2	3.0000000000000004	1.4	invalid	0.5165519740003219	53248	0	1	2	51200	0	53248	1	51200	0	0.7	53248	purple	turquoise	0	0	ml	2.7.3	lorasick	sub-02_ses-02_task-ml_proj-lorasick_2020-11-20-13-57-41.381163
268	2	2	6	269	stable	8	200	69	vs	purple	turquoise	turquoise	purple	right	left	0.30000000000000004	0.7	6	2	1.8000000000000005	1.4	1	0	0.7	0.30000000000000004	2	6	1.4	1.8000000000000005	invalid	0.3165993719994731	51200	0	0	2	53248	0	51200	1	53248	0	0.7	51200	purple	turquoise	0	0	ml	2.7.3	lorasick	sub-02_ses-02_task-ml_proj-lorasick_2020-11-20-13-57-41.381163
269	2	2	6	270	stable	8	200	70	vs	purple	turquoise	turquoise	purple	right	left	0.30000000000000004	0.7	4	6	1.2000000000000002	4.199999999999998	0	1	0.7	0.30000000000000004	6	4	4.199999999999998	1.2000000000000002	valid	0.3832555380031408	51200	0	0	2	51200	1	51200	1	51200	1	0.7	51200	purple	turquoise	1	6	ml	2.7.3	lorasick	sub-02_ses-02_task-ml_proj-lorasick_2020-11-20-13-57-41.381163
270	2	2	6	271	stable	8	200	71	vs	purple	turquoise	turquoise	purple	right	left	0.30000000000000004	0.7	2	6	0.6000000000000001	4.199999999999998	0	1	0.7	0.30000000000000004	6	2	4.199999999999998	0.6000000000000001	valid	0.6998319600024843	53248	0	1	1	51200	0	51200	0	51200	0	0.7	51200	purple	turquoise	1	0	ml	2.7.3	lorasick	sub-02_ses-02_task-ml_proj-lorasick_2020-11-20-13-57-41.381163
