Unnamed: 0	sub_id	ses_id	block_no	trial_no	phase_type	phase_no	phase_length	trialInPhase_no	phase_type_order	color_left	color_right	color1	color2	position1	position2	prob1	prob2	mag1	mag2	ev1	ev2	outcome1	outcome2	prob_left	prob_right	mag_left	mag_right	ev_left	ev_right	reward_validity	resp_time	resp_key	timeout	choice_side	choice	ev_corr_resp	ev_correct	prob_corr_resp	prob_correct	mag_corr_resp	mag_correct	high_prob	high_prob_side	high_prob_color	low_prob_color	no_brain	reward	name	version	proj_id	logFileID
0	7	2	1	1	stable	1	200	1	sv	green	brown	green	brown	left	right	0.7	0.30000000000000004	10	2	7.0	0.6000000000000001	0	1	0.7	0.30000000000000004	10	2	7.0	0.6000000000000001	invalid	0.8331163839975488	51200.0	0	0.0	1.0	51200	1	51200	1	51200	1	0.7	51200	green	brown	1	0	ml	2.7.3	lorasick	sub-07_ses-02_task-ml_proj-lorasick_2021-01-20-13-49-02.432843
1	7	2	1	2	stable	1	200	2	sv	green	brown	green	brown	left	right	0.7	0.30000000000000004	10	2	7.0	0.6000000000000001	0	1	0.7	0.30000000000000004	10	2	7.0	0.6000000000000001	invalid	0.4498937739990652	51200.0	0	0.0	1.0	51200	1	51200	1	51200	1	0.7	51200	green	brown	1	0	ml	2.7.3	lorasick	sub-07_ses-02_task-ml_proj-lorasick_2021-01-20-13-49-02.432843
2	7	2	1	3	stable	1	200	3	sv	green	brown	green	brown	left	right	0.7	0.30000000000000004	2	2	1.4	0.6000000000000001	1	0	0.7	0.30000000000000004	2	2	1.4	0.6000000000000001	valid	0.449915516001056	53248.0	0	1.0	2.0	51200	0	51200	0	53248	1	0.7	51200	green	brown	1	0	ml	2.7.3	lorasick	sub-07_ses-02_task-ml_proj-lorasick_2021-01-20-13-49-02.432843
3	7	2	1	4	stable	1	200	4	sv	green	brown	green	brown	left	right	0.7	0.30000000000000004	2	2	1.4	0.6000000000000001	1	0	0.7	0.30000000000000004	2	2	1.4	0.6000000000000001	valid	0.4332635169994319	53248.0	0	1.0	2.0	51200	0	51200	0	53248	1	0.7	51200	green	brown	1	0	ml	2.7.3	lorasick	sub-07_ses-02_task-ml_proj-lorasick_2021-01-20-13-49-02.432843
4	7	2	1	5	stable	1	200	5	sv	green	brown	green	brown	left	right	0.7	0.30000000000000004	6	2	4.199999999999998	0.6000000000000001	1	0	0.7	0.30000000000000004	6	2	4.199999999999998	0.6000000000000001	valid	0.5332045559989638	51200.0	0	0.0	1.0	51200	1	51200	1	51200	1	0.7	51200	green	brown	1	6	ml	2.7.3	lorasick	sub-07_ses-02_task-ml_proj-lorasick_2021-01-20-13-49-02.432843
5	7	2	1	6	stable	1	200	6	sv	brown	green	green	brown	right	left	0.7	0.30000000000000004	4	2	2.8	0.6000000000000001	1	0	0.30000000000000004	0.7	2	4	0.6000000000000001	2.8	valid	0.4665686299995286	53248.0	0	1.0	1.0	53248	1	53248	1	53248	1	0.7	53248	green	brown	1	4	ml	2.7.3	lorasick	sub-07_ses-02_task-ml_proj-lorasick_2021-01-20-13-49-02.432843
6	7	2	1	7	stable	1	200	7	sv	green	brown	green	brown	left	right	0.7	0.30000000000000004	6	6	4.199999999999998	1.8000000000000005	1	0	0.7	0.30000000000000004	6	6	4.199999999999998	1.8000000000000005	valid	0.5498642150014348	51200.0	0	0.0	1.0	51200	1	51200	1	53248	0	0.7	51200	green	brown	1	6	ml	2.7.3	lorasick	sub-07_ses-02_task-ml_proj-lorasick_2021-01-20-13-49-02.432843
7	7	2	1	8	stable	1	200	8	sv	brown	green	green	brown	right	left	0.7	0.30000000000000004	2	2	1.4	0.6000000000000001	1	0	0.30000000000000004	0.7	2	2	0.6000000000000001	1.4	valid	0.4832298420005827	53248.0	0	1.0	1.0	53248	1	53248	1	53248	1	0.7	53248	green	brown	0	2	ml	2.7.3	lorasick	sub-07_ses-02_task-ml_proj-lorasick_2021-01-20-13-49-02.432843
8	7	2	1	9	stable	1	200	9	sv	green	brown	green	brown	left	right	0.7	0.30000000000000004	2	6	1.4	1.8000000000000005	0	1	0.7	0.30000000000000004	2	6	1.4	1.8000000000000005	invalid	0.4665565880022768	51200.0	0	0.0	1.0	53248	0	51200	1	53248	0	0.7	51200	green	brown	0	0	ml	2.7.3	lorasick	sub-07_ses-02_task-ml_proj-lorasick_2021-01-20-13-49-02.432843
9	7	2	1	10	stable	1	200	10	sv	brown	green	green	brown	right	left	0.7	0.30000000000000004	2	6	1.4	1.8000000000000005	0	1	0.30000000000000004	0.7	6	2	1.8000000000000005	1.4	invalid	0.6165240810005344	53248.0	0	1.0	1.0	51200	0	53248	1	51200	0	0.7	53248	green	brown	0	0	ml	2.7.3	lorasick	sub-07_ses-02_task-ml_proj-lorasick_2021-01-20-13-49-02.432843
10	7	2	1	11	stable	1	200	11	sv	green	brown	green	brown	left	right	0.7	0.30000000000000004	4	2	2.8	0.6000000000000001	1	0	0.7	0.30000000000000004	4	2	2.8	0.6000000000000001	valid	0.866438367000228	51200.0	0	0.0	1.0	51200	1	51200	1	51200	1	0.7	51200	green	brown	1	4	ml	2.7.3	lorasick	sub-07_ses-02_task-ml_proj-lorasick_2021-01-20-13-49-02.432843
11	7	2	1	12	stable	1	200	12	sv	brown	green	green	brown	right	left	0.7	0.30000000000000004	10	2	7.0	0.6000000000000001	1	0	0.30000000000000004	0.7	2	10	0.6000000000000001	7.0	valid	0.399923580000177	53248.0	0	1.0	1.0	53248	1	53248	1	53248	1	0.7	53248	green	brown	1	10	ml	2.7.3	lorasick	sub-07_ses-02_task-ml_proj-lorasick_2021-01-20-13-49-02.432843
12	7	2	1	13	stable	1	200	13	sv	brown	green	green	brown	right	left	0.7	0.30000000000000004	6	6	4.199999999999998	1.8000000000000005	1	0	0.30000000000000004	0.7	6	6	1.8000000000000005	4.199999999999998	valid	0.5998618960002204	53248.0	0	1.0	1.0	53248	1	53248	1	53248	1	0.7	53248	green	brown	0	6	ml	2.7.3	lorasick	sub-07_ses-02_task-ml_proj-lorasick_2021-01-20-13-49-02.432843
13	7	2	1	14	stable	1	200	14	sv	green	brown	green	brown	left	right	0.7	0.30000000000000004	2	2	1.4	0.6000000000000001	0	1	0.7	0.30000000000000004	2	2	1.4	0.6000000000000001	invalid	0.4665555300016422	51200.0	0	0.0	1.0	51200	1	51200	1	53248	0	0.7	51200	green	brown	1	0	ml	2.7.3	lorasick	sub-07_ses-02_task-ml_proj-lorasick_2021-01-20-13-49-02.432843
14	7	2	1	15	stable	1	200	15	sv	brown	green	green	brown	right	left	0.7	0.30000000000000004	4	6	2.8	1.8000000000000005	0	1	0.30000000000000004	0.7	6	4	1.8000000000000005	2.8	invalid	0.3665979819998029	53248.0	0	1.0	1.0	53248	1	53248	1	51200	0	0.7	53248	green	brown	0	0	ml	2.7.3	lorasick	sub-07_ses-02_task-ml_proj-lorasick_2021-01-20-13-49-02.432843
15	7	2	1	16	stable	1	200	16	sv	green	brown	green	brown	left	right	0.7	0.30000000000000004	6	4	4.199999999999998	1.2000000000000002	1	0	0.7	0.30000000000000004	6	4	4.199999999999998	1.2000000000000002	valid	0.4832304190022114	53248.0	0	1.0	2.0	51200	0	51200	0	51200	0	0.7	51200	green	brown	1	0	ml	2.7.3	lorasick	sub-07_ses-02_task-ml_proj-lorasick_2021-01-20-13-49-02.432843
16	7	2	1	17	stable	1	200	17	sv	brown	green	green	brown	right	left	0.7	0.30000000000000004	4	2	2.8	0.6000000000000001	1	0	0.30000000000000004	0.7	2	4	0.6000000000000001	2.8	valid	0.4998938819990144	53248.0	0	1.0	1.0	53248	1	53248	1	53248	1	0.7	53248	green	brown	1	4	ml	2.7.3	lorasick	sub-07_ses-02_task-ml_proj-lorasick_2021-01-20-13-49-02.432843
17	7	2	1	18	stable	1	200	18	sv	brown	green	green	brown	right	left	0.7	0.30000000000000004	4	2	2.8	0.6000000000000001	0	1	0.30000000000000004	0.7	2	4	0.6000000000000001	2.8	invalid	0.5165526529999624	53248.0	0	1.0	1.0	53248	1	53248	1	53248	1	0.7	53248	green	brown	1	0	ml	2.7.3	lorasick	sub-07_ses-02_task-ml_proj-lorasick_2021-01-20-13-49-02.432843
18	7	2	1	19	stable	1	200	19	sv	green	brown	green	brown	left	right	0.7	0.30000000000000004	2	2	1.4	0.6000000000000001	0	1	0.7	0.30000000000000004	2	2	1.4	0.6000000000000001	invalid	0.5165538870023738	53248.0	0	1.0	2.0	51200	0	51200	0	53248	1	0.7	51200	green	brown	1	2	ml	2.7.3	lorasick	sub-07_ses-02_task-ml_proj-lorasick_2021-01-20-13-49-02.432843
19	7	2	1	20	stable	1	200	20	sv	green	brown	green	brown	left	right	0.7	0.30000000000000004	6	4	4.199999999999998	1.2000000000000002	1	0	0.7	0.30000000000000004	6	4	4.199999999999998	1.2000000000000002	valid	0.3665963640014525	53248.0	0	1.0	2.0	51200	0	51200	0	51200	0	0.7	51200	green	brown	1	0	ml	2.7.3	lorasick	sub-07_ses-02_task-ml_proj-lorasick_2021-01-20-13-49-02.432843
20	7	2	1	21	stable	1	200	21	sv	green	brown	green	brown	left	right	0.7	0.30000000000000004	4	6	2.8	1.8000000000000005	1	0	0.7	0.30000000000000004	4	6	2.8	1.8000000000000005	valid	0.8164550500005134	51200.0	0	0.0	1.0	51200	1	51200	1	53248	0	0.7	51200	green	brown	0	4	ml	2.7.3	lorasick	sub-07_ses-02_task-ml_proj-lorasick_2021-01-20-13-49-02.432843
21	7	2	1	22	stable	1	200	22	sv	brown	green	green	brown	right	left	0.7	0.30000000000000004	4	2	2.8	0.6000000000000001	1	0	0.30000000000000004	0.7	2	4	0.6000000000000001	2.8	valid	0.6331886869993468	53248.0	0	1.0	1.0	53248	1	53248	1	53248	1	0.7	53248	green	brown	1	4	ml	2.7.3	lorasick	sub-07_ses-02_task-ml_proj-lorasick_2021-01-20-13-49-02.432843
22	7	2	1	23	stable	1	200	23	sv	brown	green	green	brown	right	left	0.7	0.30000000000000004	10	2	7.0	0.6000000000000001	1	0	0.30000000000000004	0.7	2	10	0.6000000000000001	7.0	valid	0.4332457970012911	53248.0	0	1.0	1.0	53248	1	53248	1	53248	1	0.7	53248	green	brown	1	10	ml	2.7.3	lorasick	sub-07_ses-02_task-ml_proj-lorasick_2021-01-20-13-49-02.432843
23	7	2	1	24	stable	1	200	24	sv	brown	green	green	brown	right	left	0.7	0.30000000000000004	6	4	4.199999999999998	1.2000000000000002	0	1	0.30000000000000004	0.7	4	6	1.2000000000000002	4.199999999999998	invalid	0.5998665820006863	53248.0	0	1.0	1.0	53248	1	53248	1	53248	1	0.7	53248	green	brown	1	0	ml	2.7.3	lorasick	sub-07_ses-02_task-ml_proj-lorasick_2021-01-20-13-49-02.432843
24	7	2	1	25	stable	1	200	25	sv	brown	green	green	brown	right	left	0.7	0.30000000000000004	10	2	7.0	0.6000000000000001	0	1	0.30000000000000004	0.7	2	10	0.6000000000000001	7.0	invalid	1.1163807209995866	53248.0	0	1.0	1.0	53248	1	53248	1	53248	1	0.7	53248	green	brown	1	0	ml	2.7.3	lorasick	sub-07_ses-02_task-ml_proj-lorasick_2021-01-20-13-49-02.432843
25	7	2	1	26	stable	1	200	26	sv	green	brown	green	brown	left	right	0.7	0.30000000000000004	2	6	1.4	1.8000000000000005	1	0	0.7	0.30000000000000004	2	6	1.4	1.8000000000000005	valid	0.6331883180027944	53248.0	0	1.0	2.0	53248	1	51200	0	53248	1	0.7	51200	green	brown	0	0	ml	2.7.3	lorasick	sub-07_ses-02_task-ml_proj-lorasick_2021-01-20-13-49-02.432843
26	7	2	1	27	stable	1	200	27	sv	brown	green	green	brown	right	left	0.7	0.30000000000000004	2	6	1.4	1.8000000000000005	1	0	0.30000000000000004	0.7	6	2	1.8000000000000005	1.4	valid	0.5498771240017959	53248.0	0	1.0	1.0	51200	0	53248	1	51200	0	0.7	53248	green	brown	0	2	ml	2.7.3	lorasick	sub-07_ses-02_task-ml_proj-lorasick_2021-01-20-13-49-02.432843
27	7	2	1	28	stable	1	200	28	sv	brown	green	green	brown	right	left	0.7	0.30000000000000004	6	6	4.199999999999998	1.8000000000000005	1	0	0.30000000000000004	0.7	6	6	1.8000000000000005	4.199999999999998	valid	0.4499062680006318	53248.0	0	1.0	1.0	53248	1	53248	1	53248	1	0.7	53248	green	brown	0	6	ml	2.7.3	lorasick	sub-07_ses-02_task-ml_proj-lorasick_2021-01-20-13-49-02.432843
28	7	2	1	29	stable	1	200	29	sv	brown	green	green	brown	right	left	0.7	0.30000000000000004	4	2	2.8	0.6000000000000001	1	0	0.30000000000000004	0.7	2	4	0.6000000000000001	2.8	valid	0.3332751189991541	53248.0	0	1.0	1.0	53248	1	53248	1	53248	1	0.7	53248	green	brown	1	4	ml	2.7.3	lorasick	sub-07_ses-02_task-ml_proj-lorasick_2021-01-20-13-49-02.432843
29	7	2	1	30	stable	1	200	30	sv	green	brown	green	brown	left	right	0.7	0.30000000000000004	4	6	2.8	1.8000000000000005	1	0	0.7	0.30000000000000004	4	6	2.8	1.8000000000000005	valid	0.4832301850001386	53248.0	0	1.0	2.0	51200	0	51200	0	53248	1	0.7	51200	green	brown	0	0	ml	2.7.3	lorasick	sub-07_ses-02_task-ml_proj-lorasick_2021-01-20-13-49-02.432843
30	7	2	1	31	stable	1	200	31	sv	brown	green	green	brown	right	left	0.7	0.30000000000000004	6	2	4.199999999999998	0.6000000000000001	1	0	0.30000000000000004	0.7	2	6	0.6000000000000001	4.199999999999998	valid	0.4165901050000684	53248.0	0	1.0	1.0	53248	1	53248	1	53248	1	0.7	53248	green	brown	1	6	ml	2.7.3	lorasick	sub-07_ses-02_task-ml_proj-lorasick_2021-01-20-13-49-02.432843
31	7	2	1	32	stable	1	200	32	sv	brown	green	green	brown	right	left	0.7	0.30000000000000004	2	2	1.4	0.6000000000000001	1	0	0.30000000000000004	0.7	2	2	0.6000000000000001	1.4	valid	0.5165557660002378	53248.0	0	1.0	1.0	53248	1	53248	1	53248	1	0.7	53248	green	brown	0	2	ml	2.7.3	lorasick	sub-07_ses-02_task-ml_proj-lorasick_2021-01-20-13-49-02.432843
32	7	2	1	33	stable	1	200	33	sv	brown	green	green	brown	right	left	0.7	0.30000000000000004	2	2	1.4	0.6000000000000001	0	1	0.30000000000000004	0.7	2	2	0.6000000000000001	1.4	invalid	0.4165824659976352	53248.0	0	1.0	1.0	53248	1	53248	1	53248	1	0.7	53248	green	brown	0	0	ml	2.7.3	lorasick	sub-07_ses-02_task-ml_proj-lorasick_2021-01-20-13-49-02.432843
33	7	2	1	34	stable	1	200	34	sv	brown	green	green	brown	right	left	0.7	0.30000000000000004	10	2	7.0	0.6000000000000001	0	1	0.30000000000000004	0.7	2	10	0.6000000000000001	7.0	invalid	0.38326075700024376	53248.0	0	1.0	1.0	53248	1	53248	1	53248	1	0.7	53248	green	brown	1	0	ml	2.7.3	lorasick	sub-07_ses-02_task-ml_proj-lorasick_2021-01-20-13-49-02.432843
34	7	2	1	35	stable	1	200	35	sv	green	brown	green	brown	left	right	0.7	0.30000000000000004	4	6	2.8	1.8000000000000005	0	1	0.7	0.30000000000000004	4	6	2.8	1.8000000000000005	invalid	0.4998723899989273	51200.0	0	0.0	1.0	51200	1	51200	1	53248	0	0.7	51200	green	brown	0	0	ml	2.7.3	lorasick	sub-07_ses-02_task-ml_proj-lorasick_2021-01-20-13-49-02.432843
35	7	2	1	36	stable	1	200	36	sv	brown	green	green	brown	right	left	0.7	0.30000000000000004	2	10	1.4	3.0000000000000004	1	0	0.30000000000000004	0.7	10	2	3.0000000000000004	1.4	valid	0.6165268479999213	53248.0	0	1.0	1.0	51200	0	53248	1	51200	0	0.7	53248	green	brown	0	2	ml	2.7.3	lorasick	sub-07_ses-02_task-ml_proj-lorasick_2021-01-20-13-49-02.432843
36	7	2	1	37	stable	1	200	37	sv	green	brown	green	brown	left	right	0.7	0.30000000000000004	10	2	7.0	0.6000000000000001	1	0	0.7	0.30000000000000004	10	2	7.0	0.6000000000000001	valid	0.5332120899984147	51200.0	0	0.0	1.0	51200	1	51200	1	51200	1	0.7	51200	green	brown	1	10	ml	2.7.3	lorasick	sub-07_ses-02_task-ml_proj-lorasick_2021-01-20-13-49-02.432843
37	7	2	1	38	stable	1	200	38	sv	green	brown	green	brown	left	right	0.7	0.30000000000000004	10	2	7.0	0.6000000000000001	1	0	0.7	0.30000000000000004	10	2	7.0	0.6000000000000001	valid	0.9164385670010232	51200.0	0	0.0	1.0	51200	1	51200	1	51200	1	0.7	51200	green	brown	1	10	ml	2.7.3	lorasick	sub-07_ses-02_task-ml_proj-lorasick_2021-01-20-13-49-02.432843
38	7	2	1	39	stable	1	200	39	sv	brown	green	green	brown	right	left	0.7	0.30000000000000004	4	6	2.8	1.8000000000000005	0	1	0.30000000000000004	0.7	6	4	1.8000000000000005	2.8	invalid	0.6165257230022689	53248.0	0	1.0	1.0	53248	1	53248	1	51200	0	0.7	53248	green	brown	0	0	ml	2.7.3	lorasick	sub-07_ses-02_task-ml_proj-lorasick_2021-01-20-13-49-02.432843
39	7	2	1	40	stable	1	200	40	sv	green	brown	green	brown	left	right	0.7	0.30000000000000004	4	2	2.8	0.6000000000000001	1	0	0.7	0.30000000000000004	4	2	2.8	0.6000000000000001	valid	0.3832491600005597	51200.0	0	0.0	1.0	51200	1	51200	1	51200	1	0.7	51200	green	brown	1	4	ml	2.7.3	lorasick	sub-07_ses-02_task-ml_proj-lorasick_2021-01-20-13-49-02.432843
40	7	2	1	41	stable	1	200	41	sv	green	brown	green	brown	left	right	0.7	0.30000000000000004	2	2	1.4	0.6000000000000001	1	0	0.7	0.30000000000000004	2	2	1.4	0.6000000000000001	valid	0.5665309299984074	51200.0	0	0.0	1.0	51200	1	51200	1	53248	0	0.7	51200	green	brown	1	2	ml	2.7.3	lorasick	sub-07_ses-02_task-ml_proj-lorasick_2021-01-20-13-49-02.432843
41	7	2	1	42	stable	1	200	42	sv	brown	green	green	brown	right	left	0.7	0.30000000000000004	2	10	1.4	3.0000000000000004	0	1	0.30000000000000004	0.7	10	2	3.0000000000000004	1.4	invalid	0.5332153019990074	53248.0	0	1.0	1.0	51200	0	53248	1	51200	0	0.7	53248	green	brown	0	0	ml	2.7.3	lorasick	sub-07_ses-02_task-ml_proj-lorasick_2021-01-20-13-49-02.432843
42	7	2	1	43	stable	1	200	43	sv	green	brown	green	brown	left	right	0.7	0.30000000000000004	2	2	1.4	0.6000000000000001	1	0	0.7	0.30000000000000004	2	2	1.4	0.6000000000000001	valid	0.3665989149994857	53248.0	0	1.0	2.0	51200	0	51200	0	53248	1	0.7	51200	green	brown	1	0	ml	2.7.3	lorasick	sub-07_ses-02_task-ml_proj-lorasick_2021-01-20-13-49-02.432843
43	7	2	1	44	stable	1	200	44	sv	brown	green	green	brown	right	left	0.7	0.30000000000000004	4	6	2.8	1.8000000000000005	1	0	0.30000000000000004	0.7	6	4	1.8000000000000005	2.8	valid	0.4998896329998388	53248.0	0	1.0	1.0	53248	1	53248	1	51200	0	0.7	53248	green	brown	0	4	ml	2.7.3	lorasick	sub-07_ses-02_task-ml_proj-lorasick_2021-01-20-13-49-02.432843
44	7	2	1	45	stable	1	200	45	sv	brown	green	green	brown	right	left	0.7	0.30000000000000004	10	2	7.0	0.6000000000000001	0	1	0.30000000000000004	0.7	2	10	0.6000000000000001	7.0	invalid	0.4499076569991303	53248.0	0	1.0	1.0	53248	1	53248	1	53248	1	0.7	53248	green	brown	1	0	ml	2.7.3	lorasick	sub-07_ses-02_task-ml_proj-lorasick_2021-01-20-13-49-02.432843
45	7	2	1	46	stable	1	200	46	sv	brown	green	green	brown	right	left	0.7	0.30000000000000004	6	2	4.199999999999998	0.6000000000000001	1	0	0.30000000000000004	0.7	2	6	0.6000000000000001	4.199999999999998	valid	0.6998265560032451	51200.0	0	0.0	2.0	53248	0	53248	0	53248	0	0.7	53248	green	brown	1	0	ml	2.7.3	lorasick	sub-07_ses-02_task-ml_proj-lorasick_2021-01-20-13-49-02.432843
46	7	2	1	47	stable	1	200	47	sv	brown	green	green	brown	right	left	0.7	0.30000000000000004	6	4	4.199999999999998	1.2000000000000002	1	0	0.30000000000000004	0.7	4	6	1.2000000000000002	4.199999999999998	valid	0.5165525209995394	53248.0	0	1.0	1.0	53248	1	53248	1	53248	1	0.7	53248	green	brown	1	6	ml	2.7.3	lorasick	sub-07_ses-02_task-ml_proj-lorasick_2021-01-20-13-49-02.432843
47	7	2	1	48	stable	1	200	48	sv	green	brown	green	brown	left	right	0.7	0.30000000000000004	4	2	2.8	0.6000000000000001	1	0	0.7	0.30000000000000004	4	2	2.8	0.6000000000000001	valid	0.5165415590017801	51200.0	0	0.0	1.0	51200	1	51200	1	51200	1	0.7	51200	green	brown	1	4	ml	2.7.3	lorasick	sub-07_ses-02_task-ml_proj-lorasick_2021-01-20-13-49-02.432843
48	7	2	1	49	stable	1	200	49	sv	brown	green	green	brown	right	left	0.7	0.30000000000000004	6	4	4.199999999999998	1.2000000000000002	1	0	0.30000000000000004	0.7	4	6	1.2000000000000002	4.199999999999998	valid	0.4832306140015135	53248.0	0	1.0	1.0	53248	1	53248	1	53248	1	0.7	53248	green	brown	1	6	ml	2.7.3	lorasick	sub-07_ses-02_task-ml_proj-lorasick_2021-01-20-13-49-02.432843
49	7	2	1	50	stable	1	200	50	sv	brown	green	green	brown	right	left	0.7	0.30000000000000004	2	2	1.4	0.6000000000000001	1	0	0.30000000000000004	0.7	2	2	0.6000000000000001	1.4	valid	0.533217615000467	53248.0	0	1.0	1.0	53248	1	53248	1	53248	1	0.7	53248	green	brown	0	2	ml	2.7.3	lorasick	sub-07_ses-02_task-ml_proj-lorasick_2021-01-20-13-49-02.432843
50	7	2	2	51	stable	1	200	51	sv	brown	green	green	brown	right	left	0.7	0.30000000000000004	4	2	2.8	0.6000000000000001	1	0	0.30000000000000004	0.7	2	4	0.6000000000000001	2.8	valid	0.8497990169998957	53248.0	0	1.0	1.0	53248	1	53248	1	53248	1	0.7	53248	green	brown	1	4	ml	2.7.3	lorasick	sub-07_ses-02_task-ml_proj-lorasick_2021-01-20-13-49-02.432843
51	7	2	2	52	stable	1	200	52	sv	green	brown	green	brown	left	right	0.7	0.30000000000000004	4	6	2.8	1.8000000000000005	1	0	0.7	0.30000000000000004	4	6	2.8	1.8000000000000005	valid	0.4665582000016002	51200.0	0	0.0	1.0	51200	1	51200	1	53248	0	0.7	51200	green	brown	0	4	ml	2.7.3	lorasick	sub-07_ses-02_task-ml_proj-lorasick_2021-01-20-13-49-02.432843
52	7	2	2	53	stable	1	200	53	sv	green	brown	green	brown	left	right	0.7	0.30000000000000004	4	2	2.8	0.6000000000000001	0	1	0.7	0.30000000000000004	4	2	2.8	0.6000000000000001	invalid	0.9497483699997248	51200.0	0	0.0	1.0	51200	1	51200	1	51200	1	0.7	51200	green	brown	1	0	ml	2.7.3	lorasick	sub-07_ses-02_task-ml_proj-lorasick_2021-01-20-13-49-02.432843
53	7	2	2	54	stable	1	200	54	sv	brown	green	green	brown	right	left	0.7	0.30000000000000004	6	6	4.199999999999998	1.8000000000000005	1	0	0.30000000000000004	0.7	6	6	1.8000000000000005	4.199999999999998	valid	0.4499076659994897	53248.0	0	1.0	1.0	53248	1	53248	1	53248	1	0.7	53248	green	brown	0	6	ml	2.7.3	lorasick	sub-07_ses-02_task-ml_proj-lorasick_2021-01-20-13-49-02.432843
54	7	2	2	55	stable	1	200	55	sv	green	brown	green	brown	left	right	0.7	0.30000000000000004	6	6	4.199999999999998	1.8000000000000005	1	0	0.7	0.30000000000000004	6	6	4.199999999999998	1.8000000000000005	valid	0.5332281649971264	51200.0	0	0.0	1.0	51200	1	51200	1	53248	0	0.7	51200	green	brown	1	6	ml	2.7.3	lorasick	sub-07_ses-02_task-ml_proj-lorasick_2021-01-20-13-49-02.432843
55	7	2	2	56	stable	1	200	56	sv	green	brown	green	brown	left	right	0.7	0.30000000000000004	6	6	4.199999999999998	1.8000000000000005	1	0	0.7	0.30000000000000004	6	6	4.199999999999998	1.8000000000000005	valid	0.4665588530006062	51200.0	0	0.0	1.0	51200	1	51200	1	53248	0	0.7	51200	green	brown	1	6	ml	2.7.3	lorasick	sub-07_ses-02_task-ml_proj-lorasick_2021-01-20-13-49-02.432843
56	7	2	2	57	stable	1	200	57	sv	green	brown	green	brown	left	right	0.7	0.30000000000000004	6	2	4.199999999999998	0.6000000000000001	1	0	0.7	0.30000000000000004	6	2	4.199999999999998	0.6000000000000001	valid	0.4165727239997068	51200.0	0	0.0	1.0	51200	1	51200	1	51200	1	0.7	51200	green	brown	1	6	ml	2.7.3	lorasick	sub-07_ses-02_task-ml_proj-lorasick_2021-01-20-13-49-02.432843
57	7	2	2	58	stable	1	200	58	sv	brown	green	green	brown	right	left	0.7	0.30000000000000004	4	2	2.8	0.6000000000000001	1	0	0.30000000000000004	0.7	2	4	0.6000000000000001	2.8	valid	0.44990711599893984	53248.0	0	1.0	1.0	53248	1	53248	1	53248	1	0.7	53248	green	brown	1	4	ml	2.7.3	lorasick	sub-07_ses-02_task-ml_proj-lorasick_2021-01-20-13-49-02.432843
58	7	2	2	59	stable	1	200	59	sv	brown	green	green	brown	right	left	0.7	0.30000000000000004	2	4	1.4	1.2000000000000002	1	0	0.30000000000000004	0.7	4	2	1.2000000000000002	1.4	valid	0.4998911629991198	53248.0	0	1.0	1.0	53248	1	53248	1	51200	0	0.7	53248	green	brown	0	2	ml	2.7.3	lorasick	sub-07_ses-02_task-ml_proj-lorasick_2021-01-20-13-49-02.432843
59	7	2	2	60	stable	1	200	60	sv	brown	green	green	brown	right	left	0.7	0.30000000000000004	4	6	2.8	1.8000000000000005	1	0	0.30000000000000004	0.7	6	4	1.8000000000000005	2.8	valid	0.5498746480006957	53248.0	0	1.0	1.0	53248	1	53248	1	51200	0	0.7	53248	green	brown	0	4	ml	2.7.3	lorasick	sub-07_ses-02_task-ml_proj-lorasick_2021-01-20-13-49-02.432843
60	7	2	2	61	stable	1	200	61	sv	green	brown	green	brown	left	right	0.7	0.30000000000000004	6	4	4.199999999999998	1.2000000000000002	1	0	0.7	0.30000000000000004	6	4	4.199999999999998	1.2000000000000002	valid	0.333260749001056	51200.0	0	0.0	1.0	51200	1	51200	1	51200	1	0.7	51200	green	brown	1	6	ml	2.7.3	lorasick	sub-07_ses-02_task-ml_proj-lorasick_2021-01-20-13-49-02.432843
61	7	2	2	62	stable	1	200	62	sv	brown	green	green	brown	right	left	0.7	0.30000000000000004	2	6	1.4	1.8000000000000005	0	1	0.30000000000000004	0.7	6	2	1.8000000000000005	1.4	invalid	0.283282637999946	53248.0	0	1.0	1.0	51200	0	53248	1	51200	0	0.7	53248	green	brown	0	0	ml	2.7.3	lorasick	sub-07_ses-02_task-ml_proj-lorasick_2021-01-20-13-49-02.432843
62	7	2	2	63	stable	1	200	63	sv	green	brown	green	brown	left	right	0.7	0.30000000000000004	6	4	4.199999999999998	1.2000000000000002	1	0	0.7	0.30000000000000004	6	4	4.199999999999998	1.2000000000000002	valid	0.6165253229992231	53248.0	0	1.0	2.0	51200	0	51200	0	51200	0	0.7	51200	green	brown	1	0	ml	2.7.3	lorasick	sub-07_ses-02_task-ml_proj-lorasick_2021-01-20-13-49-02.432843
63	7	2	2	64	stable	1	200	64	sv	brown	green	green	brown	right	left	0.7	0.30000000000000004	6	4	4.199999999999998	1.2000000000000002	0	1	0.30000000000000004	0.7	4	6	1.2000000000000002	4.199999999999998	invalid	0.3832687659996736	53248.0	0	1.0	1.0	53248	1	53248	1	53248	1	0.7	53248	green	brown	1	0	ml	2.7.3	lorasick	sub-07_ses-02_task-ml_proj-lorasick_2021-01-20-13-49-02.432843
64	7	2	2	65	stable	1	200	65	sv	green	brown	green	brown	left	right	0.7	0.30000000000000004	2	4	1.4	1.2000000000000002	0	1	0.7	0.30000000000000004	2	4	1.4	1.2000000000000002	invalid	0.3999193689996901	53248.0	0	1.0	2.0	51200	0	51200	0	53248	1	0.7	51200	green	brown	0	4	ml	2.7.3	lorasick	sub-07_ses-02_task-ml_proj-lorasick_2021-01-20-13-49-02.432843
65	7	2	2	66	stable	1	200	66	sv	brown	green	green	brown	right	left	0.7	0.30000000000000004	2	4	1.4	1.2000000000000002	1	0	0.30000000000000004	0.7	4	2	1.2000000000000002	1.4	valid	0.3999126900016563	51200.0	0	0.0	2.0	53248	0	53248	0	51200	1	0.7	53248	green	brown	0	0	ml	2.7.3	lorasick	sub-07_ses-02_task-ml_proj-lorasick_2021-01-20-13-49-02.432843
66	7	2	2	67	stable	1	200	67	sv	brown	green	green	brown	right	left	0.7	0.30000000000000004	4	2	2.8	0.6000000000000001	1	0	0.30000000000000004	0.7	2	4	0.6000000000000001	2.8	valid	0.7164959870024177	53248.0	0	1.0	1.0	53248	1	53248	1	53248	1	0.7	53248	green	brown	1	4	ml	2.7.3	lorasick	sub-07_ses-02_task-ml_proj-lorasick_2021-01-20-13-49-02.432843
67	7	2	2	68	stable	1	200	68	sv	brown	green	green	brown	right	left	0.7	0.30000000000000004	2	6	1.4	1.8000000000000005	1	0	0.30000000000000004	0.7	6	2	1.8000000000000005	1.4	valid	0.6331870600006368	53248.0	0	1.0	1.0	51200	0	53248	1	51200	0	0.7	53248	green	brown	0	2	ml	2.7.3	lorasick	sub-07_ses-02_task-ml_proj-lorasick_2021-01-20-13-49-02.432843
68	7	2	2	69	stable	1	200	69	sv	brown	green	green	brown	right	left	0.7	0.30000000000000004	2	4	1.4	1.2000000000000002	1	0	0.30000000000000004	0.7	4	2	1.2000000000000002	1.4	valid	0.5665401450023637	53248.0	0	1.0	1.0	53248	1	53248	1	51200	0	0.7	53248	green	brown	0	2	ml	2.7.3	lorasick	sub-07_ses-02_task-ml_proj-lorasick_2021-01-20-13-49-02.432843
69	7	2	2	70	stable	1	200	70	sv	green	brown	green	brown	left	right	0.7	0.30000000000000004	10	2	7.0	0.6000000000000001	1	0	0.7	0.30000000000000004	10	2	7.0	0.6000000000000001	valid	0.34992653700101073	51200.0	0	0.0	1.0	51200	1	51200	1	51200	1	0.7	51200	green	brown	1	10	ml	2.7.3	lorasick	sub-07_ses-02_task-ml_proj-lorasick_2021-01-20-13-49-02.432843
70	7	2	2	71	stable	1	200	71	sv	green	brown	green	brown	left	right	0.7	0.30000000000000004	6	4	4.199999999999998	1.2000000000000002	1	0	0.7	0.30000000000000004	6	4	4.199999999999998	1.2000000000000002	valid	0.3832505099999253	51200.0	0	0.0	1.0	51200	1	51200	1	51200	1	0.7	51200	green	brown	1	6	ml	2.7.3	lorasick	sub-07_ses-02_task-ml_proj-lorasick_2021-01-20-13-49-02.432843
71	7	2	2	72	stable	1	200	72	sv	brown	green	green	brown	right	left	0.7	0.30000000000000004	6	6	4.199999999999998	1.8000000000000005	0	1	0.30000000000000004	0.7	6	6	1.8000000000000005	4.199999999999998	invalid	0.5498779869994905	53248.0	0	1.0	1.0	53248	1	53248	1	53248	1	0.7	53248	green	brown	0	0	ml	2.7.3	lorasick	sub-07_ses-02_task-ml_proj-lorasick_2021-01-20-13-49-02.432843
72	7	2	2	73	stable	1	200	73	sv	brown	green	green	brown	right	left	0.7	0.30000000000000004	4	6	2.8	1.8000000000000005	0	1	0.30000000000000004	0.7	6	4	1.8000000000000005	2.8	invalid	0.4832373970020853	53248.0	0	1.0	1.0	53248	1	53248	1	51200	0	0.7	53248	green	brown	0	0	ml	2.7.3	lorasick	sub-07_ses-02_task-ml_proj-lorasick_2021-01-20-13-49-02.432843
73	7	2	2	74	stable	1	200	74	sv	brown	green	green	brown	right	left	0.7	0.30000000000000004	2	10	1.4	3.0000000000000004	0	1	0.30000000000000004	0.7	10	2	3.0000000000000004	1.4	invalid	0.783140806001029	51200.0	0	0.0	2.0	51200	1	53248	0	51200	1	0.7	53248	green	brown	0	10	ml	2.7.3	lorasick	sub-07_ses-02_task-ml_proj-lorasick_2021-01-20-13-49-02.432843
74	7	2	2	75	stable	1	200	75	sv	green	brown	green	brown	left	right	0.7	0.30000000000000004	2	2	1.4	0.6000000000000001	1	0	0.7	0.30000000000000004	2	2	1.4	0.6000000000000001	valid	0.3999227349995635	53248.0	0	1.0	2.0	51200	0	51200	0	53248	1	0.7	51200	green	brown	1	0	ml	2.7.3	lorasick	sub-07_ses-02_task-ml_proj-lorasick_2021-01-20-13-49-02.432843
75	7	2	2	76	stable	1	200	76	sv	green	brown	green	brown	left	right	0.7	0.30000000000000004	4	2	2.8	0.6000000000000001	1	0	0.7	0.30000000000000004	4	2	2.8	0.6000000000000001	valid	0.7164742489985656	51200.0	0	0.0	1.0	51200	1	51200	1	51200	1	0.7	51200	green	brown	1	4	ml	2.7.3	lorasick	sub-07_ses-02_task-ml_proj-lorasick_2021-01-20-13-49-02.432843
76	7	2	2	77	stable	1	200	77	sv	green	brown	green	brown	left	right	0.7	0.30000000000000004	6	2	4.199999999999998	0.6000000000000001	0	1	0.7	0.30000000000000004	6	2	4.199999999999998	0.6000000000000001	invalid	0.4832056730010663	51200.0	0	0.0	1.0	51200	1	51200	1	51200	1	0.7	51200	green	brown	1	0	ml	2.7.3	lorasick	sub-07_ses-02_task-ml_proj-lorasick_2021-01-20-13-49-02.432843
77	7	2	2	78	stable	1	200	78	sv	brown	green	green	brown	right	left	0.7	0.30000000000000004	10	2	7.0	0.6000000000000001	1	0	0.30000000000000004	0.7	2	10	0.6000000000000001	7.0	valid	0.3832564260010258	53248.0	0	1.0	1.0	53248	1	53248	1	53248	1	0.7	53248	green	brown	1	10	ml	2.7.3	lorasick	sub-07_ses-02_task-ml_proj-lorasick_2021-01-20-13-49-02.432843
78	7	2	2	79	stable	1	200	79	sv	brown	green	green	brown	right	left	0.7	0.30000000000000004	2	6	1.4	1.8000000000000005	1	0	0.30000000000000004	0.7	6	2	1.8000000000000005	1.4	valid	0.5332152539995151	53248.0	0	1.0	1.0	51200	0	53248	1	51200	0	0.7	53248	green	brown	0	2	ml	2.7.3	lorasick	sub-07_ses-02_task-ml_proj-lorasick_2021-01-20-13-49-02.432843
79	7	2	2	80	stable	1	200	80	sv	brown	green	green	brown	right	left	0.7	0.30000000000000004	6	6	4.199999999999998	1.8000000000000005	1	0	0.30000000000000004	0.7	6	6	1.8000000000000005	4.199999999999998	valid	0.4998907250010234	53248.0	0	1.0	1.0	53248	1	53248	1	53248	1	0.7	53248	green	brown	0	6	ml	2.7.3	lorasick	sub-07_ses-02_task-ml_proj-lorasick_2021-01-20-13-49-02.432843
80	7	2	2	81	stable	1	200	81	sv	green	brown	green	brown	left	right	0.7	0.30000000000000004	2	4	1.4	1.2000000000000002	1	0	0.7	0.30000000000000004	2	4	1.4	1.2000000000000002	valid	0.3166038799972739	51200.0	0	0.0	1.0	51200	1	51200	1	53248	0	0.7	51200	green	brown	0	2	ml	2.7.3	lorasick	sub-07_ses-02_task-ml_proj-lorasick_2021-01-20-13-49-02.432843
81	7	2	2	82	stable	1	200	82	sv	green	brown	green	brown	left	right	0.7	0.30000000000000004	6	6	4.199999999999998	1.8000000000000005	1	0	0.7	0.30000000000000004	6	6	4.199999999999998	1.8000000000000005	valid	0.6165137349998986	51200.0	0	0.0	1.0	51200	1	51200	1	53248	0	0.7	51200	green	brown	1	6	ml	2.7.3	lorasick	sub-07_ses-02_task-ml_proj-lorasick_2021-01-20-13-49-02.432843
82	7	2	2	83	stable	1	200	83	sv	brown	green	green	brown	right	left	0.7	0.30000000000000004	2	2	1.4	0.6000000000000001	1	0	0.30000000000000004	0.7	2	2	0.6000000000000001	1.4	valid	0.4832244669996726	53248.0	0	1.0	1.0	53248	1	53248	1	53248	1	0.7	53248	green	brown	0	2	ml	2.7.3	lorasick	sub-07_ses-02_task-ml_proj-lorasick_2021-01-20-13-49-02.432843
83	7	2	2	84	stable	1	200	84	sv	brown	green	green	brown	right	left	0.7	0.30000000000000004	2	10	1.4	3.0000000000000004	1	0	0.30000000000000004	0.7	10	2	3.0000000000000004	1.4	valid	1.0164054779997969	51200.0	0	0.0	2.0	51200	1	53248	0	51200	1	0.7	53248	green	brown	0	0	ml	2.7.3	lorasick	sub-07_ses-02_task-ml_proj-lorasick_2021-01-20-13-49-02.432843
84	7	2	2	85	stable	1	200	85	sv	green	brown	green	brown	left	right	0.7	0.30000000000000004	2	4	1.4	1.2000000000000002	1	0	0.7	0.30000000000000004	2	4	1.4	1.2000000000000002	valid	0.36658723700020346	51200.0	0	0.0	1.0	51200	1	51200	1	53248	0	0.7	51200	green	brown	0	2	ml	2.7.3	lorasick	sub-07_ses-02_task-ml_proj-lorasick_2021-01-20-13-49-02.432843
85	7	2	2	86	stable	1	200	86	sv	green	brown	green	brown	left	right	0.7	0.30000000000000004	6	4	4.199999999999998	1.2000000000000002	0	1	0.7	0.30000000000000004	6	4	4.199999999999998	1.2000000000000002	invalid	0.3999115920014447	51200.0	0	0.0	1.0	51200	1	51200	1	51200	1	0.7	51200	green	brown	1	0	ml	2.7.3	lorasick	sub-07_ses-02_task-ml_proj-lorasick_2021-01-20-13-49-02.432843
86	7	2	2	87	stable	1	200	87	sv	brown	green	green	brown	right	left	0.7	0.30000000000000004	4	6	2.8	1.8000000000000005	1	0	0.30000000000000004	0.7	6	4	1.8000000000000005	2.8	valid	0.666506624998874	53248.0	0	1.0	1.0	53248	1	53248	1	51200	0	0.7	53248	green	brown	0	4	ml	2.7.3	lorasick	sub-07_ses-02_task-ml_proj-lorasick_2021-01-20-13-49-02.432843
87	7	2	2	88	stable	1	200	88	sv	green	brown	green	brown	left	right	0.7	0.30000000000000004	2	4	1.4	1.2000000000000002	0	1	0.7	0.30000000000000004	2	4	1.4	1.2000000000000002	invalid	0.3999113719983143	51200.0	0	0.0	1.0	51200	1	51200	1	53248	0	0.7	51200	green	brown	0	0	ml	2.7.3	lorasick	sub-07_ses-02_task-ml_proj-lorasick_2021-01-20-13-49-02.432843
88	7	2	2	89	stable	1	200	89	sv	green	brown	green	brown	left	right	0.7	0.30000000000000004	2	10	1.4	3.0000000000000004	0	1	0.7	0.30000000000000004	2	10	1.4	3.0000000000000004	invalid	0.7498197620006977	53248.0	0	1.0	2.0	53248	1	51200	0	53248	1	0.7	51200	green	brown	0	10	ml	2.7.3	lorasick	sub-07_ses-02_task-ml_proj-lorasick_2021-01-20-13-49-02.432843
89	7	2	2	90	stable	1	200	90	sv	brown	green	green	brown	right	left	0.7	0.30000000000000004	6	4	4.199999999999998	1.2000000000000002	0	1	0.30000000000000004	0.7	4	6	1.2000000000000002	4.199999999999998	invalid	0.34992729499936104	51200.0	0	0.0	2.0	53248	0	53248	0	53248	0	0.7	53248	green	brown	1	4	ml	2.7.3	lorasick	sub-07_ses-02_task-ml_proj-lorasick_2021-01-20-13-49-02.432843
90	7	2	2	91	stable	1	200	91	sv	brown	green	green	brown	right	left	0.7	0.30000000000000004	2	4	1.4	1.2000000000000002	1	0	0.30000000000000004	0.7	4	2	1.2000000000000002	1.4	valid	0.4498973350018787	51200.0	0	0.0	2.0	53248	0	53248	0	51200	1	0.7	53248	green	brown	0	0	ml	2.7.3	lorasick	sub-07_ses-02_task-ml_proj-lorasick_2021-01-20-13-49-02.432843
91	7	2	2	92	stable	1	200	92	sv	green	brown	green	brown	left	right	0.7	0.30000000000000004	6	2	4.199999999999998	0.6000000000000001	1	0	0.7	0.30000000000000004	6	2	4.199999999999998	0.6000000000000001	valid	0.4998996649992478	53248.0	0	1.0	2.0	51200	0	51200	0	51200	0	0.7	51200	green	brown	1	0	ml	2.7.3	lorasick	sub-07_ses-02_task-ml_proj-lorasick_2021-01-20-13-49-02.432843
92	7	2	2	93	stable	1	200	93	sv	green	brown	green	brown	left	right	0.7	0.30000000000000004	2	10	1.4	3.0000000000000004	1	0	0.7	0.30000000000000004	2	10	1.4	3.0000000000000004	valid	0.6498430950014153	53248.0	0	1.0	2.0	53248	1	51200	0	53248	1	0.7	51200	green	brown	0	0	ml	2.7.3	lorasick	sub-07_ses-02_task-ml_proj-lorasick_2021-01-20-13-49-02.432843
93	7	2	2	94	stable	1	200	94	sv	green	brown	green	brown	left	right	0.7	0.30000000000000004	2	10	1.4	3.0000000000000004	0	1	0.7	0.30000000000000004	2	10	1.4	3.0000000000000004	invalid	0.4998820869986957	51200.0	0	0.0	1.0	53248	0	51200	1	53248	0	0.7	51200	green	brown	0	0	ml	2.7.3	lorasick	sub-07_ses-02_task-ml_proj-lorasick_2021-01-20-13-49-02.432843
94	7	2	2	95	stable	1	200	95	sv	brown	green	green	brown	right	left	0.7	0.30000000000000004	6	4	4.199999999999998	1.2000000000000002	1	0	0.30000000000000004	0.7	4	6	1.2000000000000002	4.199999999999998	valid	0.4998822859997745	51200.0	0	0.0	2.0	53248	0	53248	0	53248	0	0.7	53248	green	brown	1	0	ml	2.7.3	lorasick	sub-07_ses-02_task-ml_proj-lorasick_2021-01-20-13-49-02.432843
95	7	2	2	96	stable	1	200	96	sv	green	brown	green	brown	left	right	0.7	0.30000000000000004	6	4	4.199999999999998	1.2000000000000002	1	0	0.7	0.30000000000000004	6	4	4.199999999999998	1.2000000000000002	valid	0.4498921839985997	51200.0	0	0.0	1.0	51200	1	51200	1	51200	1	0.7	51200	green	brown	1	6	ml	2.7.3	lorasick	sub-07_ses-02_task-ml_proj-lorasick_2021-01-20-13-49-02.432843
96	7	2	2	97	stable	1	200	97	sv	brown	green	green	brown	right	left	0.7	0.30000000000000004	4	2	2.8	0.6000000000000001	1	0	0.30000000000000004	0.7	2	4	0.6000000000000001	2.8	valid	0.3832603899973037	53248.0	0	1.0	1.0	53248	1	53248	1	53248	1	0.7	53248	green	brown	1	4	ml	2.7.3	lorasick	sub-07_ses-02_task-ml_proj-lorasick_2021-01-20-13-49-02.432843
97	7	2	2	98	stable	1	200	98	sv	brown	green	green	brown	right	left	0.7	0.30000000000000004	2	4	1.4	1.2000000000000002	1	0	0.30000000000000004	0.7	4	2	1.2000000000000002	1.4	valid	0.5332181859994307	53248.0	0	1.0	1.0	53248	1	53248	1	51200	0	0.7	53248	green	brown	0	2	ml	2.7.3	lorasick	sub-07_ses-02_task-ml_proj-lorasick_2021-01-20-13-49-02.432843
98	7	2	2	99	stable	1	200	99	sv	brown	green	green	brown	right	left	0.7	0.30000000000000004	10	2	7.0	0.6000000000000001	1	0	0.30000000000000004	0.7	2	10	0.6000000000000001	7.0	valid	0.5498779720001039	53248.0	0	1.0	1.0	53248	1	53248	1	53248	1	0.7	53248	green	brown	1	10	ml	2.7.3	lorasick	sub-07_ses-02_task-ml_proj-lorasick_2021-01-20-13-49-02.432843
99	7	2	2	100	stable	1	200	100	sv	green	brown	green	brown	left	right	0.7	0.30000000000000004	4	6	2.8	1.8000000000000005	1	0	0.7	0.30000000000000004	4	6	2.8	1.8000000000000005	valid	0.4998757499997737	51200.0	0	0.0	1.0	51200	1	51200	1	53248	0	0.7	51200	green	brown	0	4	ml	2.7.3	lorasick	sub-07_ses-02_task-ml_proj-lorasick_2021-01-20-13-49-02.432843
100	7	2	3	101	stable	1	200	101	sv	green	brown	green	brown	left	right	0.7	0.30000000000000004	6	6	4.199999999999998	1.8000000000000005	1	0	0.7	0.30000000000000004	6	6	4.199999999999998	1.8000000000000005	valid	0.5498701579999761	51200.0	0	0.0	1.0	51200	1	51200	1	53248	0	0.7	51200	green	brown	1	6	ml	2.7.3	lorasick	sub-07_ses-02_task-ml_proj-lorasick_2021-01-20-13-49-02.432843
101	7	2	3	102	stable	1	200	102	sv	brown	green	green	brown	right	left	0.7	0.30000000000000004	2	4	1.4	1.2000000000000002	1	0	0.30000000000000004	0.7	4	2	1.2000000000000002	1.4	valid	0.5665393689996563	53248.0	0	1.0	1.0	53248	1	53248	1	51200	0	0.7	53248	green	brown	0	2	ml	2.7.3	lorasick	sub-07_ses-02_task-ml_proj-lorasick_2021-01-20-13-49-02.432843
102	7	2	3	103	stable	1	200	103	sv	brown	green	green	brown	right	left	0.7	0.30000000000000004	2	2	1.4	0.6000000000000001	0	1	0.30000000000000004	0.7	2	2	0.6000000000000001	1.4	invalid	0.5831959690003714	53248.0	0	1.0	1.0	53248	1	53248	1	53248	1	0.7	53248	green	brown	0	0	ml	2.7.3	lorasick	sub-07_ses-02_task-ml_proj-lorasick_2021-01-20-13-49-02.432843
103	7	2	3	104	stable	1	200	104	sv	brown	green	green	brown	right	left	0.7	0.30000000000000004	2	2	1.4	0.6000000000000001	0	1	0.30000000000000004	0.7	2	2	0.6000000000000001	1.4	invalid	0.5332154079987959	53248.0	0	1.0	1.0	53248	1	53248	1	53248	1	0.7	53248	green	brown	0	0	ml	2.7.3	lorasick	sub-07_ses-02_task-ml_proj-lorasick_2021-01-20-13-49-02.432843
104	7	2	3	105	stable	1	200	105	sv	brown	green	green	brown	right	left	0.7	0.30000000000000004	4	6	2.8	1.8000000000000005	1	0	0.30000000000000004	0.7	6	4	1.8000000000000005	2.8	valid	0.4332351140001265	51200.0	0	0.0	2.0	53248	0	53248	0	51200	1	0.7	53248	green	brown	0	0	ml	2.7.3	lorasick	sub-07_ses-02_task-ml_proj-lorasick_2021-01-20-13-49-02.432843
105	7	2	3	106	stable	1	200	106	sv	brown	green	green	brown	right	left	0.7	0.30000000000000004	2	2	1.4	0.6000000000000001	1	0	0.30000000000000004	0.7	2	2	0.6000000000000001	1.4	valid	0.3666035220012418	53248.0	0	1.0	1.0	53248	1	53248	1	53248	1	0.7	53248	green	brown	0	2	ml	2.7.3	lorasick	sub-07_ses-02_task-ml_proj-lorasick_2021-01-20-13-49-02.432843
106	7	2	3	107	stable	1	200	107	sv	green	brown	green	brown	left	right	0.7	0.30000000000000004	4	2	2.8	0.6000000000000001	1	0	0.7	0.30000000000000004	4	2	2.8	0.6000000000000001	valid	0.43324465100158704	51200.0	0	0.0	1.0	51200	1	51200	1	51200	1	0.7	51200	green	brown	1	4	ml	2.7.3	lorasick	sub-07_ses-02_task-ml_proj-lorasick_2021-01-20-13-49-02.432843
107	7	2	3	108	stable	1	200	108	sv	brown	green	green	brown	right	left	0.7	0.30000000000000004	6	6	4.199999999999998	1.8000000000000005	1	0	0.30000000000000004	0.7	6	6	1.8000000000000005	4.199999999999998	valid	0.4832300549969659	53248.0	0	1.0	1.0	53248	1	53248	1	53248	1	0.7	53248	green	brown	0	6	ml	2.7.3	lorasick	sub-07_ses-02_task-ml_proj-lorasick_2021-01-20-13-49-02.432843
108	7	2	3	109	stable	1	200	109	sv	brown	green	green	brown	right	left	0.7	0.30000000000000004	2	10	1.4	3.0000000000000004	0	1	0.30000000000000004	0.7	10	2	3.0000000000000004	1.4	invalid	0.6165176210015488	53248.0	0	1.0	1.0	51200	0	53248	1	51200	0	0.7	53248	green	brown	0	0	ml	2.7.3	lorasick	sub-07_ses-02_task-ml_proj-lorasick_2021-01-20-13-49-02.432843
109	7	2	3	110	stable	1	200	110	sv	green	brown	green	brown	left	right	0.7	0.30000000000000004	2	6	1.4	1.8000000000000005	1	0	0.7	0.30000000000000004	2	6	1.4	1.8000000000000005	valid	1.16635806100021	53248.0	0	1.0	2.0	53248	1	51200	0	53248	1	0.7	51200	green	brown	0	0	ml	2.7.3	lorasick	sub-07_ses-02_task-ml_proj-lorasick_2021-01-20-13-49-02.432843
110	7	2	3	111	stable	1	200	111	sv	green	brown	green	brown	left	right	0.7	0.30000000000000004	6	2	4.199999999999998	0.6000000000000001	1	0	0.7	0.30000000000000004	6	2	4.199999999999998	0.6000000000000001	valid	0.3832502820005175	51200.0	0	0.0	1.0	51200	1	51200	1	51200	1	0.7	51200	green	brown	1	6	ml	2.7.3	lorasick	sub-07_ses-02_task-ml_proj-lorasick_2021-01-20-13-49-02.432843
111	7	2	3	112	stable	1	200	112	sv	brown	green	green	brown	right	left	0.7	0.30000000000000004	6	6	4.199999999999998	1.8000000000000005	1	0	0.30000000000000004	0.7	6	6	1.8000000000000005	4.199999999999998	valid	0.41658356100015226	53248.0	0	1.0	1.0	53248	1	53248	1	53248	1	0.7	53248	green	brown	0	6	ml	2.7.3	lorasick	sub-07_ses-02_task-ml_proj-lorasick_2021-01-20-13-49-02.432843
112	7	2	3	113	stable	1	200	113	sv	brown	green	green	brown	right	left	0.7	0.30000000000000004	6	4	4.199999999999998	1.2000000000000002	0	1	0.30000000000000004	0.7	4	6	1.2000000000000002	4.199999999999998	invalid	0.8497907650016714	53248.0	0	1.0	1.0	53248	1	53248	1	53248	1	0.7	53248	green	brown	1	0	ml	2.7.3	lorasick	sub-07_ses-02_task-ml_proj-lorasick_2021-01-20-13-49-02.432843
113	7	2	3	114	stable	1	200	114	sv	green	brown	green	brown	left	right	0.7	0.30000000000000004	2	4	1.4	1.2000000000000002	1	0	0.7	0.30000000000000004	2	4	1.4	1.2000000000000002	valid	0.4332206239996593	53248.0	0	1.0	2.0	51200	0	51200	0	53248	1	0.7	51200	green	brown	0	0	ml	2.7.3	lorasick	sub-07_ses-02_task-ml_proj-lorasick_2021-01-20-13-49-02.432843
114	7	2	3	115	stable	1	200	115	sv	green	brown	green	brown	left	right	0.7	0.30000000000000004	4	2	2.8	0.6000000000000001	0	1	0.7	0.30000000000000004	4	2	2.8	0.6000000000000001	invalid	0.533207405002031	51200.0	0	0.0	1.0	51200	1	51200	1	51200	1	0.7	51200	green	brown	1	0	ml	2.7.3	lorasick	sub-07_ses-02_task-ml_proj-lorasick_2021-01-20-13-49-02.432843
115	7	2	3	116	stable	1	200	116	sv	green	brown	green	brown	left	right	0.7	0.30000000000000004	2	6	1.4	1.8000000000000005	1	0	0.7	0.30000000000000004	2	6	1.4	1.8000000000000005	valid	0.6498396790011611	51200.0	0	0.0	1.0	53248	0	51200	1	53248	0	0.7	51200	green	brown	0	2	ml	2.7.3	lorasick	sub-07_ses-02_task-ml_proj-lorasick_2021-01-20-13-49-02.432843
116	7	2	3	117	stable	1	200	117	sv	brown	green	green	brown	right	left	0.7	0.30000000000000004	2	10	1.4	3.0000000000000004	0	1	0.30000000000000004	0.7	10	2	3.0000000000000004	1.4	invalid	0.5165530750018661	53248.0	0	1.0	1.0	51200	0	53248	1	51200	0	0.7	53248	green	brown	0	0	ml	2.7.3	lorasick	sub-07_ses-02_task-ml_proj-lorasick_2021-01-20-13-49-02.432843
117	7	2	3	118	stable	1	200	118	sv	brown	green	green	brown	right	left	0.7	0.30000000000000004	2	10	1.4	3.0000000000000004	1	0	0.30000000000000004	0.7	10	2	3.0000000000000004	1.4	valid	0.5498667360006948	51200.0	0	0.0	2.0	51200	1	53248	0	51200	1	0.7	53248	green	brown	0	0	ml	2.7.3	lorasick	sub-07_ses-02_task-ml_proj-lorasick_2021-01-20-13-49-02.432843
118	7	2	3	119	stable	1	200	119	sv	brown	green	green	brown	right	left	0.7	0.30000000000000004	6	4	4.199999999999998	1.2000000000000002	1	0	0.30000000000000004	0.7	4	6	1.2000000000000002	4.199999999999998	valid	0.3499492580012884	51200.0	0	0.0	2.0	53248	0	53248	0	53248	0	0.7	53248	green	brown	1	0	ml	2.7.3	lorasick	sub-07_ses-02_task-ml_proj-lorasick_2021-01-20-13-49-02.432843
119	7	2	3	120	stable	1	200	120	sv	green	brown	green	brown	left	right	0.7	0.30000000000000004	4	6	2.8	1.8000000000000005	0	1	0.7	0.30000000000000004	4	6	2.8	1.8000000000000005	invalid	0.4665614849982376	51200.0	0	0.0	1.0	51200	1	51200	1	53248	0	0.7	51200	green	brown	0	0	ml	2.7.3	lorasick	sub-07_ses-02_task-ml_proj-lorasick_2021-01-20-13-49-02.432843
120	7	2	3	121	stable	1	200	121	sv	brown	green	green	brown	right	left	0.7	0.30000000000000004	4	6	2.8	1.8000000000000005	1	0	0.30000000000000004	0.7	6	4	1.8000000000000005	2.8	valid	0.5998697429968161	53248.0	0	1.0	1.0	53248	1	53248	1	51200	0	0.7	53248	green	brown	0	4	ml	2.7.3	lorasick	sub-07_ses-02_task-ml_proj-lorasick_2021-01-20-13-49-02.432843
121	7	2	3	122	stable	1	200	122	sv	green	brown	green	brown	left	right	0.7	0.30000000000000004	6	4	4.199999999999998	1.2000000000000002	1	0	0.7	0.30000000000000004	6	4	4.199999999999998	1.2000000000000002	valid	0.4665573790007329	51200.0	0	0.0	1.0	51200	1	51200	1	51200	1	0.7	51200	green	brown	1	6	ml	2.7.3	lorasick	sub-07_ses-02_task-ml_proj-lorasick_2021-01-20-13-49-02.432843
122	7	2	3	123	stable	1	200	123	sv	brown	green	green	brown	right	left	0.7	0.30000000000000004	6	4	4.199999999999998	1.2000000000000002	1	0	0.30000000000000004	0.7	4	6	1.2000000000000002	4.199999999999998	valid	0.5665472130021953	53248.0	0	1.0	1.0	53248	1	53248	1	53248	1	0.7	53248	green	brown	1	6	ml	2.7.3	lorasick	sub-07_ses-02_task-ml_proj-lorasick_2021-01-20-13-49-02.432843
123	7	2	3	124	stable	1	200	124	sv	brown	green	green	brown	right	left	0.7	0.30000000000000004	6	6	4.199999999999998	1.8000000000000005	1	0	0.30000000000000004	0.7	6	6	1.8000000000000005	4.199999999999998	valid	0.5165536039967265	53248.0	0	1.0	1.0	53248	1	53248	1	53248	1	0.7	53248	green	brown	0	6	ml	2.7.3	lorasick	sub-07_ses-02_task-ml_proj-lorasick_2021-01-20-13-49-02.432843
124	7	2	3	125	stable	1	200	125	sv	green	brown	green	brown	left	right	0.7	0.30000000000000004	2	10	1.4	3.0000000000000004	1	0	0.7	0.30000000000000004	2	10	1.4	3.0000000000000004	valid	0.4498940599987691	51200.0	0	0.0	1.0	53248	0	51200	1	53248	0	0.7	51200	green	brown	0	2	ml	2.7.3	lorasick	sub-07_ses-02_task-ml_proj-lorasick_2021-01-20-13-49-02.432843
125	7	2	3	126	stable	1	200	126	sv	brown	green	green	brown	right	left	0.7	0.30000000000000004	6	2	4.199999999999998	0.6000000000000001	1	0	0.30000000000000004	0.7	2	6	0.6000000000000001	4.199999999999998	valid	0.4499058490000607	53248.0	0	1.0	1.0	53248	1	53248	1	53248	1	0.7	53248	green	brown	1	6	ml	2.7.3	lorasick	sub-07_ses-02_task-ml_proj-lorasick_2021-01-20-13-49-02.432843
126	7	2	3	127	stable	1	200	127	sv	green	brown	green	brown	left	right	0.7	0.30000000000000004	4	6	2.8	1.8000000000000005	1	0	0.7	0.30000000000000004	4	6	2.8	1.8000000000000005	valid	0.4498906199987687	51200.0	0	0.0	1.0	51200	1	51200	1	53248	0	0.7	51200	green	brown	0	4	ml	2.7.3	lorasick	sub-07_ses-02_task-ml_proj-lorasick_2021-01-20-13-49-02.432843
127	7	2	3	128	stable	1	200	128	sv	green	brown	green	brown	left	right	0.7	0.30000000000000004	6	6	4.199999999999998	1.8000000000000005	1	0	0.7	0.30000000000000004	6	6	4.199999999999998	1.8000000000000005	valid	0.9830756029987242	51200.0	0	0.0	1.0	51200	1	51200	1	53248	0	0.7	51200	green	brown	1	6	ml	2.7.3	lorasick	sub-07_ses-02_task-ml_proj-lorasick_2021-01-20-13-49-02.432843
128	7	2	3	129	stable	1	200	129	sv	green	brown	green	brown	left	right	0.7	0.30000000000000004	6	2	4.199999999999998	0.6000000000000001	0	1	0.7	0.30000000000000004	6	2	4.199999999999998	0.6000000000000001	invalid	0.4998832810015301	51200.0	0	0.0	1.0	51200	1	51200	1	51200	1	0.7	51200	green	brown	1	0	ml	2.7.3	lorasick	sub-07_ses-02_task-ml_proj-lorasick_2021-01-20-13-49-02.432843
129	7	2	3	130	stable	1	200	130	sv	brown	green	green	brown	right	left	0.7	0.30000000000000004	2	4	1.4	1.2000000000000002	1	0	0.30000000000000004	0.7	4	2	1.2000000000000002	1.4	valid	1.1163801260008768	53248.0	0	1.0	1.0	53248	1	53248	1	51200	0	0.7	53248	green	brown	0	2	ml	2.7.3	lorasick	sub-07_ses-02_task-ml_proj-lorasick_2021-01-20-13-49-02.432843
130	7	2	3	131	stable	1	200	131	sv	green	brown	green	brown	left	right	0.7	0.30000000000000004	4	2	2.8	0.6000000000000001	0	1	0.7	0.30000000000000004	4	2	2.8	0.6000000000000001	invalid	0.8831045820006693	51200.0	0	0.0	1.0	51200	1	51200	1	51200	1	0.7	51200	green	brown	1	0	ml	2.7.3	lorasick	sub-07_ses-02_task-ml_proj-lorasick_2021-01-20-13-49-02.432843
131	7	2	3	132	stable	1	200	132	sv	green	brown	green	brown	left	right	0.7	0.30000000000000004	2	6	1.4	1.8000000000000005	1	0	0.7	0.30000000000000004	2	6	1.4	1.8000000000000005	valid	1.0497207840016929	51200.0	0	0.0	1.0	53248	0	51200	1	53248	0	0.7	51200	green	brown	0	2	ml	2.7.3	lorasick	sub-07_ses-02_task-ml_proj-lorasick_2021-01-20-13-49-02.432843
132	7	2	3	133	stable	1	200	133	sv	brown	green	green	brown	right	left	0.7	0.30000000000000004	10	2	7.0	0.6000000000000001	1	0	0.30000000000000004	0.7	2	10	0.6000000000000001	7.0	valid	0.8497924580005929	53248.0	0	1.0	1.0	53248	1	53248	1	53248	1	0.7	53248	green	brown	1	10	ml	2.7.3	lorasick	sub-07_ses-02_task-ml_proj-lorasick_2021-01-20-13-49-02.432843
133	7	2	3	134	stable	1	200	134	sv	green	brown	green	brown	left	right	0.7	0.30000000000000004	4	2	2.8	0.6000000000000001	0	1	0.7	0.30000000000000004	4	2	2.8	0.6000000000000001	invalid	0.4665617190003104	51200.0	0	0.0	1.0	51200	1	51200	1	51200	1	0.7	51200	green	brown	1	0	ml	2.7.3	lorasick	sub-07_ses-02_task-ml_proj-lorasick_2021-01-20-13-49-02.432843
134	7	2	3	135	stable	1	200	135	sv	green	brown	green	brown	left	right	0.7	0.30000000000000004	2	4	1.4	1.2000000000000002	1	0	0.7	0.30000000000000004	2	4	1.4	1.2000000000000002	valid	0.6664998220003326	51200.0	0	0.0	1.0	51200	1	51200	1	53248	0	0.7	51200	green	brown	0	2	ml	2.7.3	lorasick	sub-07_ses-02_task-ml_proj-lorasick_2021-01-20-13-49-02.432843
135	7	2	3	136	stable	1	200	136	sv	green	brown	green	brown	left	right	0.7	0.30000000000000004	2	6	1.4	1.8000000000000005	0	1	0.7	0.30000000000000004	2	6	1.4	1.8000000000000005	invalid	0.8664531330032332	53248.0	0	1.0	2.0	53248	1	51200	0	53248	1	0.7	51200	green	brown	0	6	ml	2.7.3	lorasick	sub-07_ses-02_task-ml_proj-lorasick_2021-01-20-13-49-02.432843
136	7	2	3	137	stable	1	200	137	sv	brown	green	green	brown	right	left	0.7	0.30000000000000004	6	2	4.199999999999998	0.6000000000000001	1	0	0.30000000000000004	0.7	2	6	0.6000000000000001	4.199999999999998	valid	0.3332648720024736	51200.0	0	0.0	2.0	53248	0	53248	0	53248	0	0.7	53248	green	brown	1	0	ml	2.7.3	lorasick	sub-07_ses-02_task-ml_proj-lorasick_2021-01-20-13-49-02.432843
137	7	2	3	138	stable	1	200	138	sv	brown	green	green	brown	right	left	0.7	0.30000000000000004	4	6	2.8	1.8000000000000005	1	0	0.30000000000000004	0.7	6	4	1.8000000000000005	2.8	valid	0.6331879060016945	53248.0	0	1.0	1.0	53248	1	53248	1	51200	0	0.7	53248	green	brown	0	4	ml	2.7.3	lorasick	sub-07_ses-02_task-ml_proj-lorasick_2021-01-20-13-49-02.432843
138	7	2	3	139	stable	1	200	139	sv	green	brown	green	brown	left	right	0.7	0.30000000000000004	2	10	1.4	3.0000000000000004	0	1	0.7	0.30000000000000004	2	10	1.4	3.0000000000000004	invalid	0.3999164730012126	51200.0	0	0.0	1.0	53248	0	51200	1	53248	0	0.7	51200	green	brown	0	0	ml	2.7.3	lorasick	sub-07_ses-02_task-ml_proj-lorasick_2021-01-20-13-49-02.432843
139	7	2	3	140	stable	1	200	140	sv	brown	green	green	brown	right	left	0.7	0.30000000000000004	2	2	1.4	0.6000000000000001	0	1	0.30000000000000004	0.7	2	2	0.6000000000000001	1.4	invalid	0.5332150319991342	53248.0	0	1.0	1.0	53248	1	53248	1	53248	1	0.7	53248	green	brown	0	0	ml	2.7.3	lorasick	sub-07_ses-02_task-ml_proj-lorasick_2021-01-20-13-49-02.432843
140	7	2	3	141	stable	1	200	141	sv	green	brown	green	brown	left	right	0.7	0.30000000000000004	6	4	4.199999999999998	1.2000000000000002	1	0	0.7	0.30000000000000004	6	4	4.199999999999998	1.2000000000000002	valid	0.583199903001514	53248.0	0	1.0	2.0	51200	0	51200	0	51200	0	0.7	51200	green	brown	1	0	ml	2.7.3	lorasick	sub-07_ses-02_task-ml_proj-lorasick_2021-01-20-13-49-02.432843
141	7	2	3	142	stable	1	200	142	sv	green	brown	green	brown	left	right	0.7	0.30000000000000004	2	6	1.4	1.8000000000000005	0	1	0.7	0.30000000000000004	2	6	1.4	1.8000000000000005	invalid	0.7331527580026886	53248.0	0	1.0	2.0	53248	1	51200	0	53248	1	0.7	51200	green	brown	0	6	ml	2.7.3	lorasick	sub-07_ses-02_task-ml_proj-lorasick_2021-01-20-13-49-02.432843
142	7	2	3	143	stable	1	200	143	sv	green	brown	green	brown	left	right	0.7	0.30000000000000004	2	6	1.4	1.8000000000000005	1	0	0.7	0.30000000000000004	2	6	1.4	1.8000000000000005	valid	0.7331577509976341	53248.0	0	1.0	2.0	53248	1	51200	0	53248	1	0.7	51200	green	brown	0	0	ml	2.7.3	lorasick	sub-07_ses-02_task-ml_proj-lorasick_2021-01-20-13-49-02.432843
143	7	2	3	144	stable	1	200	144	sv	brown	green	green	brown	right	left	0.7	0.30000000000000004	2	4	1.4	1.2000000000000002	1	0	0.30000000000000004	0.7	4	2	1.2000000000000002	1.4	valid	0.6165311459990335	53248.0	0	1.0	1.0	53248	1	53248	1	51200	0	0.7	53248	green	brown	0	2	ml	2.7.3	lorasick	sub-07_ses-02_task-ml_proj-lorasick_2021-01-20-13-49-02.432843
144	7	2	3	145	stable	1	200	145	sv	brown	green	green	brown	right	left	0.7	0.30000000000000004	6	4	4.199999999999998	1.2000000000000002	1	0	0.30000000000000004	0.7	4	6	1.2000000000000002	4.199999999999998	valid	0.5665318889987248	51200.0	0	0.0	2.0	53248	0	53248	0	53248	0	0.7	53248	green	brown	1	0	ml	2.7.3	lorasick	sub-07_ses-02_task-ml_proj-lorasick_2021-01-20-13-49-02.432843
145	7	2	3	146	stable	1	200	146	sv	green	brown	green	brown	left	right	0.7	0.30000000000000004	6	6	4.199999999999998	1.8000000000000005	0	1	0.7	0.30000000000000004	6	6	4.199999999999998	1.8000000000000005	invalid	0.599859390000347	53248.0	0	1.0	2.0	51200	0	51200	0	53248	1	0.7	51200	green	brown	1	6	ml	2.7.3	lorasick	sub-07_ses-02_task-ml_proj-lorasick_2021-01-20-13-49-02.432843
146	7	2	3	147	stable	1	200	147	sv	brown	green	green	brown	right	left	0.7	0.30000000000000004	6	2	4.199999999999998	0.6000000000000001	1	0	0.30000000000000004	0.7	2	6	0.6000000000000001	4.199999999999998	valid	0.8831251350020466	53248.0	0	1.0	1.0	53248	1	53248	1	53248	1	0.7	53248	green	brown	1	6	ml	2.7.3	lorasick	sub-07_ses-02_task-ml_proj-lorasick_2021-01-20-13-49-02.432843
147	7	2	3	148	stable	1	200	148	sv	green	brown	green	brown	left	right	0.7	0.30000000000000004	4	2	2.8	0.6000000000000001	1	0	0.7	0.30000000000000004	4	2	2.8	0.6000000000000001	valid	0.4832201239987626	51200.0	0	0.0	1.0	51200	1	51200	1	51200	1	0.7	51200	green	brown	1	4	ml	2.7.3	lorasick	sub-07_ses-02_task-ml_proj-lorasick_2021-01-20-13-49-02.432843
148	7	2	3	149	stable	1	200	149	sv	brown	green	green	brown	right	left	0.7	0.30000000000000004	10	2	7.0	0.6000000000000001	1	0	0.30000000000000004	0.7	2	10	0.6000000000000001	7.0	valid	0.6331797709972307	53248.0	0	1.0	1.0	53248	1	53248	1	53248	1	0.7	53248	green	brown	1	10	ml	2.7.3	lorasick	sub-07_ses-02_task-ml_proj-lorasick_2021-01-20-13-49-02.432843
149	7	2	3	150	stable	1	200	150	sv	brown	green	green	brown	right	left	0.7	0.30000000000000004	4	2	2.8	0.6000000000000001	1	0	0.30000000000000004	0.7	2	4	0.6000000000000001	2.8	valid	0.8997809200009215	53248.0	0	1.0	1.0	53248	1	53248	1	53248	1	0.7	53248	green	brown	1	4	ml	2.7.3	lorasick	sub-07_ses-02_task-ml_proj-lorasick_2021-01-20-13-49-02.432843
150	7	2	4	151	stable	1	200	151	sv	brown	green	green	brown	right	left	0.7	0.30000000000000004	2	6	1.4	1.8000000000000005	1	0	0.30000000000000004	0.7	6	2	1.8000000000000005	1.4	valid	0.6665031910015387	51200.0	0	0.0	2.0	51200	1	53248	0	51200	1	0.7	53248	green	brown	0	0	ml	2.7.3	lorasick	sub-07_ses-02_task-ml_proj-lorasick_2021-01-20-13-49-02.432843
151	7	2	4	152	stable	1	200	152	sv	green	brown	green	brown	left	right	0.7	0.30000000000000004	10	2	7.0	0.6000000000000001	1	0	0.7	0.30000000000000004	10	2	7.0	0.6000000000000001	valid	0.616514746001485	51200.0	0	0.0	1.0	51200	1	51200	1	51200	1	0.7	51200	green	brown	1	10	ml	2.7.3	lorasick	sub-07_ses-02_task-ml_proj-lorasick_2021-01-20-13-49-02.432843
152	7	2	4	153	stable	1	200	153	sv	brown	green	green	brown	right	left	0.7	0.30000000000000004	4	6	2.8	1.8000000000000005	1	0	0.30000000000000004	0.7	6	4	1.8000000000000005	2.8	valid	0.5665388339984929	53248.0	0	1.0	1.0	53248	1	53248	1	51200	0	0.7	53248	green	brown	0	4	ml	2.7.3	lorasick	sub-07_ses-02_task-ml_proj-lorasick_2021-01-20-13-49-02.432843
153	7	2	4	154	stable	1	200	154	sv	green	brown	green	brown	left	right	0.7	0.30000000000000004	2	6	1.4	1.8000000000000005	0	1	0.7	0.30000000000000004	2	6	1.4	1.8000000000000005	invalid	0.5998620219979784	51200.0	0	0.0	1.0	53248	0	51200	1	53248	0	0.7	51200	green	brown	0	0	ml	2.7.3	lorasick	sub-07_ses-02_task-ml_proj-lorasick_2021-01-20-13-49-02.432843
154	7	2	4	155	stable	1	200	155	sv	green	brown	green	brown	left	right	0.7	0.30000000000000004	6	2	4.199999999999998	0.6000000000000001	1	0	0.7	0.30000000000000004	6	2	4.199999999999998	0.6000000000000001	valid	0.4832185840023158	51200.0	0	0.0	1.0	51200	1	51200	1	51200	1	0.7	51200	green	brown	1	6	ml	2.7.3	lorasick	sub-07_ses-02_task-ml_proj-lorasick_2021-01-20-13-49-02.432843
155	7	2	4	156	stable	1	200	156	sv	brown	green	green	brown	right	left	0.7	0.30000000000000004	2	2	1.4	0.6000000000000001	0	1	0.30000000000000004	0.7	2	2	0.6000000000000001	1.4	invalid	0.6498550860014802	53248.0	0	1.0	1.0	53248	1	53248	1	53248	1	0.7	53248	green	brown	0	0	ml	2.7.3	lorasick	sub-07_ses-02_task-ml_proj-lorasick_2021-01-20-13-49-02.432843
156	7	2	4	157	stable	1	200	157	sv	green	brown	green	brown	left	right	0.7	0.30000000000000004	10	2	7.0	0.6000000000000001	1	0	0.7	0.30000000000000004	10	2	7.0	0.6000000000000001	valid	0.4832192960020621	51200.0	0	0.0	1.0	51200	1	51200	1	51200	1	0.7	51200	green	brown	1	10	ml	2.7.3	lorasick	sub-07_ses-02_task-ml_proj-lorasick_2021-01-20-13-49-02.432843
157	7	2	4	158	stable	1	200	158	sv	green	brown	green	brown	left	right	0.7	0.30000000000000004	2	6	1.4	1.8000000000000005	1	0	0.7	0.30000000000000004	2	6	1.4	1.8000000000000005	valid	0.8997779849996732	53248.0	0	1.0	2.0	53248	1	51200	0	53248	1	0.7	51200	green	brown	0	0	ml	2.7.3	lorasick	sub-07_ses-02_task-ml_proj-lorasick_2021-01-20-13-49-02.432843
158	7	2	4	159	stable	1	200	159	sv	brown	green	green	brown	right	left	0.7	0.30000000000000004	2	4	1.4	1.2000000000000002	0	1	0.30000000000000004	0.7	4	2	1.2000000000000002	1.4	invalid	0.5832029109988071	53248.0	0	1.0	1.0	53248	1	53248	1	51200	0	0.7	53248	green	brown	0	0	ml	2.7.3	lorasick	sub-07_ses-02_task-ml_proj-lorasick_2021-01-20-13-49-02.432843
159	7	2	4	160	stable	1	200	160	sv	green	brown	green	brown	left	right	0.7	0.30000000000000004	2	2	1.4	0.6000000000000001	1	0	0.7	0.30000000000000004	2	2	1.4	0.6000000000000001	valid	0.5665392849987256	53248.0	0	1.0	2.0	51200	0	51200	0	53248	1	0.7	51200	green	brown	1	0	ml	2.7.3	lorasick	sub-07_ses-02_task-ml_proj-lorasick_2021-01-20-13-49-02.432843
160	7	2	4	161	stable	1	200	161	sv	green	brown	green	brown	left	right	0.7	0.30000000000000004	2	4	1.4	1.2000000000000002	1	0	0.7	0.30000000000000004	2	4	1.4	1.2000000000000002	valid	0.6831614029979391	51200.0	0	0.0	1.0	51200	1	51200	1	53248	0	0.7	51200	green	brown	0	2	ml	2.7.3	lorasick	sub-07_ses-02_task-ml_proj-lorasick_2021-01-20-13-49-02.432843
161	7	2	4	162	stable	1	200	162	sv	green	brown	green	brown	left	right	0.7	0.30000000000000004	2	4	1.4	1.2000000000000002	0	1	0.7	0.30000000000000004	2	4	1.4	1.2000000000000002	invalid	0.5498650039990025	51200.0	0	0.0	1.0	51200	1	51200	1	53248	0	0.7	51200	green	brown	0	0	ml	2.7.3	lorasick	sub-07_ses-02_task-ml_proj-lorasick_2021-01-20-13-49-02.432843
162	7	2	4	163	stable	1	200	163	sv	brown	green	green	brown	right	left	0.7	0.30000000000000004	4	6	2.8	1.8000000000000005	0	1	0.30000000000000004	0.7	6	4	1.8000000000000005	2.8	invalid	0.5332111309980974	53248.0	0	1.0	1.0	53248	1	53248	1	51200	0	0.7	53248	green	brown	0	0	ml	2.7.3	lorasick	sub-07_ses-02_task-ml_proj-lorasick_2021-01-20-13-49-02.432843
163	7	2	4	164	stable	1	200	164	sv	green	brown	green	brown	left	right	0.7	0.30000000000000004	6	6	4.199999999999998	1.8000000000000005	1	0	0.7	0.30000000000000004	6	6	4.199999999999998	1.8000000000000005	valid	0.5831913679976424	51200.0	0	0.0	1.0	51200	1	51200	1	53248	0	0.7	51200	green	brown	1	6	ml	2.7.3	lorasick	sub-07_ses-02_task-ml_proj-lorasick_2021-01-20-13-49-02.432843
164	7	2	4	165	stable	1	200	165	sv	green	brown	green	brown	left	right	0.7	0.30000000000000004	6	6	4.199999999999998	1.8000000000000005	0	1	0.7	0.30000000000000004	6	6	4.199999999999998	1.8000000000000005	invalid	0.4998814249993302	51200.0	0	0.0	1.0	51200	1	51200	1	53248	0	0.7	51200	green	brown	1	0	ml	2.7.3	lorasick	sub-07_ses-02_task-ml_proj-lorasick_2021-01-20-13-49-02.432843
165	7	2	4	166	stable	1	200	166	sv	brown	green	green	brown	right	left	0.7	0.30000000000000004	2	10	1.4	3.0000000000000004	1	0	0.30000000000000004	0.7	10	2	3.0000000000000004	1.4	valid	0.6998296570018283	53248.0	0	1.0	1.0	51200	0	53248	1	51200	0	0.7	53248	green	brown	0	2	ml	2.7.3	lorasick	sub-07_ses-02_task-ml_proj-lorasick_2021-01-20-13-49-02.432843
166	7	2	4	167	stable	1	200	167	sv	green	brown	green	brown	left	right	0.7	0.30000000000000004	6	6	4.199999999999998	1.8000000000000005	1	0	0.7	0.30000000000000004	6	6	4.199999999999998	1.8000000000000005	valid	0.6331743540031312	51200.0	0	0.0	1.0	51200	1	51200	1	53248	0	0.7	51200	green	brown	1	6	ml	2.7.3	lorasick	sub-07_ses-02_task-ml_proj-lorasick_2021-01-20-13-49-02.432843
167	7	2	4	168	stable	1	200	168	sv	brown	green	green	brown	right	left	0.7	0.30000000000000004	2	2	1.4	0.6000000000000001	1	0	0.30000000000000004	0.7	2	2	0.6000000000000001	1.4	valid	0.4832277000023169	53248.0	0	1.0	1.0	53248	1	53248	1	53248	1	0.7	53248	green	brown	0	2	ml	2.7.3	lorasick	sub-07_ses-02_task-ml_proj-lorasick_2021-01-20-13-49-02.432843
168	7	2	4	169	stable	1	200	169	sv	green	brown	green	brown	left	right	0.7	0.30000000000000004	2	4	1.4	1.2000000000000002	1	0	0.7	0.30000000000000004	2	4	1.4	1.2000000000000002	valid	0.3832499150012154	51200.0	0	0.0	1.0	51200	1	51200	1	53248	0	0.7	51200	green	brown	0	2	ml	2.7.3	lorasick	sub-07_ses-02_task-ml_proj-lorasick_2021-01-20-13-49-02.432843
169	7	2	4	170	stable	1	200	170	sv	brown	green	green	brown	right	left	0.7	0.30000000000000004	6	2	4.199999999999998	0.6000000000000001	1	0	0.30000000000000004	0.7	2	6	0.6000000000000001	4.199999999999998	valid	0.5998639290010033	53248.0	0	1.0	1.0	53248	1	53248	1	53248	1	0.7	53248	green	brown	1	6	ml	2.7.3	lorasick	sub-07_ses-02_task-ml_proj-lorasick_2021-01-20-13-49-02.432843
170	7	2	4	171	stable	1	200	171	sv	green	brown	green	brown	left	right	0.7	0.30000000000000004	10	2	7.0	0.6000000000000001	1	0	0.7	0.30000000000000004	10	2	7.0	0.6000000000000001	valid	0.483219690999249	51200.0	0	0.0	1.0	51200	1	51200	1	51200	1	0.7	51200	green	brown	1	10	ml	2.7.3	lorasick	sub-07_ses-02_task-ml_proj-lorasick_2021-01-20-13-49-02.432843
171	7	2	4	172	stable	1	200	172	sv	green	brown	green	brown	left	right	0.7	0.30000000000000004	4	2	2.8	0.6000000000000001	0	1	0.7	0.30000000000000004	4	2	2.8	0.6000000000000001	invalid	0.5665317480015801	51200.0	0	0.0	1.0	51200	1	51200	1	51200	1	0.7	51200	green	brown	1	0	ml	2.7.3	lorasick	sub-07_ses-02_task-ml_proj-lorasick_2021-01-20-13-49-02.432843
172	7	2	4	173	stable	1	200	173	sv	green	brown	green	brown	left	right	0.7	0.30000000000000004	6	6	4.199999999999998	1.8000000000000005	1	0	0.7	0.30000000000000004	6	6	4.199999999999998	1.8000000000000005	valid	0.4832276400011324	53248.0	0	1.0	2.0	51200	0	51200	0	53248	1	0.7	51200	green	brown	1	0	ml	2.7.3	lorasick	sub-07_ses-02_task-ml_proj-lorasick_2021-01-20-13-49-02.432843
173	7	2	4	174	stable	1	200	174	sv	green	brown	green	brown	left	right	0.7	0.30000000000000004	4	6	2.8	1.8000000000000005	1	0	0.7	0.30000000000000004	4	6	2.8	1.8000000000000005	valid	0.3499276610018569	51200.0	0	0.0	1.0	51200	1	51200	1	53248	0	0.7	51200	green	brown	0	4	ml	2.7.3	lorasick	sub-07_ses-02_task-ml_proj-lorasick_2021-01-20-13-49-02.432843
174	7	2	4	175	stable	1	200	175	sv	green	brown	green	brown	left	right	0.7	0.30000000000000004	10	2	7.0	0.6000000000000001	0	1	0.7	0.30000000000000004	10	2	7.0	0.6000000000000001	invalid	0.4665585670009023	51200.0	0	0.0	1.0	51200	1	51200	1	51200	1	0.7	51200	green	brown	1	0	ml	2.7.3	lorasick	sub-07_ses-02_task-ml_proj-lorasick_2021-01-20-13-49-02.432843
175	7	2	4	176	stable	1	200	176	sv	green	brown	green	brown	left	right	0.7	0.30000000000000004	2	10	1.4	3.0000000000000004	1	0	0.7	0.30000000000000004	2	10	1.4	3.0000000000000004	valid	0.38326281999979983	53248.0	0	1.0	2.0	53248	1	51200	0	53248	1	0.7	51200	green	brown	0	0	ml	2.7.3	lorasick	sub-07_ses-02_task-ml_proj-lorasick_2021-01-20-13-49-02.432843
176	7	2	4	177	stable	1	200	177	sv	brown	green	green	brown	right	left	0.7	0.30000000000000004	6	2	4.199999999999998	0.6000000000000001	1	0	0.30000000000000004	0.7	2	6	0.6000000000000001	4.199999999999998	valid	0.4332326779986033	51200.0	0	0.0	2.0	53248	0	53248	0	53248	0	0.7	53248	green	brown	1	0	ml	2.7.3	lorasick	sub-07_ses-02_task-ml_proj-lorasick_2021-01-20-13-49-02.432843
177	7	2	4	178	stable	1	200	178	sv	green	brown	green	brown	left	right	0.7	0.30000000000000004	6	6	4.199999999999998	1.8000000000000005	1	0	0.7	0.30000000000000004	6	6	4.199999999999998	1.8000000000000005	valid	0.5498763510004211	53248.0	0	1.0	2.0	51200	0	51200	0	53248	1	0.7	51200	green	brown	1	0	ml	2.7.3	lorasick	sub-07_ses-02_task-ml_proj-lorasick_2021-01-20-13-49-02.432843
178	7	2	4	179	stable	1	200	179	sv	green	brown	green	brown	left	right	0.7	0.30000000000000004	10	2	7.0	0.6000000000000001	1	0	0.7	0.30000000000000004	10	2	7.0	0.6000000000000001	valid	0.3499238209988107	51200.0	0	0.0	1.0	51200	1	51200	1	51200	1	0.7	51200	green	brown	1	10	ml	2.7.3	lorasick	sub-07_ses-02_task-ml_proj-lorasick_2021-01-20-13-49-02.432843
179	7	2	4	180	stable	1	200	180	sv	brown	green	green	brown	right	left	0.7	0.30000000000000004	10	2	7.0	0.6000000000000001	1	0	0.30000000000000004	0.7	2	10	0.6000000000000001	7.0	valid	0.4165850399986084	53248.0	0	1.0	1.0	53248	1	53248	1	53248	1	0.7	53248	green	brown	1	10	ml	2.7.3	lorasick	sub-07_ses-02_task-ml_proj-lorasick_2021-01-20-13-49-02.432843
180	7	2	4	181	stable	1	200	181	sv	brown	green	green	brown	right	left	0.7	0.30000000000000004	10	2	7.0	0.6000000000000001	0	1	0.30000000000000004	0.7	2	10	0.6000000000000001	7.0	invalid	0.5998635650030337	53248.0	0	1.0	1.0	53248	1	53248	1	53248	1	0.7	53248	green	brown	1	0	ml	2.7.3	lorasick	sub-07_ses-02_task-ml_proj-lorasick_2021-01-20-13-49-02.432843
181	7	2	4	182	stable	1	200	182	sv	green	brown	green	brown	left	right	0.7	0.30000000000000004	2	6	1.4	1.8000000000000005	0	1	0.7	0.30000000000000004	2	6	1.4	1.8000000000000005	invalid	0.5331975040026009	51200.0	0	0.0	1.0	53248	0	51200	1	53248	0	0.7	51200	green	brown	0	0	ml	2.7.3	lorasick	sub-07_ses-02_task-ml_proj-lorasick_2021-01-20-13-49-02.432843
182	7	2	4	183	stable	1	200	183	sv	brown	green	green	brown	right	left	0.7	0.30000000000000004	6	2	4.199999999999998	0.6000000000000001	1	0	0.30000000000000004	0.7	2	6	0.6000000000000001	4.199999999999998	valid	0.4665699059987674	53248.0	0	1.0	1.0	53248	1	53248	1	53248	1	0.7	53248	green	brown	1	6	ml	2.7.3	lorasick	sub-07_ses-02_task-ml_proj-lorasick_2021-01-20-13-49-02.432843
183	7	2	4	184	stable	1	200	184	sv	brown	green	green	brown	right	left	0.7	0.30000000000000004	2	10	1.4	3.0000000000000004	1	0	0.30000000000000004	0.7	10	2	3.0000000000000004	1.4	valid	0.6331877889970201	53248.0	0	1.0	1.0	51200	0	53248	1	51200	0	0.7	53248	green	brown	0	2	ml	2.7.3	lorasick	sub-07_ses-02_task-ml_proj-lorasick_2021-01-20-13-49-02.432843
184	7	2	4	185	stable	1	200	185	sv	brown	green	green	brown	right	left	0.7	0.30000000000000004	2	6	1.4	1.8000000000000005	0	1	0.30000000000000004	0.7	6	2	1.8000000000000005	1.4	invalid	0.4165822969989677	53248.0	0	1.0	1.0	51200	0	53248	1	51200	0	0.7	53248	green	brown	0	0	ml	2.7.3	lorasick	sub-07_ses-02_task-ml_proj-lorasick_2021-01-20-13-49-02.432843
185	7	2	4	186	stable	1	200	186	sv	brown	green	green	brown	right	left	0.7	0.30000000000000004	2	2	1.4	0.6000000000000001	1	0	0.30000000000000004	0.7	2	2	0.6000000000000001	1.4	valid	0.4832210919994395	51200.0	0	0.0	2.0	53248	0	53248	0	53248	0	0.7	53248	green	brown	0	0	ml	2.7.3	lorasick	sub-07_ses-02_task-ml_proj-lorasick_2021-01-20-13-49-02.432843
186	7	2	4	187	stable	1	200	187	sv	green	brown	green	brown	left	right	0.7	0.30000000000000004	2	10	1.4	3.0000000000000004	1	0	0.7	0.30000000000000004	2	10	1.4	3.0000000000000004	valid	0.7498193290011841	53248.0	0	1.0	2.0	53248	1	51200	0	53248	1	0.7	51200	green	brown	0	0	ml	2.7.3	lorasick	sub-07_ses-02_task-ml_proj-lorasick_2021-01-20-13-49-02.432843
187	7	2	4	188	stable	1	200	188	sv	brown	green	green	brown	right	left	0.7	0.30000000000000004	10	2	7.0	0.6000000000000001	0	1	0.30000000000000004	0.7	2	10	0.6000000000000001	7.0	invalid	0.9497613769999588	53248.0	0	1.0	1.0	53248	1	53248	1	53248	1	0.7	53248	green	brown	1	0	ml	2.7.3	lorasick	sub-07_ses-02_task-ml_proj-lorasick_2021-01-20-13-49-02.432843
188	7	2	4	189	stable	1	200	189	sv	green	brown	green	brown	left	right	0.7	0.30000000000000004	6	2	4.199999999999998	0.6000000000000001	1	0	0.7	0.30000000000000004	6	2	4.199999999999998	0.6000000000000001	valid	0.5165431319983327	51200.0	0	0.0	1.0	51200	1	51200	1	51200	1	0.7	51200	green	brown	1	6	ml	2.7.3	lorasick	sub-07_ses-02_task-ml_proj-lorasick_2021-01-20-13-49-02.432843
189	7	2	4	190	stable	1	200	190	sv	green	brown	green	brown	left	right	0.7	0.30000000000000004	6	2	4.199999999999998	0.6000000000000001	1	0	0.7	0.30000000000000004	6	2	4.199999999999998	0.6000000000000001	valid	0.4165719489974435	51200.0	0	0.0	1.0	51200	1	51200	1	51200	1	0.7	51200	green	brown	1	6	ml	2.7.3	lorasick	sub-07_ses-02_task-ml_proj-lorasick_2021-01-20-13-49-02.432843
190	7	2	4	191	stable	1	200	191	sv	green	brown	green	brown	left	right	0.7	0.30000000000000004	6	2	4.199999999999998	0.6000000000000001	0	1	0.7	0.30000000000000004	6	2	4.199999999999998	0.6000000000000001	invalid	0.31661403700127266	51200.0	0	0.0	1.0	51200	1	51200	1	51200	1	0.7	51200	green	brown	1	0	ml	2.7.3	lorasick	sub-07_ses-02_task-ml_proj-lorasick_2021-01-20-13-49-02.432843
191	7	2	4	192	stable	1	200	192	sv	brown	green	green	brown	right	left	0.7	0.30000000000000004	2	6	1.4	1.8000000000000005	0	1	0.30000000000000004	0.7	6	2	1.8000000000000005	1.4	invalid	0.4665722850004386	53248.0	0	1.0	1.0	51200	0	53248	1	51200	0	0.7	53248	green	brown	0	0	ml	2.7.3	lorasick	sub-07_ses-02_task-ml_proj-lorasick_2021-01-20-13-49-02.432843
192	7	2	4	193	stable	1	200	193	sv	green	brown	green	brown	left	right	0.7	0.30000000000000004	10	2	7.0	0.6000000000000001	1	0	0.7	0.30000000000000004	10	2	7.0	0.6000000000000001	valid	0.3166011859975697	51200.0	0	0.0	1.0	51200	1	51200	1	51200	1	0.7	51200	green	brown	1	10	ml	2.7.3	lorasick	sub-07_ses-02_task-ml_proj-lorasick_2021-01-20-13-49-02.432843
193	7	2	4	194	stable	1	200	194	sv	brown	green	green	brown	right	left	0.7	0.30000000000000004	2	6	1.4	1.8000000000000005	0	1	0.30000000000000004	0.7	6	2	1.8000000000000005	1.4	invalid	0.7498197380009515	53248.0	0	1.0	1.0	51200	0	53248	1	51200	0	0.7	53248	green	brown	0	0	ml	2.7.3	lorasick	sub-07_ses-02_task-ml_proj-lorasick_2021-01-20-13-49-02.432843
194	7	2	4	195	stable	1	200	195	sv	brown	green	green	brown	right	left	0.7	0.30000000000000004	2	6	1.4	1.8000000000000005	1	0	0.30000000000000004	0.7	6	2	1.8000000000000005	1.4	valid	1.3996262189975823	51200.0	0	0.0	2.0	51200	1	53248	0	51200	1	0.7	53248	green	brown	0	0	ml	2.7.3	lorasick	sub-07_ses-02_task-ml_proj-lorasick_2021-01-20-13-49-02.432843
195	7	2	4	196	stable	1	200	196	sv	brown	green	green	brown	right	left	0.7	0.30000000000000004	6	4	4.199999999999998	1.2000000000000002	1	0	0.30000000000000004	0.7	4	6	1.2000000000000002	4.199999999999998	valid	0.4332457999989856	53248.0	0	1.0	1.0	53248	1	53248	1	53248	1	0.7	53248	green	brown	1	6	ml	2.7.3	lorasick	sub-07_ses-02_task-ml_proj-lorasick_2021-01-20-13-49-02.432843
196	7	2	4	197	stable	1	200	197	sv	green	brown	green	brown	left	right	0.7	0.30000000000000004	4	6	2.8	1.8000000000000005	0	1	0.7	0.30000000000000004	4	6	2.8	1.8000000000000005	invalid	0.8497775649993855	51200.0	0	0.0	1.0	51200	1	51200	1	53248	0	0.7	51200	green	brown	0	0	ml	2.7.3	lorasick	sub-07_ses-02_task-ml_proj-lorasick_2021-01-20-13-49-02.432843
197	7	2	4	198	stable	1	200	198	sv	green	brown	green	brown	left	right	0.7	0.30000000000000004	2	6	1.4	1.8000000000000005	1	0	0.7	0.30000000000000004	2	6	1.4	1.8000000000000005	valid	0.7331454079976538	51200.0	0	0.0	1.0	53248	0	51200	1	53248	0	0.7	51200	green	brown	0	2	ml	2.7.3	lorasick	sub-07_ses-02_task-ml_proj-lorasick_2021-01-20-13-49-02.432843
198	7	2	4	199	stable	1	200	199	sv	green	brown	green	brown	left	right	0.7	0.30000000000000004	2	10	1.4	3.0000000000000004	1	0	0.7	0.30000000000000004	2	10	1.4	3.0000000000000004	valid	1.266327993998857	51200.0	0	0.0	1.0	53248	0	51200	1	53248	0	0.7	51200	green	brown	0	2	ml	2.7.3	lorasick	sub-07_ses-02_task-ml_proj-lorasick_2021-01-20-13-49-02.432843
199	7	2	4	200	stable	1	200	200	sv	green	brown	green	brown	left	right	0.7	0.30000000000000004	2	4	1.4	1.2000000000000002	1	0	0.7	0.30000000000000004	2	4	1.4	1.2000000000000002	valid	1.916134997001791	51200.0	0	0.0	1.0	51200	1	51200	1	53248	0	0.7	51200	green	brown	0	2	ml	2.7.3	lorasick	sub-07_ses-02_task-ml_proj-lorasick_2021-01-20-13-49-02.432843
200	7	2	5	201	volatile	2	40	1	sv	green	brown	green	brown	left	right	0.30000000000000004	0.7	2	4	0.6000000000000001	2.8	0	1	0.30000000000000004	0.7	2	4	0.6000000000000001	2.8	valid	0.9830901809982606	53248.0	0	1.0	2.0	53248	1	53248	1	53248	1	0.7	53248	brown	green	1	4	ml	2.7.3	lorasick	sub-07_ses-02_task-ml_proj-lorasick_2021-01-20-13-49-02.432843
201	7	2	5	202	volatile	2	40	2	sv	brown	green	green	brown	right	left	0.30000000000000004	0.7	6	6	1.8000000000000005	4.199999999999998	0	1	0.7	0.30000000000000004	6	6	4.199999999999998	1.8000000000000005	valid	0.3166055199981201	51200.0	0	0.0	2.0	51200	1	51200	1	53248	0	0.7	51200	brown	green	1	6	ml	2.7.3	lorasick	sub-07_ses-02_task-ml_proj-lorasick_2021-01-20-13-49-02.432843
202	7	2	5	203	volatile	2	40	3	sv	green	brown	green	brown	left	right	0.30000000000000004	0.7	4	6	1.2000000000000002	4.199999999999998	0	1	0.30000000000000004	0.7	4	6	1.2000000000000002	4.199999999999998	valid	0.3999252850007906	53248.0	0	1.0	2.0	53248	1	53248	1	53248	1	0.7	53248	brown	green	1	6	ml	2.7.3	lorasick	sub-07_ses-02_task-ml_proj-lorasick_2021-01-20-13-49-02.432843
203	7	2	5	204	volatile	2	40	4	sv	green	brown	green	brown	left	right	0.30000000000000004	0.7	10	2	3.0000000000000004	1.4	1	0	0.30000000000000004	0.7	10	2	3.0000000000000004	1.4	invalid	0.6498568999995769	53248.0	0	1.0	2.0	51200	0	53248	1	51200	0	0.7	53248	brown	green	0	0	ml	2.7.3	lorasick	sub-07_ses-02_task-ml_proj-lorasick_2021-01-20-13-49-02.432843
204	7	2	5	205	volatile	2	40	5	sv	green	brown	green	brown	left	right	0.30000000000000004	0.7	6	6	1.8000000000000005	4.199999999999998	0	1	0.30000000000000004	0.7	6	6	1.8000000000000005	4.199999999999998	valid	0.4498954529990442	51200.0	0	0.0	1.0	53248	0	53248	0	53248	0	0.7	53248	brown	green	0	0	ml	2.7.3	lorasick	sub-07_ses-02_task-ml_proj-lorasick_2021-01-20-13-49-02.432843
205	7	2	5	206	volatile	2	40	6	sv	green	brown	green	brown	left	right	0.30000000000000004	0.7	6	4	1.8000000000000005	2.8	1	0	0.30000000000000004	0.7	6	4	1.8000000000000005	2.8	invalid	0.3999207699998806	53248.0	0	1.0	2.0	53248	1	53248	1	51200	0	0.7	53248	brown	green	0	0	ml	2.7.3	lorasick	sub-07_ses-02_task-ml_proj-lorasick_2021-01-20-13-49-02.432843
206	7	2	5	207	volatile	2	40	7	sv	green	brown	green	brown	left	right	0.30000000000000004	0.7	6	2	1.8000000000000005	1.4	0	1	0.30000000000000004	0.7	6	2	1.8000000000000005	1.4	valid	0.3499254870002915	51200.0	0	0.0	1.0	51200	1	53248	0	51200	1	0.7	53248	brown	green	0	0	ml	2.7.3	lorasick	sub-07_ses-02_task-ml_proj-lorasick_2021-01-20-13-49-02.432843
207	7	2	5	208	volatile	2	40	8	sv	brown	green	green	brown	right	left	0.30000000000000004	0.7	2	2	0.6000000000000001	1.4	0	1	0.7	0.30000000000000004	2	2	1.4	0.6000000000000001	valid	1.0997085149974737	51200.0	0	0.0	2.0	51200	1	51200	1	53248	0	0.7	51200	brown	green	1	2	ml	2.7.3	lorasick	sub-07_ses-02_task-ml_proj-lorasick_2021-01-20-13-49-02.432843
208	7	2	5	209	volatile	2	40	9	sv	brown	green	green	brown	right	left	0.30000000000000004	0.7	10	2	3.0000000000000004	1.4	1	0	0.7	0.30000000000000004	2	10	1.4	3.0000000000000004	invalid	0.483225363001111	51200.0	0	0.0	2.0	53248	0	51200	1	53248	0	0.7	51200	brown	green	0	0	ml	2.7.3	lorasick	sub-07_ses-02_task-ml_proj-lorasick_2021-01-20-13-49-02.432843
209	7	2	5	210	volatile	2	40	10	sv	brown	green	green	brown	right	left	0.30000000000000004	0.7	4	2	1.2000000000000002	1.4	0	1	0.7	0.30000000000000004	2	4	1.4	1.2000000000000002	valid	0.9164268170025024	51200.0	0	0.0	2.0	51200	1	51200	1	53248	0	0.7	51200	brown	green	0	2	ml	2.7.3	lorasick	sub-07_ses-02_task-ml_proj-lorasick_2021-01-20-13-49-02.432843
210	7	2	5	211	volatile	2	40	11	sv	brown	green	green	brown	right	left	0.30000000000000004	0.7	2	4	0.6000000000000001	2.8	0	1	0.7	0.30000000000000004	4	2	2.8	0.6000000000000001	valid	0.5332055069993658	51200.0	0	0.0	2.0	51200	1	51200	1	51200	1	0.7	51200	brown	green	1	4	ml	2.7.3	lorasick	sub-07_ses-02_task-ml_proj-lorasick_2021-01-20-13-49-02.432843
211	7	2	5	212	volatile	2	40	12	sv	green	brown	green	brown	left	right	0.30000000000000004	0.7	2	2	0.6000000000000001	1.4	0	1	0.30000000000000004	0.7	2	2	0.6000000000000001	1.4	valid	0.6998345470019558	53248.0	0	1.0	2.0	53248	1	53248	1	53248	1	0.7	53248	brown	green	0	2	ml	2.7.3	lorasick	sub-07_ses-02_task-ml_proj-lorasick_2021-01-20-13-49-02.432843
212	7	2	5	213	volatile	2	40	13	sv	brown	green	green	brown	right	left	0.30000000000000004	0.7	2	10	0.6000000000000001	7.0	1	0	0.7	0.30000000000000004	10	2	7.0	0.6000000000000001	invalid	0.6165145599989046	51200.0	0	0.0	2.0	51200	1	51200	1	51200	1	0.7	51200	brown	green	1	0	ml	2.7.3	lorasick	sub-07_ses-02_task-ml_proj-lorasick_2021-01-20-13-49-02.432843
213	7	2	5	214	volatile	2	40	14	sv	green	brown	green	brown	left	right	0.30000000000000004	0.7	10	2	3.0000000000000004	1.4	1	0	0.30000000000000004	0.7	10	2	3.0000000000000004	1.4	invalid	0.616509783998481	51200.0	0	0.0	1.0	51200	1	53248	0	51200	1	0.7	53248	brown	green	0	10	ml	2.7.3	lorasick	sub-07_ses-02_task-ml_proj-lorasick_2021-01-20-13-49-02.432843
214	7	2	5	215	volatile	2	40	15	sv	brown	green	green	brown	right	left	0.30000000000000004	0.7	2	2	0.6000000000000001	1.4	0	1	0.7	0.30000000000000004	2	2	1.4	0.6000000000000001	valid	0.6831577899974945	53248.0	0	1.0	1.0	51200	0	51200	0	53248	1	0.7	51200	brown	green	1	0	ml	2.7.3	lorasick	sub-07_ses-02_task-ml_proj-lorasick_2021-01-20-13-49-02.432843
215	7	2	5	216	volatile	2	40	16	sv	brown	green	green	brown	right	left	0.30000000000000004	0.7	6	4	1.8000000000000005	2.8	1	0	0.7	0.30000000000000004	4	6	2.8	1.8000000000000005	invalid	0.5332182769998326	53248.0	0	1.0	1.0	51200	0	51200	0	53248	1	0.7	51200	brown	green	0	6	ml	2.7.3	lorasick	sub-07_ses-02_task-ml_proj-lorasick_2021-01-20-13-49-02.432843
216	7	2	5	217	volatile	2	40	17	sv	brown	green	green	brown	right	left	0.30000000000000004	0.7	10	2	3.0000000000000004	1.4	0	1	0.7	0.30000000000000004	2	10	1.4	3.0000000000000004	valid	0.3832660259977274	53248.0	0	1.0	1.0	53248	1	51200	0	53248	1	0.7	51200	brown	green	0	0	ml	2.7.3	lorasick	sub-07_ses-02_task-ml_proj-lorasick_2021-01-20-13-49-02.432843
217	7	2	5	218	volatile	2	40	18	sv	brown	green	green	brown	right	left	0.30000000000000004	0.7	4	2	1.2000000000000002	1.4	0	1	0.7	0.30000000000000004	2	4	1.4	1.2000000000000002	valid	0.6331766699986474	51200.0	0	0.0	2.0	51200	1	51200	1	53248	0	0.7	51200	brown	green	0	2	ml	2.7.3	lorasick	sub-07_ses-02_task-ml_proj-lorasick_2021-01-20-13-49-02.432843
218	7	2	5	219	volatile	2	40	19	sv	brown	green	green	brown	right	left	0.30000000000000004	0.7	2	2	0.6000000000000001	1.4	0	1	0.7	0.30000000000000004	2	2	1.4	0.6000000000000001	valid	0.466560720000416	51200.0	0	0.0	2.0	51200	1	51200	1	53248	0	0.7	51200	brown	green	1	2	ml	2.7.3	lorasick	sub-07_ses-02_task-ml_proj-lorasick_2021-01-20-13-49-02.432843
219	7	2	5	220	volatile	2	40	20	sv	green	brown	green	brown	left	right	0.30000000000000004	0.7	4	6	1.2000000000000002	4.199999999999998	0	1	0.30000000000000004	0.7	4	6	1.2000000000000002	4.199999999999998	valid	1.1663674990013533	53248.0	0	1.0	2.0	53248	1	53248	1	53248	1	0.7	53248	brown	green	1	6	ml	2.7.3	lorasick	sub-07_ses-02_task-ml_proj-lorasick_2021-01-20-13-49-02.432843
220	7	2	5	221	volatile	2	40	21	sv	green	brown	green	brown	left	right	0.30000000000000004	0.7	6	2	1.8000000000000005	1.4	0	1	0.30000000000000004	0.7	6	2	1.8000000000000005	1.4	valid	0.7331585780011665	53248.0	0	1.0	2.0	51200	0	53248	1	51200	0	0.7	53248	brown	green	0	2	ml	2.7.3	lorasick	sub-07_ses-02_task-ml_proj-lorasick_2021-01-20-13-49-02.432843
221	7	2	5	222	volatile	2	40	22	sv	green	brown	green	brown	left	right	0.30000000000000004	0.7	6	4	1.8000000000000005	2.8	0	1	0.30000000000000004	0.7	6	4	1.8000000000000005	2.8	valid	0.6331808860013552	53248.0	0	1.0	2.0	53248	1	53248	1	51200	0	0.7	53248	brown	green	0	4	ml	2.7.3	lorasick	sub-07_ses-02_task-ml_proj-lorasick_2021-01-20-13-49-02.432843
222	7	2	5	223	volatile	2	40	23	sv	green	brown	green	brown	left	right	0.30000000000000004	0.7	4	6	1.2000000000000002	4.199999999999998	0	1	0.30000000000000004	0.7	4	6	1.2000000000000002	4.199999999999998	valid	0.9330839220019698	53248.0	0	1.0	2.0	53248	1	53248	1	53248	1	0.7	53248	brown	green	1	6	ml	2.7.3	lorasick	sub-07_ses-02_task-ml_proj-lorasick_2021-01-20-13-49-02.432843
223	7	2	5	224	volatile	2	40	24	sv	brown	green	green	brown	right	left	0.30000000000000004	0.7	10	2	3.0000000000000004	1.4	1	0	0.7	0.30000000000000004	2	10	1.4	3.0000000000000004	invalid	0.6665107599983457	53248.0	0	1.0	1.0	53248	1	51200	0	53248	1	0.7	51200	brown	green	0	10	ml	2.7.3	lorasick	sub-07_ses-02_task-ml_proj-lorasick_2021-01-20-13-49-02.432843
224	7	2	5	225	volatile	2	40	25	sv	brown	green	green	brown	right	left	0.30000000000000004	0.7	6	2	1.8000000000000005	1.4	0	1	0.7	0.30000000000000004	2	6	1.4	1.8000000000000005	valid	0.699835286999587	53248.0	0	1.0	1.0	53248	1	51200	0	53248	1	0.7	51200	brown	green	0	0	ml	2.7.3	lorasick	sub-07_ses-02_task-ml_proj-lorasick_2021-01-20-13-49-02.432843
225	7	2	5	226	volatile	2	40	26	sv	brown	green	green	brown	right	left	0.30000000000000004	0.7	4	6	1.2000000000000002	4.199999999999998	0	1	0.7	0.30000000000000004	6	4	4.199999999999998	1.2000000000000002	valid	0.8664405829986208	51200.0	0	0.0	2.0	51200	1	51200	1	51200	1	0.7	51200	brown	green	1	6	ml	2.7.3	lorasick	sub-07_ses-02_task-ml_proj-lorasick_2021-01-20-13-49-02.432843
226	7	2	5	227	volatile	2	40	27	sv	green	brown	green	brown	left	right	0.30000000000000004	0.7	10	2	3.0000000000000004	1.4	0	1	0.30000000000000004	0.7	10	2	3.0000000000000004	1.4	valid	0.5998627679982746	53248.0	0	1.0	2.0	51200	0	53248	1	51200	0	0.7	53248	brown	green	0	2	ml	2.7.3	lorasick	sub-07_ses-02_task-ml_proj-lorasick_2021-01-20-13-49-02.432843
227	7	2	5	228	volatile	2	40	28	sv	brown	green	green	brown	right	left	0.30000000000000004	0.7	4	6	1.2000000000000002	4.199999999999998	0	1	0.7	0.30000000000000004	6	4	4.199999999999998	1.2000000000000002	valid	0.6998296689998824	51200.0	0	0.0	2.0	51200	1	51200	1	51200	1	0.7	51200	brown	green	1	6	ml	2.7.3	lorasick	sub-07_ses-02_task-ml_proj-lorasick_2021-01-20-13-49-02.432843
228	7	2	5	229	volatile	2	40	29	sv	green	brown	green	brown	left	right	0.30000000000000004	0.7	2	6	0.6000000000000001	4.199999999999998	1	0	0.30000000000000004	0.7	2	6	0.6000000000000001	4.199999999999998	invalid	0.7331569210000453	53248.0	0	1.0	2.0	53248	1	53248	1	53248	1	0.7	53248	brown	green	1	0	ml	2.7.3	lorasick	sub-07_ses-02_task-ml_proj-lorasick_2021-01-20-13-49-02.432843
229	7	2	5	230	volatile	2	40	30	sv	brown	green	green	brown	right	left	0.30000000000000004	0.7	6	2	1.8000000000000005	1.4	0	1	0.7	0.30000000000000004	2	6	1.4	1.8000000000000005	valid	0.6165253299986944	53248.0	0	1.0	1.0	53248	1	51200	0	53248	1	0.7	51200	brown	green	0	0	ml	2.7.3	lorasick	sub-07_ses-02_task-ml_proj-lorasick_2021-01-20-13-49-02.432843
230	7	2	5	231	volatile	2	40	31	sv	green	brown	green	brown	left	right	0.30000000000000004	0.7	2	4	0.6000000000000001	2.8	0	1	0.30000000000000004	0.7	2	4	0.6000000000000001	2.8	valid	0.9497625130024973	53248.0	0	1.0	2.0	53248	1	53248	1	53248	1	0.7	53248	brown	green	1	4	ml	2.7.3	lorasick	sub-07_ses-02_task-ml_proj-lorasick_2021-01-20-13-49-02.432843
231	7	2	5	232	volatile	2	40	32	sv	brown	green	green	brown	right	left	0.30000000000000004	0.7	2	4	0.6000000000000001	2.8	0	1	0.7	0.30000000000000004	4	2	2.8	0.6000000000000001	valid	0.5665323319990421	51200.0	0	0.0	2.0	51200	1	51200	1	51200	1	0.7	51200	brown	green	1	4	ml	2.7.3	lorasick	sub-07_ses-02_task-ml_proj-lorasick_2021-01-20-13-49-02.432843
232	7	2	5	233	volatile	2	40	33	sv	brown	green	green	brown	right	left	0.30000000000000004	0.7	2	6	0.6000000000000001	4.199999999999998	1	0	0.7	0.30000000000000004	6	2	4.199999999999998	0.6000000000000001	invalid	0.7164873250003438	51200.0	0	0.0	2.0	51200	1	51200	1	51200	1	0.7	51200	brown	green	1	0	ml	2.7.3	lorasick	sub-07_ses-02_task-ml_proj-lorasick_2021-01-20-13-49-02.432843
233	7	2	5	234	volatile	2	40	34	sv	brown	green	green	brown	right	left	0.30000000000000004	0.7	10	2	3.0000000000000004	1.4	1	0	0.7	0.30000000000000004	2	10	1.4	3.0000000000000004	invalid	1.0663883609995537	53248.0	0	1.0	1.0	53248	1	51200	0	53248	1	0.7	51200	brown	green	0	10	ml	2.7.3	lorasick	sub-07_ses-02_task-ml_proj-lorasick_2021-01-20-13-49-02.432843
234	7	2	5	235	volatile	2	40	35	sv	green	brown	green	brown	left	right	0.30000000000000004	0.7	4	2	1.2000000000000002	1.4	1	0	0.30000000000000004	0.7	4	2	1.2000000000000002	1.4	invalid	0.9830855760010307	53248.0	0	1.0	2.0	53248	1	53248	1	51200	0	0.7	53248	brown	green	0	0	ml	2.7.3	lorasick	sub-07_ses-02_task-ml_proj-lorasick_2021-01-20-13-49-02.432843
235	7	2	5	236	volatile	2	40	36	sv	green	brown	green	brown	left	right	0.30000000000000004	0.7	2	6	0.6000000000000001	4.199999999999998	0	1	0.30000000000000004	0.7	2	6	0.6000000000000001	4.199999999999998	valid	0.3665874229991459	51200.0	0	0.0	1.0	53248	0	53248	0	53248	0	0.7	53248	brown	green	1	0	ml	2.7.3	lorasick	sub-07_ses-02_task-ml_proj-lorasick_2021-01-20-13-49-02.432843
236	7	2	5	237	volatile	2	40	37	sv	green	brown	green	brown	left	right	0.30000000000000004	0.7	4	2	1.2000000000000002	1.4	1	0	0.30000000000000004	0.7	4	2	1.2000000000000002	1.4	invalid	0.3832481409990578	51200.0	0	0.0	1.0	53248	0	53248	0	51200	1	0.7	53248	brown	green	0	4	ml	2.7.3	lorasick	sub-07_ses-02_task-ml_proj-lorasick_2021-01-20-13-49-02.432843
237	7	2	5	238	volatile	2	40	38	sv	brown	green	green	brown	right	left	0.30000000000000004	0.7	6	6	1.8000000000000005	4.199999999999998	0	1	0.7	0.30000000000000004	6	6	4.199999999999998	1.8000000000000005	valid	0.4165781830015476	53248.0	0	1.0	1.0	51200	0	51200	0	53248	1	0.7	51200	brown	green	1	0	ml	2.7.3	lorasick	sub-07_ses-02_task-ml_proj-lorasick_2021-01-20-13-49-02.432843
238	7	2	5	239	volatile	2	40	39	sv	green	brown	green	brown	left	right	0.30000000000000004	0.7	6	2	1.8000000000000005	1.4	0	1	0.30000000000000004	0.7	6	2	1.8000000000000005	1.4	valid	0.3832515450012579	51200.0	0	0.0	1.0	51200	1	53248	0	51200	1	0.7	53248	brown	green	0	0	ml	2.7.3	lorasick	sub-07_ses-02_task-ml_proj-lorasick_2021-01-20-13-49-02.432843
239	7	2	5	240	volatile	2	40	40	sv	green	brown	green	brown	left	right	0.30000000000000004	0.7	6	6	1.8000000000000005	4.199999999999998	0	1	0.30000000000000004	0.7	6	6	1.8000000000000005	4.199999999999998	valid	0.5498792439975659	53248.0	0	1.0	2.0	53248	1	53248	1	53248	1	0.7	53248	brown	green	0	6	ml	2.7.3	lorasick	sub-07_ses-02_task-ml_proj-lorasick_2021-01-20-13-49-02.432843
240	7	2	5	241	volatile	3	20	1	sv	brown	green	green	brown	right	left	0.7	0.30000000000000004	4	6	2.8	1.8000000000000005	1	0	0.30000000000000004	0.7	6	4	1.8000000000000005	2.8	valid	0.5665397779994237	53248.0	0	1.0	1.0	53248	1	53248	1	51200	0	0.7	53248	green	brown	0	4	ml	2.7.3	lorasick	sub-07_ses-02_task-ml_proj-lorasick_2021-01-20-13-49-02.432843
241	7	2	5	242	volatile	3	20	2	sv	green	brown	green	brown	left	right	0.7	0.30000000000000004	6	2	4.199999999999998	0.6000000000000001	0	1	0.7	0.30000000000000004	6	2	4.199999999999998	0.6000000000000001	invalid	0.4165709799999604	51200.0	0	0.0	1.0	51200	1	51200	1	51200	1	0.7	51200	green	brown	1	0	ml	2.7.3	lorasick	sub-07_ses-02_task-ml_proj-lorasick_2021-01-20-13-49-02.432843
242	7	2	5	243	volatile	3	20	3	sv	green	brown	green	brown	left	right	0.7	0.30000000000000004	6	6	4.199999999999998	1.8000000000000005	1	0	0.7	0.30000000000000004	6	6	4.199999999999998	1.8000000000000005	valid	0.4832347949995892	53248.0	0	1.0	2.0	51200	0	51200	0	53248	1	0.7	51200	green	brown	1	0	ml	2.7.3	lorasick	sub-07_ses-02_task-ml_proj-lorasick_2021-01-20-13-49-02.432843
243	7	2	5	244	volatile	3	20	4	sv	green	brown	green	brown	left	right	0.7	0.30000000000000004	2	6	1.4	1.8000000000000005	1	0	0.7	0.30000000000000004	2	6	1.4	1.8000000000000005	valid	0.566538359002152	53248.0	0	1.0	2.0	53248	1	51200	0	53248	1	0.7	51200	green	brown	0	0	ml	2.7.3	lorasick	sub-07_ses-02_task-ml_proj-lorasick_2021-01-20-13-49-02.432843
244	7	2	5	245	volatile	3	20	5	sv	brown	green	green	brown	right	left	0.7	0.30000000000000004	2	4	1.4	1.2000000000000002	0	1	0.30000000000000004	0.7	4	2	1.2000000000000002	1.4	invalid	0.4165855310020561	53248.0	0	1.0	1.0	53248	1	53248	1	51200	0	0.7	53248	green	brown	0	0	ml	2.7.3	lorasick	sub-07_ses-02_task-ml_proj-lorasick_2021-01-20-13-49-02.432843
245	7	2	5	246	volatile	3	20	6	sv	green	brown	green	brown	left	right	0.7	0.30000000000000004	2	10	1.4	3.0000000000000004	1	0	0.7	0.30000000000000004	2	10	1.4	3.0000000000000004	valid	0.5831917590003286	51200.0	0	0.0	1.0	53248	0	51200	1	53248	0	0.7	51200	green	brown	0	2	ml	2.7.3	lorasick	sub-07_ses-02_task-ml_proj-lorasick_2021-01-20-13-49-02.432843
246	7	2	5	247	volatile	3	20	7	sv	brown	green	green	brown	right	left	0.7	0.30000000000000004	2	6	1.4	1.8000000000000005	1	0	0.30000000000000004	0.7	6	2	1.8000000000000005	1.4	valid	0.5165551709978901	53248.0	0	1.0	1.0	51200	0	53248	1	51200	0	0.7	53248	green	brown	0	2	ml	2.7.3	lorasick	sub-07_ses-02_task-ml_proj-lorasick_2021-01-20-13-49-02.432843
247	7	2	5	248	volatile	3	20	8	sv	green	brown	green	brown	left	right	0.7	0.30000000000000004	6	4	4.199999999999998	1.2000000000000002	0	1	0.7	0.30000000000000004	6	4	4.199999999999998	1.2000000000000002	invalid	1.1163817980013846	53248.0	0	1.0	2.0	51200	0	51200	0	51200	0	0.7	51200	green	brown	1	4	ml	2.7.3	lorasick	sub-07_ses-02_task-ml_proj-lorasick_2021-01-20-13-49-02.432843
248	7	2	5	249	volatile	3	20	9	sv	brown	green	green	brown	right	left	0.7	0.30000000000000004	2	2	1.4	0.6000000000000001	0	1	0.30000000000000004	0.7	2	2	0.6000000000000001	1.4	invalid	0.7331599639983324	53248.0	0	1.0	1.0	53248	1	53248	1	53248	1	0.7	53248	green	brown	0	0	ml	2.7.3	lorasick	sub-07_ses-02_task-ml_proj-lorasick_2021-01-20-13-49-02.432843
249	7	2	5	250	volatile	3	20	10	sv	green	brown	green	brown	left	right	0.7	0.30000000000000004	4	6	2.8	1.8000000000000005	1	0	0.7	0.30000000000000004	4	6	2.8	1.8000000000000005	valid	0.9997365800008992	51200.0	0	0.0	1.0	51200	1	51200	1	53248	0	0.7	51200	green	brown	0	4	ml	2.7.3	lorasick	sub-07_ses-02_task-ml_proj-lorasick_2021-01-20-13-49-02.432843
250	7	2	6	251	volatile	3	20	11	sv	green	brown	green	brown	left	right	0.7	0.30000000000000004	2	4	1.4	1.2000000000000002	1	0	0.7	0.30000000000000004	2	4	1.4	1.2000000000000002	valid	1.0330707969987998	53248.0	0	1.0	2.0	51200	0	51200	0	53248	1	0.7	51200	green	brown	0	0	ml	2.7.3	lorasick	sub-07_ses-02_task-ml_proj-lorasick_2021-01-20-13-49-02.432843
251	7	2	6	252	volatile	3	20	12	sv	brown	green	green	brown	right	left	0.7	0.30000000000000004	2	10	1.4	3.0000000000000004	1	0	0.30000000000000004	0.7	10	2	3.0000000000000004	1.4	valid	0.4665897189988754	53248.0	0	1.0	1.0	51200	0	53248	1	51200	0	0.7	53248	green	brown	0	2	ml	2.7.3	lorasick	sub-07_ses-02_task-ml_proj-lorasick_2021-01-20-13-49-02.432843
252	7	2	6	253	volatile	3	20	13	sv	green	brown	green	brown	left	right	0.7	0.30000000000000004	6	6	4.199999999999998	1.8000000000000005	0	1	0.7	0.30000000000000004	6	6	4.199999999999998	1.8000000000000005	invalid	0.4332313669983705	51200.0	0	0.0	1.0	51200	1	51200	1	53248	0	0.7	51200	green	brown	1	0	ml	2.7.3	lorasick	sub-07_ses-02_task-ml_proj-lorasick_2021-01-20-13-49-02.432843
253	7	2	6	254	volatile	3	20	14	sv	green	brown	green	brown	left	right	0.7	0.30000000000000004	10	2	7.0	0.6000000000000001	1	0	0.7	0.30000000000000004	10	2	7.0	0.6000000000000001	valid	0.3665850260003936	51200.0	0	0.0	1.0	51200	1	51200	1	51200	1	0.7	51200	green	brown	1	10	ml	2.7.3	lorasick	sub-07_ses-02_task-ml_proj-lorasick_2021-01-20-13-49-02.432843
254	7	2	6	255	volatile	3	20	15	sv	brown	green	green	brown	right	left	0.7	0.30000000000000004	6	2	4.199999999999998	0.6000000000000001	1	0	0.30000000000000004	0.7	2	6	0.6000000000000001	4.199999999999998	valid	0.4665734810005233	53248.0	0	1.0	1.0	53248	1	53248	1	53248	1	0.7	53248	green	brown	1	6	ml	2.7.3	lorasick	sub-07_ses-02_task-ml_proj-lorasick_2021-01-20-13-49-02.432843
255	7	2	6	256	volatile	3	20	16	sv	brown	green	green	brown	right	left	0.7	0.30000000000000004	2	4	1.4	1.2000000000000002	1	0	0.30000000000000004	0.7	4	2	1.2000000000000002	1.4	valid	0.46657337600117893	53248.0	0	1.0	1.0	53248	1	53248	1	51200	0	0.7	53248	green	brown	0	2	ml	2.7.3	lorasick	sub-07_ses-02_task-ml_proj-lorasick_2021-01-20-13-49-02.432843
256	7	2	6	257	volatile	3	20	17	sv	green	brown	green	brown	left	right	0.7	0.30000000000000004	2	4	1.4	1.2000000000000002	1	0	0.7	0.30000000000000004	2	4	1.4	1.2000000000000002	valid	0.4665579780012194	51200.0	0	0.0	1.0	51200	1	51200	1	53248	0	0.7	51200	green	brown	0	2	ml	2.7.3	lorasick	sub-07_ses-02_task-ml_proj-lorasick_2021-01-20-13-49-02.432843
257	7	2	6	258	volatile	3	20	18	sv	brown	green	green	brown	right	left	0.7	0.30000000000000004	6	4	4.199999999999998	1.2000000000000002	1	0	0.30000000000000004	0.7	4	6	1.2000000000000002	4.199999999999998	valid	0.7331575409989455	53248.0	0	1.0	1.0	53248	1	53248	1	53248	1	0.7	53248	green	brown	1	6	ml	2.7.3	lorasick	sub-07_ses-02_task-ml_proj-lorasick_2021-01-20-13-49-02.432843
258	7	2	6	259	volatile	3	20	19	sv	brown	green	green	brown	right	left	0.7	0.30000000000000004	10	2	7.0	0.6000000000000001	0	1	0.30000000000000004	0.7	2	10	0.6000000000000001	7.0	invalid	0.5165539900008298	53248.0	0	1.0	1.0	53248	1	53248	1	53248	1	0.7	53248	green	brown	1	0	ml	2.7.3	lorasick	sub-07_ses-02_task-ml_proj-lorasick_2021-01-20-13-49-02.432843
259	7	2	6	260	volatile	3	20	20	sv	brown	green	green	brown	right	left	0.7	0.30000000000000004	2	2	1.4	0.6000000000000001	1	0	0.30000000000000004	0.7	2	2	0.6000000000000001	1.4	valid	0.4998908240013407	53248.0	0	1.0	1.0	53248	1	53248	1	53248	1	0.7	53248	green	brown	0	2	ml	2.7.3	lorasick	sub-07_ses-02_task-ml_proj-lorasick_2021-01-20-13-49-02.432843
260	7	2	6	261	volatile	4	20	1	sv	green	brown	green	brown	left	right	0.30000000000000004	0.7	6	2	1.8000000000000005	1.4	0	1	0.30000000000000004	0.7	6	2	1.8000000000000005	1.4	valid	0.3999043010007881	51200.0	0	0.0	1.0	51200	1	53248	0	51200	1	0.7	53248	brown	green	0	0	ml	2.7.3	lorasick	sub-07_ses-02_task-ml_proj-lorasick_2021-01-20-13-49-02.432843
261	7	2	6	262	volatile	4	20	2	sv	green	brown	green	brown	left	right	0.30000000000000004	0.7	2	2	0.6000000000000001	1.4	0	1	0.30000000000000004	0.7	2	2	0.6000000000000001	1.4	valid	0.516544549001992	51200.0	0	0.0	1.0	53248	0	53248	0	53248	0	0.7	53248	brown	green	0	0	ml	2.7.3	lorasick	sub-07_ses-02_task-ml_proj-lorasick_2021-01-20-13-49-02.432843
262	7	2	6	263	volatile	4	20	3	sv	brown	green	green	brown	right	left	0.30000000000000004	0.7	2	2	0.6000000000000001	1.4	1	0	0.7	0.30000000000000004	2	2	1.4	0.6000000000000001	invalid	0.5998170920029224	53248.0	0	1.0	1.0	51200	0	51200	0	53248	1	0.7	51200	brown	green	1	2	ml	2.7.3	lorasick	sub-07_ses-02_task-ml_proj-lorasick_2021-01-20-13-49-02.432843
263	7	2	6	264	volatile	4	20	4	sv	brown	green	green	brown	right	left	0.30000000000000004	0.7	4	6	1.2000000000000002	4.199999999999998	0	1	0.7	0.30000000000000004	6	4	4.199999999999998	1.2000000000000002	valid	0.983086683001602	53248.0	0	1.0	1.0	51200	0	51200	0	51200	0	0.7	51200	brown	green	1	0	ml	2.7.3	lorasick	sub-07_ses-02_task-ml_proj-lorasick_2021-01-20-13-49-02.432843
264	7	2	6	265	volatile	4	20	5	sv	green	brown	green	brown	left	right	0.30000000000000004	0.7	4	6	1.2000000000000002	4.199999999999998	1	0	0.30000000000000004	0.7	4	6	1.2000000000000002	4.199999999999998	invalid	0.38324620699859213	51200.0	0	0.0	1.0	53248	0	53248	0	53248	0	0.7	53248	brown	green	1	4	ml	2.7.3	lorasick	sub-07_ses-02_task-ml_proj-lorasick_2021-01-20-13-49-02.432843
265	7	2	6	266	volatile	4	20	6	sv	brown	green	green	brown	right	left	0.30000000000000004	0.7	6	2	1.8000000000000005	1.4	0	1	0.7	0.30000000000000004	2	6	1.4	1.8000000000000005	valid	0.616532679003285	53248.0	0	1.0	1.0	53248	1	51200	0	53248	1	0.7	51200	brown	green	0	0	ml	2.7.3	lorasick	sub-07_ses-02_task-ml_proj-lorasick_2021-01-20-13-49-02.432843
266	7	2	6	267	volatile	4	20	7	sv	brown	green	green	brown	right	left	0.30000000000000004	0.7	2	10	0.6000000000000001	7.0	1	0	0.7	0.30000000000000004	10	2	7.0	0.6000000000000001	invalid	0.7331584359999397	53248.0	0	1.0	1.0	51200	0	51200	0	51200	0	0.7	51200	brown	green	1	2	ml	2.7.3	lorasick	sub-07_ses-02_task-ml_proj-lorasick_2021-01-20-13-49-02.432843
267	7	2	6	268	volatile	4	20	8	sv	green	brown	green	brown	left	right	0.30000000000000004	0.7	4	2	1.2000000000000002	1.4	0	1	0.30000000000000004	0.7	4	2	1.2000000000000002	1.4	valid	0.7997933099977672	51200.0	0	0.0	1.0	53248	0	53248	0	51200	1	0.7	53248	brown	green	0	0	ml	2.7.3	lorasick	sub-07_ses-02_task-ml_proj-lorasick_2021-01-20-13-49-02.432843
268	7	2	6	269	volatile	4	20	9	sv	green	brown	green	brown	left	right	0.30000000000000004	0.7	4	2	1.2000000000000002	1.4	0	1	0.30000000000000004	0.7	4	2	1.2000000000000002	1.4	valid	0.966413090001879	51200.0	0	0.0	1.0	53248	0	53248	0	51200	1	0.7	53248	brown	green	0	0	ml	2.7.3	lorasick	sub-07_ses-02_task-ml_proj-lorasick_2021-01-20-13-49-02.432843
269	7	2	6	270	volatile	4	20	10	sv	green	brown	green	brown	left	right	0.30000000000000004	0.7	6	2	1.8000000000000005	1.4	1	0	0.30000000000000004	0.7	6	2	1.8000000000000005	1.4	invalid	1.016400581000198	51200.0	0	0.0	1.0	51200	1	53248	0	51200	1	0.7	53248	brown	green	0	6	ml	2.7.3	lorasick	sub-07_ses-02_task-ml_proj-lorasick_2021-01-20-13-49-02.432843
270	7	2	6	271	volatile	4	20	11	sv	brown	green	green	brown	right	left	0.30000000000000004	0.7	4	2	1.2000000000000002	1.4	0	1	0.7	0.30000000000000004	2	4	1.4	1.2000000000000002	valid	0.3999152309988858	53248.0	0	1.0	1.0	51200	0	51200	0	53248	1	0.7	51200	brown	green	0	0	ml	2.7.3	lorasick	sub-07_ses-02_task-ml_proj-lorasick_2021-01-20-13-49-02.432843
271	7	2	6	272	volatile	4	20	12	sv	brown	green	green	brown	right	left	0.30000000000000004	0.7	6	2	1.8000000000000005	1.4	0	1	0.7	0.30000000000000004	2	6	1.4	1.8000000000000005	valid	0.4832181580022734	51200.0	0	0.0	2.0	53248	0	51200	1	53248	0	0.7	51200	brown	green	0	2	ml	2.7.3	lorasick	sub-07_ses-02_task-ml_proj-lorasick_2021-01-20-13-49-02.432843
272	7	2	6	273	volatile	4	20	13	sv	green	brown	green	brown	left	right	0.30000000000000004	0.7	6	6	1.8000000000000005	4.199999999999998	0	1	0.30000000000000004	0.7	6	6	1.8000000000000005	4.199999999999998	valid	0.5998640340003476	53248.0	0	1.0	2.0	53248	1	53248	1	53248	1	0.7	53248	brown	green	0	6	ml	2.7.3	lorasick	sub-07_ses-02_task-ml_proj-lorasick_2021-01-20-13-49-02.432843
273	7	2	6	274	volatile	4	20	14	sv	green	brown	green	brown	left	right	0.30000000000000004	0.7	6	6	1.8000000000000005	4.199999999999998	1	0	0.30000000000000004	0.7	6	6	1.8000000000000005	4.199999999999998	invalid	0.6498467160017753	53248.0	0	1.0	2.0	53248	1	53248	1	53248	1	0.7	53248	brown	green	0	0	ml	2.7.3	lorasick	sub-07_ses-02_task-ml_proj-lorasick_2021-01-20-13-49-02.432843
274	7	2	6	275	volatile	4	20	15	sv	brown	green	green	brown	right	left	0.30000000000000004	0.7	6	4	1.8000000000000005	2.8	0	1	0.7	0.30000000000000004	4	6	2.8	1.8000000000000005	valid	0.34992523199980496	51200.0	0	0.0	2.0	51200	1	51200	1	53248	0	0.7	51200	brown	green	0	4	ml	2.7.3	lorasick	sub-07_ses-02_task-ml_proj-lorasick_2021-01-20-13-49-02.432843
275	7	2	6	276	volatile	4	20	16	sv	green	brown	green	brown	left	right	0.30000000000000004	0.7	2	4	0.6000000000000001	2.8	0	1	0.30000000000000004	0.7	2	4	0.6000000000000001	2.8	valid	0.5832021109999914	53248.0	0	1.0	2.0	53248	1	53248	1	53248	1	0.7	53248	brown	green	1	4	ml	2.7.3	lorasick	sub-07_ses-02_task-ml_proj-lorasick_2021-01-20-13-49-02.432843
276	7	2	6	277	volatile	4	20	17	sv	brown	green	green	brown	right	left	0.30000000000000004	0.7	10	2	3.0000000000000004	1.4	1	0	0.7	0.30000000000000004	2	10	1.4	3.0000000000000004	invalid	0.5831900089979172	51200.0	0	0.0	2.0	53248	0	51200	1	53248	0	0.7	51200	brown	green	0	0	ml	2.7.3	lorasick	sub-07_ses-02_task-ml_proj-lorasick_2021-01-20-13-49-02.432843
277	7	2	6	278	volatile	4	20	18	sv	green	brown	green	brown	left	right	0.30000000000000004	0.7	10	2	3.0000000000000004	1.4	0	1	0.30000000000000004	0.7	10	2	3.0000000000000004	1.4	valid	0.5165453369991155	51200.0	0	0.0	1.0	51200	1	53248	0	51200	1	0.7	53248	brown	green	0	0	ml	2.7.3	lorasick	sub-07_ses-02_task-ml_proj-lorasick_2021-01-20-13-49-02.432843
