Unnamed: 0	sub_id	ses_id	block_no	trial_no	phase_type	phase_no	phase_length	trialInPhase_no	phase_type_order	color_left	color_right	color1	color2	position1	position2	prob1	prob2	mag1	mag2	ev1	ev2	outcome1	outcome2	prob_left	prob_right	mag_left	mag_right	ev_left	ev_right	reward_validity	resp_time	resp_key	timeout	choice_side	choice	ev_corr_resp	ev_correct	prob_corr_resp	prob_correct	mag_corr_resp	mag_correct	high_prob	high_prob_side	high_prob_color	low_prob_color	no_brain	reward	name	version	proj_id	logFileID
0	12	1	1	1	volatile	1	40	1	vs	purple	turquoise	turquoise	purple	right	left	0.7	0.30000000000000004	4	6	2.8	1.8000000000000005	1	0	0.30000000000000004	0.7	6	4	1.8000000000000005	2.8	valid	1.066386872998919	51200	0	0	2	53248	0	53248	0	51200	1	0.7	53248	turquoise	purple	0	0	ml	2.7.3	bip	sub-12_ses-01_task-ml_proj-bip_2021-01-12-10-26-20.583454
1	12	1	1	2	volatile	1	40	2	vs	turquoise	purple	turquoise	purple	left	right	0.7	0.30000000000000004	4	2	2.8	0.6000000000000001	1	0	0.7	0.30000000000000004	4	2	2.8	0.6000000000000001	valid	1.1830239430000802	51200	0	0	1	51200	1	51200	1	51200	1	0.7	51200	turquoise	purple	1	4	ml	2.7.3	bip	sub-12_ses-01_task-ml_proj-bip_2021-01-12-10-26-20.583454
2	12	1	1	3	volatile	1	40	3	vs	purple	turquoise	turquoise	purple	right	left	0.7	0.30000000000000004	10	2	7.0	0.6000000000000001	0	1	0.30000000000000004	0.7	2	10	0.6000000000000001	7.0	invalid	0.7831449200002679	53248	0	1	1	53248	1	53248	1	53248	1	0.7	53248	turquoise	purple	1	0	ml	2.7.3	bip	sub-12_ses-01_task-ml_proj-bip_2021-01-12-10-26-20.583454
3	12	1	1	4	volatile	1	40	4	vs	turquoise	purple	turquoise	purple	left	right	0.7	0.30000000000000004	2	2	1.4	0.6000000000000001	1	0	0.7	0.30000000000000004	2	2	1.4	0.6000000000000001	valid	1.2496660159995372	51200	0	0	1	51200	1	51200	1	53248	0	0.7	51200	turquoise	purple	1	2	ml	2.7.3	bip	sub-12_ses-01_task-ml_proj-bip_2021-01-12-10-26-20.583454
4	12	1	1	5	volatile	1	40	5	vs	purple	turquoise	turquoise	purple	right	left	0.7	0.30000000000000004	2	6	1.4	1.8000000000000005	1	0	0.30000000000000004	0.7	6	2	1.8000000000000005	1.4	valid	1.6328915319991206	51200	0	0	2	51200	1	53248	0	51200	1	0.7	53248	turquoise	purple	0	0	ml	2.7.3	bip	sub-12_ses-01_task-ml_proj-bip_2021-01-12-10-26-20.583454
5	12	1	1	6	volatile	1	40	6	vs	purple	turquoise	turquoise	purple	right	left	0.7	0.30000000000000004	2	2	1.4	0.6000000000000001	1	0	0.30000000000000004	0.7	2	2	0.6000000000000001	1.4	valid	0.7831497349998244	53248	0	1	1	53248	1	53248	1	53248	1	0.7	53248	turquoise	purple	0	2	ml	2.7.3	bip	sub-12_ses-01_task-ml_proj-bip_2021-01-12-10-26-20.583454
6	12	1	1	7	volatile	1	40	7	vs	turquoise	purple	turquoise	purple	left	right	0.7	0.30000000000000004	6	2	4.199999999999998	0.6000000000000001	0	1	0.7	0.30000000000000004	6	2	4.199999999999998	0.6000000000000001	invalid	0.8331176859992411	51200	0	0	1	51200	1	51200	1	51200	1	0.7	51200	turquoise	purple	1	0	ml	2.7.3	bip	sub-12_ses-01_task-ml_proj-bip_2021-01-12-10-26-20.583454
7	12	1	1	8	volatile	1	40	8	vs	turquoise	purple	turquoise	purple	left	right	0.7	0.30000000000000004	4	2	2.8	0.6000000000000001	1	0	0.7	0.30000000000000004	4	2	2.8	0.6000000000000001	valid	0.7831329620003089	51200	0	0	1	51200	1	51200	1	51200	1	0.7	51200	turquoise	purple	1	4	ml	2.7.3	bip	sub-12_ses-01_task-ml_proj-bip_2021-01-12-10-26-20.583454
8	12	1	1	9	volatile	1	40	9	vs	purple	turquoise	turquoise	purple	right	left	0.7	0.30000000000000004	6	2	4.199999999999998	0.6000000000000001	0	1	0.30000000000000004	0.7	2	6	0.6000000000000001	4.199999999999998	invalid	0.6665100350001012	53248	0	1	1	53248	1	53248	1	53248	1	0.7	53248	turquoise	purple	1	0	ml	2.7.3	bip	sub-12_ses-01_task-ml_proj-bip_2021-01-12-10-26-20.583454
9	12	1	1	10	volatile	1	40	10	vs	turquoise	purple	turquoise	purple	left	right	0.7	0.30000000000000004	6	2	4.199999999999998	0.6000000000000001	1	0	0.7	0.30000000000000004	6	2	4.199999999999998	0.6000000000000001	valid	0.7331410860006145	51200	0	0	1	51200	1	51200	1	51200	1	0.7	51200	turquoise	purple	1	6	ml	2.7.3	bip	sub-12_ses-01_task-ml_proj-bip_2021-01-12-10-26-20.583454
10	12	1	1	11	volatile	1	40	11	vs	purple	turquoise	turquoise	purple	right	left	0.7	0.30000000000000004	10	2	7.0	0.6000000000000001	1	0	0.30000000000000004	0.7	2	10	0.6000000000000001	7.0	valid	0.7831441800008179	53248	0	1	1	53248	1	53248	1	53248	1	0.7	53248	turquoise	purple	1	10	ml	2.7.3	bip	sub-12_ses-01_task-ml_proj-bip_2021-01-12-10-26-20.583454
11	12	1	1	12	volatile	1	40	12	vs	turquoise	purple	turquoise	purple	left	right	0.7	0.30000000000000004	6	2	4.199999999999998	0.6000000000000001	1	0	0.7	0.30000000000000004	6	2	4.199999999999998	0.6000000000000001	valid	0.6664986479991057	51200	0	0	1	51200	1	51200	1	51200	1	0.7	51200	turquoise	purple	1	6	ml	2.7.3	bip	sub-12_ses-01_task-ml_proj-bip_2021-01-12-10-26-20.583454
12	12	1	1	13	volatile	1	40	13	vs	turquoise	purple	turquoise	purple	left	right	0.7	0.30000000000000004	2	6	1.4	1.8000000000000005	0	1	0.7	0.30000000000000004	2	6	1.4	1.8000000000000005	invalid	1.6662543200000073	53248	0	1	2	53248	1	51200	0	53248	1	0.7	51200	turquoise	purple	0	6	ml	2.7.3	bip	sub-12_ses-01_task-ml_proj-bip_2021-01-12-10-26-20.583454
13	12	1	1	14	volatile	1	40	14	vs	purple	turquoise	turquoise	purple	right	left	0.7	0.30000000000000004	6	4	4.199999999999998	1.2000000000000002	0	1	0.30000000000000004	0.7	4	6	1.2000000000000002	4.199999999999998	invalid	0.799806818999059	53248	0	1	1	53248	1	53248	1	53248	1	0.7	53248	turquoise	purple	1	0	ml	2.7.3	bip	sub-12_ses-01_task-ml_proj-bip_2021-01-12-10-26-20.583454
14	12	1	1	15	volatile	1	40	15	vs	purple	turquoise	turquoise	purple	right	left	0.7	0.30000000000000004	6	2	4.199999999999998	0.6000000000000001	0	1	0.30000000000000004	0.7	2	6	0.6000000000000001	4.199999999999998	invalid	1.0164103799997974	53248	0	1	1	53248	1	53248	1	53248	1	0.7	53248	turquoise	purple	1	0	ml	2.7.3	bip	sub-12_ses-01_task-ml_proj-bip_2021-01-12-10-26-20.583454
15	12	1	1	16	volatile	1	40	16	vs	turquoise	purple	turquoise	purple	left	right	0.7	0.30000000000000004	2	4	1.4	1.2000000000000002	0	1	0.7	0.30000000000000004	2	4	1.4	1.2000000000000002	invalid	0.8831159600013052	53248	0	1	2	51200	0	51200	0	53248	1	0.7	51200	turquoise	purple	0	4	ml	2.7.3	bip	sub-12_ses-01_task-ml_proj-bip_2021-01-12-10-26-20.583454
16	12	1	1	17	volatile	1	40	17	vs	purple	turquoise	turquoise	purple	right	left	0.7	0.30000000000000004	2	4	1.4	1.2000000000000002	1	0	0.30000000000000004	0.7	4	2	1.2000000000000002	1.4	valid	0.6498369359997014	51200	0	0	2	53248	0	53248	0	51200	1	0.7	53248	turquoise	purple	0	0	ml	2.7.3	bip	sub-12_ses-01_task-ml_proj-bip_2021-01-12-10-26-20.583454
17	12	1	1	18	volatile	1	40	18	vs	purple	turquoise	turquoise	purple	right	left	0.7	0.30000000000000004	6	4	4.199999999999998	1.2000000000000002	1	0	0.30000000000000004	0.7	4	6	1.2000000000000002	4.199999999999998	valid	1.249659289000192	51200	0	0	2	53248	0	53248	0	53248	0	0.7	53248	turquoise	purple	1	0	ml	2.7.3	bip	sub-12_ses-01_task-ml_proj-bip_2021-01-12-10-26-20.583454
18	12	1	1	19	volatile	1	40	19	vs	turquoise	purple	turquoise	purple	left	right	0.7	0.30000000000000004	10	2	7.0	0.6000000000000001	1	0	0.7	0.30000000000000004	10	2	7.0	0.6000000000000001	valid	0.7498089949986024	51200	0	0	1	51200	1	51200	1	51200	1	0.7	51200	turquoise	purple	1	10	ml	2.7.3	bip	sub-12_ses-01_task-ml_proj-bip_2021-01-12-10-26-20.583454
19	12	1	1	20	volatile	1	40	20	vs	purple	turquoise	turquoise	purple	right	left	0.7	0.30000000000000004	2	10	1.4	3.0000000000000004	1	0	0.30000000000000004	0.7	10	2	3.0000000000000004	1.4	valid	0.849781778999386	51200	0	0	2	51200	1	53248	0	51200	1	0.7	53248	turquoise	purple	0	0	ml	2.7.3	bip	sub-12_ses-01_task-ml_proj-bip_2021-01-12-10-26-20.583454
20	12	1	1	21	volatile	1	40	21	vs	turquoise	purple	turquoise	purple	left	right	0.7	0.30000000000000004	10	2	7.0	0.6000000000000001	1	0	0.7	0.30000000000000004	10	2	7.0	0.6000000000000001	valid	0.7831317620002665	51200	0	0	1	51200	1	51200	1	51200	1	0.7	51200	turquoise	purple	1	10	ml	2.7.3	bip	sub-12_ses-01_task-ml_proj-bip_2021-01-12-10-26-20.583454
21	12	1	1	22	volatile	1	40	22	vs	turquoise	purple	turquoise	purple	left	right	0.7	0.30000000000000004	2	2	1.4	0.6000000000000001	0	1	0.7	0.30000000000000004	2	2	1.4	0.6000000000000001	invalid	0.8831098540013045	51200	0	0	1	51200	1	51200	1	53248	0	0.7	51200	turquoise	purple	1	0	ml	2.7.3	bip	sub-12_ses-01_task-ml_proj-bip_2021-01-12-10-26-20.583454
22	12	1	1	23	volatile	1	40	23	vs	turquoise	purple	turquoise	purple	left	right	0.7	0.30000000000000004	6	4	4.199999999999998	1.2000000000000002	1	0	0.7	0.30000000000000004	6	4	4.199999999999998	1.2000000000000002	valid	0.7664719109998259	51200	0	0	1	51200	1	51200	1	51200	1	0.7	51200	turquoise	purple	1	6	ml	2.7.3	bip	sub-12_ses-01_task-ml_proj-bip_2021-01-12-10-26-20.583454
23	12	1	1	24	volatile	1	40	24	vs	turquoise	purple	turquoise	purple	left	right	0.7	0.30000000000000004	2	4	1.4	1.2000000000000002	1	0	0.7	0.30000000000000004	2	4	1.4	1.2000000000000002	valid	1.033092375000706	53248	0	1	2	51200	0	51200	0	53248	1	0.7	51200	turquoise	purple	0	0	ml	2.7.3	bip	sub-12_ses-01_task-ml_proj-bip_2021-01-12-10-26-20.583454
24	12	1	1	25	volatile	1	40	25	vs	purple	turquoise	turquoise	purple	right	left	0.7	0.30000000000000004	4	6	2.8	1.8000000000000005	1	0	0.30000000000000004	0.7	6	4	1.8000000000000005	2.8	valid	1.7828521669998736	53248	0	1	1	53248	1	53248	1	51200	0	0.7	53248	turquoise	purple	0	4	ml	2.7.3	bip	sub-12_ses-01_task-ml_proj-bip_2021-01-12-10-26-20.583454
25	12	1	1	26	volatile	1	40	26	vs	turquoise	purple	turquoise	purple	left	right	0.7	0.30000000000000004	2	4	1.4	1.2000000000000002	0	1	0.7	0.30000000000000004	2	4	1.4	1.2000000000000002	invalid	0.9664150839998912	51200	0	0	1	51200	1	51200	1	53248	0	0.7	51200	turquoise	purple	0	0	ml	2.7.3	bip	sub-12_ses-01_task-ml_proj-bip_2021-01-12-10-26-20.583454
26	12	1	1	27	volatile	1	40	27	vs	purple	turquoise	turquoise	purple	right	left	0.7	0.30000000000000004	6	4	4.199999999999998	1.2000000000000002	1	0	0.30000000000000004	0.7	4	6	1.2000000000000002	4.199999999999998	valid	0.7498203660015861	53248	0	1	1	53248	1	53248	1	53248	1	0.7	53248	turquoise	purple	1	6	ml	2.7.3	bip	sub-12_ses-01_task-ml_proj-bip_2021-01-12-10-26-20.583454
27	12	1	1	28	volatile	1	40	28	vs	turquoise	purple	turquoise	purple	left	right	0.7	0.30000000000000004	6	4	4.199999999999998	1.2000000000000002	0	1	0.7	0.30000000000000004	6	4	4.199999999999998	1.2000000000000002	invalid	0.6831578359997366	51200	0	0	1	51200	1	51200	1	51200	1	0.7	51200	turquoise	purple	1	0	ml	2.7.3	bip	sub-12_ses-01_task-ml_proj-bip_2021-01-12-10-26-20.583454
28	12	1	1	29	volatile	1	40	29	vs	turquoise	purple	turquoise	purple	left	right	0.7	0.30000000000000004	6	6	4.199999999999998	1.8000000000000005	1	0	0.7	0.30000000000000004	6	6	4.199999999999998	1.8000000000000005	valid	0.9330910140015476	51200	0	0	1	51200	1	51200	1	53248	0	0.7	51200	turquoise	purple	1	6	ml	2.7.3	bip	sub-12_ses-01_task-ml_proj-bip_2021-01-12-10-26-20.583454
29	12	1	1	30	volatile	1	40	30	vs	turquoise	purple	turquoise	purple	left	right	0.7	0.30000000000000004	6	6	4.199999999999998	1.8000000000000005	1	0	0.7	0.30000000000000004	6	6	4.199999999999998	1.8000000000000005	valid	0.7164900339994347	51200	0	0	1	51200	1	51200	1	53248	0	0.7	51200	turquoise	purple	1	6	ml	2.7.3	bip	sub-12_ses-01_task-ml_proj-bip_2021-01-12-10-26-20.583454
30	12	1	1	31	volatile	1	40	31	vs	purple	turquoise	turquoise	purple	right	left	0.7	0.30000000000000004	6	2	4.199999999999998	0.6000000000000001	0	1	0.30000000000000004	0.7	2	6	0.6000000000000001	4.199999999999998	invalid	0.8664543360009702	53248	0	1	1	53248	1	53248	1	53248	1	0.7	53248	turquoise	purple	1	0	ml	2.7.3	bip	sub-12_ses-01_task-ml_proj-bip_2021-01-12-10-26-20.583454
31	12	1	1	32	volatile	1	40	32	vs	purple	turquoise	turquoise	purple	right	left	0.7	0.30000000000000004	2	2	1.4	0.6000000000000001	1	0	0.30000000000000004	0.7	2	2	0.6000000000000001	1.4	valid	0.8831139260000782	53248	0	1	1	53248	1	53248	1	53248	1	0.7	53248	turquoise	purple	0	2	ml	2.7.3	bip	sub-12_ses-01_task-ml_proj-bip_2021-01-12-10-26-20.583454
32	12	1	1	33	volatile	1	40	33	vs	purple	turquoise	turquoise	purple	right	left	0.7	0.30000000000000004	6	6	4.199999999999998	1.8000000000000005	1	0	0.30000000000000004	0.7	6	6	1.8000000000000005	4.199999999999998	valid	0.8497928850010794	53248	0	1	1	53248	1	53248	1	53248	1	0.7	53248	turquoise	purple	0	6	ml	2.7.3	bip	sub-12_ses-01_task-ml_proj-bip_2021-01-12-10-26-20.583454
33	12	1	1	34	volatile	1	40	34	vs	turquoise	purple	turquoise	purple	left	right	0.7	0.30000000000000004	2	10	1.4	3.0000000000000004	1	0	0.7	0.30000000000000004	2	10	1.4	3.0000000000000004	valid	1.2996482269991247	51200	0	0	1	53248	0	51200	1	53248	0	0.7	51200	turquoise	purple	0	2	ml	2.7.3	bip	sub-12_ses-01_task-ml_proj-bip_2021-01-12-10-26-20.583454
34	12	1	1	35	volatile	1	40	35	vs	purple	turquoise	turquoise	purple	right	left	0.7	0.30000000000000004	2	4	1.4	1.2000000000000002	0	1	0.30000000000000004	0.7	4	2	1.2000000000000002	1.4	invalid	1.6328912579992902	53248	0	1	1	53248	1	53248	1	51200	0	0.7	53248	turquoise	purple	0	0	ml	2.7.3	bip	sub-12_ses-01_task-ml_proj-bip_2021-01-12-10-26-20.583454
35	12	1	1	36	volatile	1	40	36	vs	turquoise	purple	turquoise	purple	left	right	0.7	0.30000000000000004	4	6	2.8	1.8000000000000005	1	0	0.7	0.30000000000000004	4	6	2.8	1.8000000000000005	valid	1.033072959000492	53248	0	1	2	51200	0	51200	0	53248	1	0.7	51200	turquoise	purple	0	0	ml	2.7.3	bip	sub-12_ses-01_task-ml_proj-bip_2021-01-12-10-26-20.583454
36	12	1	1	37	volatile	1	40	37	vs	purple	turquoise	turquoise	purple	right	left	0.7	0.30000000000000004	6	6	4.199999999999998	1.8000000000000005	1	0	0.30000000000000004	0.7	6	6	1.8000000000000005	4.199999999999998	valid	0.9997410779997152	51200	0	0	2	53248	0	53248	0	53248	0	0.7	53248	turquoise	purple	0	0	ml	2.7.3	bip	sub-12_ses-01_task-ml_proj-bip_2021-01-12-10-26-20.583454
37	12	1	1	38	volatile	1	40	38	vs	purple	turquoise	turquoise	purple	right	left	0.7	0.30000000000000004	10	2	7.0	0.6000000000000001	1	0	0.30000000000000004	0.7	2	10	0.6000000000000001	7.0	valid	0.6998346560012578	53248	0	1	1	53248	1	53248	1	53248	1	0.7	53248	turquoise	purple	1	10	ml	2.7.3	bip	sub-12_ses-01_task-ml_proj-bip_2021-01-12-10-26-20.583454
38	12	1	1	39	volatile	1	40	39	vs	purple	turquoise	turquoise	purple	right	left	0.7	0.30000000000000004	4	2	2.8	0.6000000000000001	1	0	0.30000000000000004	0.7	2	4	0.6000000000000001	2.8	valid	0.6998364060000313	53248	0	1	1	53248	1	53248	1	53248	1	0.7	53248	turquoise	purple	1	4	ml	2.7.3	bip	sub-12_ses-01_task-ml_proj-bip_2021-01-12-10-26-20.583454
39	12	1	1	40	volatile	1	40	40	vs	turquoise	purple	turquoise	purple	left	right	0.7	0.30000000000000004	10	2	7.0	0.6000000000000001	1	0	0.7	0.30000000000000004	10	2	7.0	0.6000000000000001	valid	0.8331174459999602	51200	0	0	1	51200	1	51200	1	51200	1	0.7	51200	turquoise	purple	1	10	ml	2.7.3	bip	sub-12_ses-01_task-ml_proj-bip_2021-01-12-10-26-20.583454
40	12	1	1	41	volatile	2	20	1	vs	turquoise	purple	turquoise	purple	left	right	0.30000000000000004	0.7	10	2	3.0000000000000004	1.4	1	0	0.30000000000000004	0.7	10	2	3.0000000000000004	1.4	invalid	0.7831306709995259	51200	0	0	1	51200	1	53248	0	51200	1	0.7	53248	purple	turquoise	0	10	ml	2.7.3	bip	sub-12_ses-01_task-ml_proj-bip_2021-01-12-10-26-20.583454
41	12	1	1	42	volatile	2	20	2	vs	turquoise	purple	turquoise	purple	left	right	0.30000000000000004	0.7	4	2	1.2000000000000002	1.4	0	1	0.30000000000000004	0.7	4	2	1.2000000000000002	1.4	valid	1.0330605680010194	51200	0	0	1	53248	0	53248	0	51200	1	0.7	53248	purple	turquoise	0	0	ml	2.7.3	bip	sub-12_ses-01_task-ml_proj-bip_2021-01-12-10-26-20.583454
42	12	1	1	43	volatile	2	20	3	vs	purple	turquoise	turquoise	purple	right	left	0.30000000000000004	0.7	6	4	1.8000000000000005	2.8	0	1	0.7	0.30000000000000004	4	6	2.8	1.8000000000000005	valid	1.0997103459994833	51200	0	0	2	51200	1	51200	1	53248	0	0.7	51200	purple	turquoise	0	4	ml	2.7.3	bip	sub-12_ses-01_task-ml_proj-bip_2021-01-12-10-26-20.583454
43	12	1	1	44	volatile	2	20	4	vs	turquoise	purple	turquoise	purple	left	right	0.30000000000000004	0.7	2	2	0.6000000000000001	1.4	1	0	0.30000000000000004	0.7	2	2	0.6000000000000001	1.4	invalid	0.6998397349998413	53248	0	1	2	53248	1	53248	1	53248	1	0.7	53248	purple	turquoise	0	0	ml	2.7.3	bip	sub-12_ses-01_task-ml_proj-bip_2021-01-12-10-26-20.583454
44	12	1	1	45	volatile	2	20	5	vs	purple	turquoise	turquoise	purple	right	left	0.30000000000000004	0.7	2	6	0.6000000000000001	4.199999999999998	1	0	0.7	0.30000000000000004	6	2	4.199999999999998	0.6000000000000001	invalid	0.5665306560003955	51200	0	0	2	51200	1	51200	1	51200	1	0.7	51200	purple	turquoise	1	0	ml	2.7.3	bip	sub-12_ses-01_task-ml_proj-bip_2021-01-12-10-26-20.583454
45	12	1	1	46	volatile	2	20	6	vs	purple	turquoise	turquoise	purple	right	left	0.30000000000000004	0.7	4	2	1.2000000000000002	1.4	0	1	0.7	0.30000000000000004	2	4	1.4	1.2000000000000002	valid	0.9664241099999344	53248	0	1	1	51200	0	51200	0	53248	1	0.7	51200	purple	turquoise	0	0	ml	2.7.3	bip	sub-12_ses-01_task-ml_proj-bip_2021-01-12-10-26-20.583454
46	12	1	1	47	volatile	2	20	7	vs	purple	turquoise	turquoise	purple	right	left	0.30000000000000004	0.7	6	2	1.8000000000000005	1.4	0	1	0.7	0.30000000000000004	2	6	1.4	1.8000000000000005	valid	0.9330970120008716	51200	0	0	2	53248	0	51200	1	53248	0	0.7	51200	purple	turquoise	0	2	ml	2.7.3	bip	sub-12_ses-01_task-ml_proj-bip_2021-01-12-10-26-20.583454
47	12	1	1	48	volatile	2	20	8	vs	purple	turquoise	turquoise	purple	right	left	0.30000000000000004	0.7	6	6	1.8000000000000005	4.199999999999998	1	0	0.7	0.30000000000000004	6	6	4.199999999999998	1.8000000000000005	invalid	0.6998215900002833	51200	0	0	2	51200	1	51200	1	53248	0	0.7	51200	purple	turquoise	1	0	ml	2.7.3	bip	sub-12_ses-01_task-ml_proj-bip_2021-01-12-10-26-20.583454
48	12	1	1	49	volatile	2	20	9	vs	purple	turquoise	turquoise	purple	right	left	0.30000000000000004	0.7	2	4	0.6000000000000001	2.8	0	1	0.7	0.30000000000000004	4	2	2.8	0.6000000000000001	valid	0.7664700699988316	51200	0	0	2	51200	1	51200	1	51200	1	0.7	51200	purple	turquoise	1	4	ml	2.7.3	bip	sub-12_ses-01_task-ml_proj-bip_2021-01-12-10-26-20.583454
49	12	1	1	50	volatile	2	20	10	vs	purple	turquoise	turquoise	purple	right	left	0.30000000000000004	0.7	4	6	1.2000000000000002	4.199999999999998	0	1	0.7	0.30000000000000004	6	4	4.199999999999998	1.2000000000000002	valid	0.6498394469999766	51200	0	0	2	51200	1	51200	1	51200	1	0.7	51200	purple	turquoise	1	6	ml	2.7.3	bip	sub-12_ses-01_task-ml_proj-bip_2021-01-12-10-26-20.583454
50	12	1	2	51	volatile	2	20	11	vs	turquoise	purple	turquoise	purple	left	right	0.30000000000000004	0.7	2	10	0.6000000000000001	7.0	0	1	0.30000000000000004	0.7	2	10	0.6000000000000001	7.0	valid	0.916439195998464	53248	0	1	2	53248	1	53248	1	53248	1	0.7	53248	purple	turquoise	1	10	ml	2.7.3	bip	sub-12_ses-01_task-ml_proj-bip_2021-01-12-10-26-20.583454
51	12	1	2	52	volatile	2	20	12	vs	purple	turquoise	turquoise	purple	right	left	0.30000000000000004	0.7	6	6	1.8000000000000005	4.199999999999998	0	1	0.7	0.30000000000000004	6	6	4.199999999999998	1.8000000000000005	valid	0.583192236999821	51200	0	0	2	51200	1	51200	1	53248	0	0.7	51200	purple	turquoise	1	6	ml	2.7.3	bip	sub-12_ses-01_task-ml_proj-bip_2021-01-12-10-26-20.583454
52	12	1	2	53	volatile	2	20	13	vs	turquoise	purple	turquoise	purple	left	right	0.30000000000000004	0.7	2	10	0.6000000000000001	7.0	0	1	0.30000000000000004	0.7	2	10	0.6000000000000001	7.0	valid	0.6331919660005951	53248	0	1	2	53248	1	53248	1	53248	1	0.7	53248	purple	turquoise	1	10	ml	2.7.3	bip	sub-12_ses-01_task-ml_proj-bip_2021-01-12-10-26-20.583454
53	12	1	2	54	volatile	2	20	14	vs	turquoise	purple	turquoise	purple	left	right	0.30000000000000004	0.7	4	6	1.2000000000000002	4.199999999999998	0	1	0.30000000000000004	0.7	4	6	1.2000000000000002	4.199999999999998	valid	0.7498218010005075	53248	0	1	2	53248	1	53248	1	53248	1	0.7	53248	purple	turquoise	1	6	ml	2.7.3	bip	sub-12_ses-01_task-ml_proj-bip_2021-01-12-10-26-20.583454
54	12	1	2	55	volatile	2	20	15	vs	turquoise	purple	turquoise	purple	left	right	0.30000000000000004	0.7	2	6	0.6000000000000001	4.199999999999998	0	1	0.30000000000000004	0.7	2	6	0.6000000000000001	4.199999999999998	valid	0.6165311669992661	53248	0	1	2	53248	1	53248	1	53248	1	0.7	53248	purple	turquoise	1	6	ml	2.7.3	bip	sub-12_ses-01_task-ml_proj-bip_2021-01-12-10-26-20.583454
55	12	1	2	56	volatile	2	20	16	vs	turquoise	purple	turquoise	purple	left	right	0.30000000000000004	0.7	6	2	1.8000000000000005	1.4	0	1	0.30000000000000004	0.7	6	2	1.8000000000000005	1.4	valid	1.1330304469993278	51200	0	0	1	51200	1	53248	0	51200	1	0.7	53248	purple	turquoise	0	0	ml	2.7.3	bip	sub-12_ses-01_task-ml_proj-bip_2021-01-12-10-26-20.583454
56	12	1	2	57	volatile	2	20	17	vs	turquoise	purple	turquoise	purple	left	right	0.30000000000000004	0.7	6	4	1.8000000000000005	2.8	1	0	0.30000000000000004	0.7	6	4	1.8000000000000005	2.8	invalid	0.7664668699999311	53248	0	1	2	53248	1	53248	1	51200	0	0.7	53248	purple	turquoise	0	0	ml	2.7.3	bip	sub-12_ses-01_task-ml_proj-bip_2021-01-12-10-26-20.583454
57	12	1	2	58	volatile	2	20	18	vs	purple	turquoise	turquoise	purple	right	left	0.30000000000000004	0.7	2	10	0.6000000000000001	7.0	1	0	0.7	0.30000000000000004	10	2	7.0	0.6000000000000001	invalid	0.6165089269998134	51200	0	0	2	51200	1	51200	1	51200	1	0.7	51200	purple	turquoise	1	0	ml	2.7.3	bip	sub-12_ses-01_task-ml_proj-bip_2021-01-12-10-26-20.583454
58	12	1	2	59	volatile	2	20	19	vs	purple	turquoise	turquoise	purple	right	left	0.30000000000000004	0.7	2	2	0.6000000000000001	1.4	0	1	0.7	0.30000000000000004	2	2	1.4	0.6000000000000001	valid	0.6998364299997775	53248	0	1	1	51200	0	51200	0	53248	1	0.7	51200	purple	turquoise	1	0	ml	2.7.3	bip	sub-12_ses-01_task-ml_proj-bip_2021-01-12-10-26-20.583454
59	12	1	2	60	volatile	2	20	20	vs	turquoise	purple	turquoise	purple	left	right	0.30000000000000004	0.7	2	4	0.6000000000000001	2.8	0	1	0.30000000000000004	0.7	2	4	0.6000000000000001	2.8	valid	0.599857207000241	51200	0	0	1	53248	0	53248	0	53248	0	0.7	53248	purple	turquoise	1	0	ml	2.7.3	bip	sub-12_ses-01_task-ml_proj-bip_2021-01-12-10-26-20.583454
60	12	1	2	61	volatile	3	20	1	vs	turquoise	purple	turquoise	purple	left	right	0.7	0.30000000000000004	4	6	2.8	1.8000000000000005	0	1	0.7	0.30000000000000004	4	6	2.8	1.8000000000000005	invalid	0.8831256770008622	53248	0	1	2	51200	0	51200	0	53248	1	0.7	51200	turquoise	purple	0	6	ml	2.7.3	bip	sub-12_ses-01_task-ml_proj-bip_2021-01-12-10-26-20.583454
61	12	1	2	62	volatile	3	20	2	vs	turquoise	purple	turquoise	purple	left	right	0.7	0.30000000000000004	6	4	4.199999999999998	1.2000000000000002	1	0	0.7	0.30000000000000004	6	4	4.199999999999998	1.2000000000000002	valid	0.9331006210013584	53248	0	1	2	51200	0	51200	0	51200	0	0.7	51200	turquoise	purple	1	0	ml	2.7.3	bip	sub-12_ses-01_task-ml_proj-bip_2021-01-12-10-26-20.583454
62	12	1	2	63	volatile	3	20	3	vs	purple	turquoise	turquoise	purple	right	left	0.7	0.30000000000000004	2	6	1.4	1.8000000000000005	0	1	0.30000000000000004	0.7	6	2	1.8000000000000005	1.4	invalid	0.6498409300002095	51200	0	0	2	51200	1	53248	0	51200	1	0.7	53248	turquoise	purple	0	6	ml	2.7.3	bip	sub-12_ses-01_task-ml_proj-bip_2021-01-12-10-26-20.583454
63	12	1	2	64	volatile	3	20	4	vs	purple	turquoise	turquoise	purple	right	left	0.7	0.30000000000000004	2	6	1.4	1.8000000000000005	1	0	0.30000000000000004	0.7	6	2	1.8000000000000005	1.4	valid	0.7164878059993498	51200	0	0	2	51200	1	53248	0	51200	1	0.7	53248	turquoise	purple	0	0	ml	2.7.3	bip	sub-12_ses-01_task-ml_proj-bip_2021-01-12-10-26-20.583454
64	12	1	2	65	volatile	3	20	5	vs	turquoise	purple	turquoise	purple	left	right	0.7	0.30000000000000004	2	2	1.4	0.6000000000000001	1	0	0.7	0.30000000000000004	2	2	1.4	0.6000000000000001	valid	0.8997756779990596	53248	0	1	2	51200	0	51200	0	53248	1	0.7	51200	turquoise	purple	1	0	ml	2.7.3	bip	sub-12_ses-01_task-ml_proj-bip_2021-01-12-10-26-20.583454
65	12	1	2	66	volatile	3	20	6	vs	turquoise	purple	turquoise	purple	left	right	0.7	0.30000000000000004	2	6	1.4	1.8000000000000005	0	1	0.7	0.30000000000000004	2	6	1.4	1.8000000000000005	invalid	0.7831385080007749	53248	0	1	2	53248	1	51200	0	53248	1	0.7	51200	turquoise	purple	0	6	ml	2.7.3	bip	sub-12_ses-01_task-ml_proj-bip_2021-01-12-10-26-20.583454
66	12	1	2	67	volatile	3	20	7	vs	turquoise	purple	turquoise	purple	left	right	0.7	0.30000000000000004	2	4	1.4	1.2000000000000002	0	1	0.7	0.30000000000000004	2	4	1.4	1.2000000000000002	invalid	0.7664798559999326	53248	0	1	2	51200	0	51200	0	53248	1	0.7	51200	turquoise	purple	0	4	ml	2.7.3	bip	sub-12_ses-01_task-ml_proj-bip_2021-01-12-10-26-20.583454
67	12	1	2	68	volatile	3	20	8	vs	purple	turquoise	turquoise	purple	right	left	0.7	0.30000000000000004	2	10	1.4	3.0000000000000004	1	0	0.30000000000000004	0.7	10	2	3.0000000000000004	1.4	valid	0.6998249709995434	51200	0	0	2	51200	1	53248	0	51200	1	0.7	53248	turquoise	purple	0	0	ml	2.7.3	bip	sub-12_ses-01_task-ml_proj-bip_2021-01-12-10-26-20.583454
68	12	1	2	69	volatile	3	20	9	vs	turquoise	purple	turquoise	purple	left	right	0.7	0.30000000000000004	2	4	1.4	1.2000000000000002	1	0	0.7	0.30000000000000004	2	4	1.4	1.2000000000000002	valid	1.9827914779998537	53248	0	1	2	51200	0	51200	0	53248	1	0.7	51200	turquoise	purple	0	0	ml	2.7.3	bip	sub-12_ses-01_task-ml_proj-bip_2021-01-12-10-26-20.583454
69	12	1	2	70	volatile	3	20	10	vs	turquoise	purple	turquoise	purple	left	right	0.7	0.30000000000000004	2	10	1.4	3.0000000000000004	1	0	0.7	0.30000000000000004	2	10	1.4	3.0000000000000004	valid	0.7664835129999119	53248	0	1	2	53248	1	51200	0	53248	1	0.7	51200	turquoise	purple	0	0	ml	2.7.3	bip	sub-12_ses-01_task-ml_proj-bip_2021-01-12-10-26-20.583454
70	12	1	2	71	volatile	3	20	11	vs	purple	turquoise	turquoise	purple	right	left	0.7	0.30000000000000004	2	4	1.4	1.2000000000000002	0	1	0.30000000000000004	0.7	4	2	1.2000000000000002	1.4	invalid	1.016400746999352	51200	0	0	2	53248	0	53248	0	51200	1	0.7	53248	turquoise	purple	0	4	ml	2.7.3	bip	sub-12_ses-01_task-ml_proj-bip_2021-01-12-10-26-20.583454
71	12	1	2	72	volatile	3	20	12	vs	purple	turquoise	turquoise	purple	right	left	0.7	0.30000000000000004	6	6	4.199999999999998	1.8000000000000005	0	1	0.30000000000000004	0.7	6	6	1.8000000000000005	4.199999999999998	invalid	0.7331482139998116	51200	0	0	2	53248	0	53248	0	53248	0	0.7	53248	turquoise	purple	0	6	ml	2.7.3	bip	sub-12_ses-01_task-ml_proj-bip_2021-01-12-10-26-20.583454
72	12	1	2	73	volatile	3	20	13	vs	purple	turquoise	turquoise	purple	right	left	0.7	0.30000000000000004	2	10	1.4	3.0000000000000004	1	0	0.30000000000000004	0.7	10	2	3.0000000000000004	1.4	valid	0.7331465139995998	51200	0	0	2	51200	1	53248	0	51200	1	0.7	53248	turquoise	purple	0	0	ml	2.7.3	bip	sub-12_ses-01_task-ml_proj-bip_2021-01-12-10-26-20.583454
73	12	1	2	74	volatile	3	20	14	vs	purple	turquoise	turquoise	purple	right	left	0.7	0.30000000000000004	6	4	4.199999999999998	1.2000000000000002	1	0	0.30000000000000004	0.7	4	6	1.2000000000000002	4.199999999999998	valid	0.783165430999361	53248	0	1	1	53248	1	53248	1	53248	1	0.7	53248	turquoise	purple	1	6	ml	2.7.3	bip	sub-12_ses-01_task-ml_proj-bip_2021-01-12-10-26-20.583454
74	12	1	2	75	volatile	3	20	15	vs	purple	turquoise	turquoise	purple	right	left	0.7	0.30000000000000004	2	2	1.4	0.6000000000000001	1	0	0.30000000000000004	0.7	2	2	0.6000000000000001	1.4	valid	0.8164659459998802	53248	0	1	1	53248	1	53248	1	53248	1	0.7	53248	turquoise	purple	0	2	ml	2.7.3	bip	sub-12_ses-01_task-ml_proj-bip_2021-01-12-10-26-20.583454
75	12	1	2	76	volatile	3	20	16	vs	purple	turquoise	turquoise	purple	right	left	0.7	0.30000000000000004	4	6	2.8	1.8000000000000005	1	0	0.30000000000000004	0.7	6	4	1.8000000000000005	2.8	valid	0.4665698539993173	53248	0	1	1	53248	1	53248	1	51200	0	0.7	53248	turquoise	purple	0	4	ml	2.7.3	bip	sub-12_ses-01_task-ml_proj-bip_2021-01-12-10-26-20.583454
76	12	1	2	77	volatile	3	20	17	vs	turquoise	purple	turquoise	purple	left	right	0.7	0.30000000000000004	2	10	1.4	3.0000000000000004	1	0	0.7	0.30000000000000004	2	10	1.4	3.0000000000000004	valid	1.2663397689993872	53248	0	1	2	53248	1	51200	0	53248	1	0.7	51200	turquoise	purple	0	0	ml	2.7.3	bip	sub-12_ses-01_task-ml_proj-bip_2021-01-12-10-26-20.583454
77	12	1	2	78	volatile	3	20	18	vs	purple	turquoise	turquoise	purple	right	left	0.7	0.30000000000000004	2	4	1.4	1.2000000000000002	1	0	0.30000000000000004	0.7	4	2	1.2000000000000002	1.4	valid	0.8664549980003358	53248	0	1	1	53248	1	53248	1	51200	0	0.7	53248	turquoise	purple	0	2	ml	2.7.3	bip	sub-12_ses-01_task-ml_proj-bip_2021-01-12-10-26-20.583454
78	12	1	2	79	volatile	3	20	19	vs	turquoise	purple	turquoise	purple	left	right	0.7	0.30000000000000004	6	6	4.199999999999998	1.8000000000000005	1	0	0.7	0.30000000000000004	6	6	4.199999999999998	1.8000000000000005	valid	0.599859681999078	51200	0	0	1	51200	1	51200	1	53248	0	0.7	51200	turquoise	purple	1	6	ml	2.7.3	bip	sub-12_ses-01_task-ml_proj-bip_2021-01-12-10-26-20.583454
79	12	1	2	80	volatile	3	20	20	vs	turquoise	purple	turquoise	purple	left	right	0.7	0.30000000000000004	2	6	1.4	1.8000000000000005	1	0	0.7	0.30000000000000004	2	6	1.4	1.8000000000000005	valid	1.3496433180007443	53248	0	1	2	53248	1	51200	0	53248	1	0.7	51200	turquoise	purple	0	0	ml	2.7.3	bip	sub-12_ses-01_task-ml_proj-bip_2021-01-12-10-26-20.583454
80	12	1	2	81	volatile	4	20	1	vs	turquoise	purple	turquoise	purple	left	right	0.30000000000000004	0.7	2	4	0.6000000000000001	2.8	0	1	0.30000000000000004	0.7	2	4	0.6000000000000001	2.8	valid	0.8331244260007225	51200	0	0	1	53248	0	53248	0	53248	0	0.7	53248	purple	turquoise	1	0	ml	2.7.3	bip	sub-12_ses-01_task-ml_proj-bip_2021-01-12-10-26-20.583454
81	12	1	2	82	volatile	4	20	2	vs	purple	turquoise	turquoise	purple	right	left	0.30000000000000004	0.7	6	6	1.8000000000000005	4.199999999999998	1	0	0.7	0.30000000000000004	6	6	4.199999999999998	1.8000000000000005	invalid	0.7998003989996505	53248	0	1	1	51200	0	51200	0	53248	1	0.7	51200	purple	turquoise	1	6	ml	2.7.3	bip	sub-12_ses-01_task-ml_proj-bip_2021-01-12-10-26-20.583454
82	12	1	2	83	volatile	4	20	3	vs	turquoise	purple	turquoise	purple	left	right	0.30000000000000004	0.7	6	6	1.8000000000000005	4.199999999999998	0	1	0.30000000000000004	0.7	6	6	1.8000000000000005	4.199999999999998	valid	0.7331533799988392	51200	0	0	1	53248	0	53248	0	53248	0	0.7	53248	purple	turquoise	0	0	ml	2.7.3	bip	sub-12_ses-01_task-ml_proj-bip_2021-01-12-10-26-20.583454
83	12	1	2	84	volatile	4	20	4	vs	turquoise	purple	turquoise	purple	left	right	0.30000000000000004	0.7	2	6	0.6000000000000001	4.199999999999998	1	0	0.30000000000000004	0.7	2	6	0.6000000000000001	4.199999999999998	invalid	1.2663430049997257	53248	0	1	2	53248	1	53248	1	53248	1	0.7	53248	purple	turquoise	1	0	ml	2.7.3	bip	sub-12_ses-01_task-ml_proj-bip_2021-01-12-10-26-20.583454
84	12	1	2	85	volatile	4	20	5	vs	turquoise	purple	turquoise	purple	left	right	0.30000000000000004	0.7	2	6	0.6000000000000001	4.199999999999998	1	0	0.30000000000000004	0.7	2	6	0.6000000000000001	4.199999999999998	invalid	1.049732915000277	53248	0	1	2	53248	1	53248	1	53248	1	0.7	53248	purple	turquoise	1	0	ml	2.7.3	bip	sub-12_ses-01_task-ml_proj-bip_2021-01-12-10-26-20.583454
85	12	1	2	86	volatile	4	20	6	vs	turquoise	purple	turquoise	purple	left	right	0.30000000000000004	0.7	4	6	1.2000000000000002	4.199999999999998	0	1	0.30000000000000004	0.7	4	6	1.2000000000000002	4.199999999999998	valid	0.7498083659993426	51200	0	0	1	53248	0	53248	0	53248	0	0.7	53248	purple	turquoise	1	0	ml	2.7.3	bip	sub-12_ses-01_task-ml_proj-bip_2021-01-12-10-26-20.583454
86	12	1	2	87	volatile	4	20	7	vs	purple	turquoise	turquoise	purple	right	left	0.30000000000000004	0.7	2	2	0.6000000000000001	1.4	0	1	0.7	0.30000000000000004	2	2	1.4	0.6000000000000001	valid	1.1330363680008304	53248	0	1	1	51200	0	51200	0	53248	1	0.7	51200	purple	turquoise	1	0	ml	2.7.3	bip	sub-12_ses-01_task-ml_proj-bip_2021-01-12-10-26-20.583454
87	12	1	2	88	volatile	4	20	8	vs	purple	turquoise	turquoise	purple	right	left	0.30000000000000004	0.7	2	2	0.6000000000000001	1.4	0	1	0.7	0.30000000000000004	2	2	1.4	0.6000000000000001	valid	1.1330271619990526	51200	0	0	2	51200	1	51200	1	53248	0	0.7	51200	purple	turquoise	1	2	ml	2.7.3	bip	sub-12_ses-01_task-ml_proj-bip_2021-01-12-10-26-20.583454
88	12	1	2	89	volatile	4	20	9	vs	purple	turquoise	turquoise	purple	right	left	0.30000000000000004	0.7	6	4	1.8000000000000005	2.8	0	1	0.7	0.30000000000000004	4	6	2.8	1.8000000000000005	valid	0.8831051440010924	51200	0	0	2	51200	1	51200	1	53248	0	0.7	51200	purple	turquoise	0	4	ml	2.7.3	bip	sub-12_ses-01_task-ml_proj-bip_2021-01-12-10-26-20.583454
89	12	1	2	90	volatile	4	20	10	vs	purple	turquoise	turquoise	purple	right	left	0.30000000000000004	0.7	2	6	0.6000000000000001	4.199999999999998	0	1	0.7	0.30000000000000004	6	2	4.199999999999998	0.6000000000000001	valid	0.9497599639998952	51200	0	0	2	51200	1	51200	1	51200	1	0.7	51200	purple	turquoise	1	6	ml	2.7.3	bip	sub-12_ses-01_task-ml_proj-bip_2021-01-12-10-26-20.583454
90	12	1	2	91	volatile	4	20	11	vs	turquoise	purple	turquoise	purple	left	right	0.30000000000000004	0.7	6	2	1.8000000000000005	1.4	0	1	0.30000000000000004	0.7	6	2	1.8000000000000005	1.4	valid	1.6162230959998851	51200	0	0	1	51200	1	53248	0	51200	1	0.7	53248	purple	turquoise	0	0	ml	2.7.3	bip	sub-12_ses-01_task-ml_proj-bip_2021-01-12-10-26-20.583454
91	12	1	2	92	volatile	4	20	12	vs	purple	turquoise	turquoise	purple	right	left	0.30000000000000004	0.7	2	4	0.6000000000000001	2.8	0	1	0.7	0.30000000000000004	4	2	2.8	0.6000000000000001	valid	0.6664933949996339	51200	0	0	2	51200	1	51200	1	51200	1	0.7	51200	purple	turquoise	1	4	ml	2.7.3	bip	sub-12_ses-01_task-ml_proj-bip_2021-01-12-10-26-20.583454
92	12	1	2	93	volatile	4	20	13	vs	turquoise	purple	turquoise	purple	left	right	0.30000000000000004	0.7	10	2	3.0000000000000004	1.4	1	0	0.30000000000000004	0.7	10	2	3.0000000000000004	1.4	invalid	1.2996298779999051	51200	0	0	1	51200	1	53248	0	51200	1	0.7	53248	purple	turquoise	0	10	ml	2.7.3	bip	sub-12_ses-01_task-ml_proj-bip_2021-01-12-10-26-20.583454
93	12	1	2	94	volatile	4	20	14	vs	purple	turquoise	turquoise	purple	right	left	0.30000000000000004	0.7	2	10	0.6000000000000001	7.0	1	0	0.7	0.30000000000000004	10	2	7.0	0.6000000000000001	invalid	0.7997880889997759	51200	0	0	2	51200	1	51200	1	51200	1	0.7	51200	purple	turquoise	1	0	ml	2.7.3	bip	sub-12_ses-01_task-ml_proj-bip_2021-01-12-10-26-20.583454
94	12	1	2	95	volatile	4	20	15	vs	turquoise	purple	turquoise	purple	left	right	0.30000000000000004	0.7	6	4	1.8000000000000005	2.8	0	1	0.30000000000000004	0.7	6	4	1.8000000000000005	2.8	valid	0.7498124769990682	51200	0	0	1	53248	0	53248	0	51200	1	0.7	53248	purple	turquoise	0	0	ml	2.7.3	bip	sub-12_ses-01_task-ml_proj-bip_2021-01-12-10-26-20.583454
95	12	1	2	96	volatile	4	20	16	vs	turquoise	purple	turquoise	purple	left	right	0.30000000000000004	0.7	2	10	0.6000000000000001	7.0	0	1	0.30000000000000004	0.7	2	10	0.6000000000000001	7.0	valid	0.7831392779989983	53248	0	1	2	53248	1	53248	1	53248	1	0.7	53248	purple	turquoise	1	10	ml	2.7.3	bip	sub-12_ses-01_task-ml_proj-bip_2021-01-12-10-26-20.583454
96	12	1	2	97	volatile	4	20	17	vs	purple	turquoise	turquoise	purple	right	left	0.30000000000000004	0.7	4	2	1.2000000000000002	1.4	0	1	0.7	0.30000000000000004	2	4	1.4	1.2000000000000002	valid	1.4162872699998843	53248	0	1	1	51200	0	51200	0	53248	1	0.7	51200	purple	turquoise	0	0	ml	2.7.3	bip	sub-12_ses-01_task-ml_proj-bip_2021-01-12-10-26-20.583454
97	12	1	2	98	volatile	4	20	18	vs	purple	turquoise	turquoise	purple	right	left	0.30000000000000004	0.7	10	2	3.0000000000000004	1.4	0	1	0.7	0.30000000000000004	2	10	1.4	3.0000000000000004	valid	1.0830578420009258	53248	0	1	1	53248	1	51200	0	53248	1	0.7	51200	purple	turquoise	0	0	ml	2.7.3	bip	sub-12_ses-01_task-ml_proj-bip_2021-01-12-10-26-20.583454
98	12	1	2	99	volatile	4	20	19	vs	purple	turquoise	turquoise	purple	right	left	0.30000000000000004	0.7	4	6	1.2000000000000002	4.199999999999998	1	0	0.7	0.30000000000000004	6	4	4.199999999999998	1.2000000000000002	invalid	0.8664419090000592	51200	0	0	2	51200	1	51200	1	51200	1	0.7	51200	purple	turquoise	1	0	ml	2.7.3	bip	sub-12_ses-01_task-ml_proj-bip_2021-01-12-10-26-20.583454
99	12	1	2	100	volatile	4	20	20	vs	turquoise	purple	turquoise	purple	left	right	0.30000000000000004	0.7	4	2	1.2000000000000002	1.4	0	1	0.30000000000000004	0.7	4	2	1.2000000000000002	1.4	valid	0.6165268479999213	53248	0	1	2	53248	1	53248	1	51200	0	0.7	53248	purple	turquoise	0	2	ml	2.7.3	bip	sub-12_ses-01_task-ml_proj-bip_2021-01-12-10-26-20.583454
100	12	1	3	101	volatile	5	40	1	vs	turquoise	purple	turquoise	purple	left	right	0.7	0.30000000000000004	6	6	4.199999999999998	1.8000000000000005	1	0	0.7	0.30000000000000004	6	6	4.199999999999998	1.8000000000000005	valid	1.2163512250008353	51200	0	0	1	51200	1	51200	1	53248	0	0.7	51200	turquoise	purple	1	6	ml	2.7.3	bip	sub-12_ses-01_task-ml_proj-bip_2021-01-12-10-26-20.583454
101	12	1	3	102	volatile	5	40	2	vs	purple	turquoise	turquoise	purple	right	left	0.7	0.30000000000000004	2	10	1.4	3.0000000000000004	1	0	0.30000000000000004	0.7	10	2	3.0000000000000004	1.4	valid	1.3163218050012802	53248	0	1	1	51200	0	53248	1	51200	0	0.7	53248	turquoise	purple	0	2	ml	2.7.3	bip	sub-12_ses-01_task-ml_proj-bip_2021-01-12-10-26-20.583454
102	12	1	3	103	volatile	5	40	3	vs	turquoise	purple	turquoise	purple	left	right	0.7	0.30000000000000004	2	2	1.4	0.6000000000000001	1	0	0.7	0.30000000000000004	2	2	1.4	0.6000000000000001	valid	0.8997692270004336	51200	0	0	1	51200	1	51200	1	53248	0	0.7	51200	turquoise	purple	1	2	ml	2.7.3	bip	sub-12_ses-01_task-ml_proj-bip_2021-01-12-10-26-20.583454
103	12	1	3	104	volatile	5	40	4	vs	purple	turquoise	turquoise	purple	right	left	0.7	0.30000000000000004	6	4	4.199999999999998	1.2000000000000002	1	0	0.30000000000000004	0.7	4	6	1.2000000000000002	4.199999999999998	valid	0.7664806289994885	53248	0	1	1	53248	1	53248	1	53248	1	0.7	53248	turquoise	purple	1	6	ml	2.7.3	bip	sub-12_ses-01_task-ml_proj-bip_2021-01-12-10-26-20.583454
104	12	1	3	105	volatile	5	40	5	vs	turquoise	purple	turquoise	purple	left	right	0.7	0.30000000000000004	6	4	4.199999999999998	1.2000000000000002	0	1	0.7	0.30000000000000004	6	4	4.199999999999998	1.2000000000000002	invalid	0.7164846689993283	51200	0	0	1	51200	1	51200	1	51200	1	0.7	51200	turquoise	purple	1	0	ml	2.7.3	bip	sub-12_ses-01_task-ml_proj-bip_2021-01-12-10-26-20.583454
105	12	1	3	106	volatile	5	40	6	vs	purple	turquoise	turquoise	purple	right	left	0.7	0.30000000000000004	6	6	4.199999999999998	1.8000000000000005	1	0	0.30000000000000004	0.7	6	6	1.8000000000000005	4.199999999999998	valid	0.7998054299987416	53248	0	1	1	53248	1	53248	1	53248	1	0.7	53248	turquoise	purple	0	6	ml	2.7.3	bip	sub-12_ses-01_task-ml_proj-bip_2021-01-12-10-26-20.583454
106	12	1	3	107	volatile	5	40	7	vs	turquoise	purple	turquoise	purple	left	right	0.7	0.30000000000000004	10	2	7.0	0.6000000000000001	0	1	0.7	0.30000000000000004	10	2	7.0	0.6000000000000001	invalid	0.6498354319992359	51200	0	0	1	51200	1	51200	1	51200	1	0.7	51200	turquoise	purple	1	0	ml	2.7.3	bip	sub-12_ses-01_task-ml_proj-bip_2021-01-12-10-26-20.583454
107	12	1	3	108	volatile	5	40	8	vs	turquoise	purple	turquoise	purple	left	right	0.7	0.30000000000000004	4	2	2.8	0.6000000000000001	1	0	0.7	0.30000000000000004	4	2	2.8	0.6000000000000001	valid	0.7331452520011226	51200	0	0	1	51200	1	51200	1	51200	1	0.7	51200	turquoise	purple	1	4	ml	2.7.3	bip	sub-12_ses-01_task-ml_proj-bip_2021-01-12-10-26-20.583454
108	12	1	3	109	volatile	5	40	9	vs	purple	turquoise	turquoise	purple	right	left	0.7	0.30000000000000004	2	2	1.4	0.6000000000000001	1	0	0.30000000000000004	0.7	2	2	0.6000000000000001	1.4	valid	0.8497912130005716	53248	0	1	1	53248	1	53248	1	53248	1	0.7	53248	turquoise	purple	0	2	ml	2.7.3	bip	sub-12_ses-01_task-ml_proj-bip_2021-01-12-10-26-20.583454
109	12	1	3	110	volatile	5	40	10	vs	turquoise	purple	turquoise	purple	left	right	0.7	0.30000000000000004	6	2	4.199999999999998	0.6000000000000001	1	0	0.7	0.30000000000000004	6	2	4.199999999999998	0.6000000000000001	valid	0.6664995970004384	51200	0	0	1	51200	1	51200	1	51200	1	0.7	51200	turquoise	purple	1	6	ml	2.7.3	bip	sub-12_ses-01_task-ml_proj-bip_2021-01-12-10-26-20.583454
110	12	1	3	111	volatile	5	40	11	vs	purple	turquoise	turquoise	purple	right	left	0.7	0.30000000000000004	2	6	1.4	1.8000000000000005	1	0	0.30000000000000004	0.7	6	2	1.8000000000000005	1.4	valid	1.0997149180002452	53248	0	1	1	51200	0	53248	1	51200	0	0.7	53248	turquoise	purple	0	2	ml	2.7.3	bip	sub-12_ses-01_task-ml_proj-bip_2021-01-12-10-26-20.583454
111	12	1	3	112	volatile	5	40	12	vs	turquoise	purple	turquoise	purple	left	right	0.7	0.30000000000000004	2	10	1.4	3.0000000000000004	1	0	0.7	0.30000000000000004	2	10	1.4	3.0000000000000004	valid	1.1996916080006486	53248	0	1	2	53248	1	51200	0	53248	1	0.7	51200	turquoise	purple	0	0	ml	2.7.3	bip	sub-12_ses-01_task-ml_proj-bip_2021-01-12-10-26-20.583454
112	12	1	3	113	volatile	5	40	13	vs	purple	turquoise	turquoise	purple	right	left	0.7	0.30000000000000004	6	4	4.199999999999998	1.2000000000000002	1	0	0.30000000000000004	0.7	4	6	1.2000000000000002	4.199999999999998	valid	0.7831472660000145	53248	0	1	1	53248	1	53248	1	53248	1	0.7	53248	turquoise	purple	1	6	ml	2.7.3	bip	sub-12_ses-01_task-ml_proj-bip_2021-01-12-10-26-20.583454
113	12	1	3	114	volatile	5	40	14	vs	purple	turquoise	turquoise	purple	right	left	0.7	0.30000000000000004	2	4	1.4	1.2000000000000002	1	0	0.30000000000000004	0.7	4	2	1.2000000000000002	1.4	valid	0.6998408719991858	53248	0	1	1	53248	1	53248	1	51200	0	0.7	53248	turquoise	purple	0	2	ml	2.7.3	bip	sub-12_ses-01_task-ml_proj-bip_2021-01-12-10-26-20.583454
114	12	1	3	115	volatile	5	40	15	vs	turquoise	purple	turquoise	purple	left	right	0.7	0.30000000000000004	2	4	1.4	1.2000000000000002	1	0	0.7	0.30000000000000004	2	4	1.4	1.2000000000000002	valid	0.8164554589984618	51200	0	0	1	51200	1	51200	1	53248	0	0.7	51200	turquoise	purple	0	2	ml	2.7.3	bip	sub-12_ses-01_task-ml_proj-bip_2021-01-12-10-26-20.583454
115	12	1	3	116	volatile	5	40	16	vs	turquoise	purple	turquoise	purple	left	right	0.7	0.30000000000000004	2	2	1.4	0.6000000000000001	0	1	0.7	0.30000000000000004	2	2	1.4	0.6000000000000001	invalid	0.8497777840002527	51200	0	0	1	51200	1	51200	1	53248	0	0.7	51200	turquoise	purple	1	0	ml	2.7.3	bip	sub-12_ses-01_task-ml_proj-bip_2021-01-12-10-26-20.583454
116	12	1	3	117	volatile	5	40	17	vs	turquoise	purple	turquoise	purple	left	right	0.7	0.30000000000000004	2	10	1.4	3.0000000000000004	1	0	0.7	0.30000000000000004	2	10	1.4	3.0000000000000004	valid	1.5162646010012395	53248	0	1	2	53248	1	51200	0	53248	1	0.7	51200	turquoise	purple	0	0	ml	2.7.3	bip	sub-12_ses-01_task-ml_proj-bip_2021-01-12-10-26-20.583454
117	12	1	3	118	volatile	5	40	18	vs	turquoise	purple	turquoise	purple	left	right	0.7	0.30000000000000004	10	2	7.0	0.6000000000000001	1	0	0.7	0.30000000000000004	10	2	7.0	0.6000000000000001	valid	0.6998249440002837	51200	0	0	1	51200	1	51200	1	51200	1	0.7	51200	turquoise	purple	1	10	ml	2.7.3	bip	sub-12_ses-01_task-ml_proj-bip_2021-01-12-10-26-20.583454
118	12	1	3	119	volatile	5	40	19	vs	purple	turquoise	turquoise	purple	right	left	0.7	0.30000000000000004	10	2	7.0	0.6000000000000001	1	0	0.30000000000000004	0.7	2	10	0.6000000000000001	7.0	valid	0.7498183810002956	53248	0	1	1	53248	1	53248	1	53248	1	0.7	53248	turquoise	purple	1	10	ml	2.7.3	bip	sub-12_ses-01_task-ml_proj-bip_2021-01-12-10-26-20.583454
119	12	1	3	120	volatile	5	40	20	vs	turquoise	purple	turquoise	purple	left	right	0.7	0.30000000000000004	6	2	4.199999999999998	0.6000000000000001	1	0	0.7	0.30000000000000004	6	2	4.199999999999998	0.6000000000000001	valid	0.9497514259983292	51200	0	0	1	51200	1	51200	1	51200	1	0.7	51200	turquoise	purple	1	6	ml	2.7.3	bip	sub-12_ses-01_task-ml_proj-bip_2021-01-12-10-26-20.583454
120	12	1	3	121	volatile	5	40	21	vs	purple	turquoise	turquoise	purple	right	left	0.7	0.30000000000000004	4	2	2.8	0.6000000000000001	1	0	0.30000000000000004	0.7	2	4	0.6000000000000001	2.8	valid	0.9164360890008538	53248	0	1	1	53248	1	53248	1	53248	1	0.7	53248	turquoise	purple	1	4	ml	2.7.3	bip	sub-12_ses-01_task-ml_proj-bip_2021-01-12-10-26-20.583454
121	12	1	3	122	volatile	5	40	22	vs	purple	turquoise	turquoise	purple	right	left	0.7	0.30000000000000004	6	4	4.199999999999998	1.2000000000000002	0	1	0.30000000000000004	0.7	4	6	1.2000000000000002	4.199999999999998	invalid	0.6831788849995064	53248	0	1	1	53248	1	53248	1	53248	1	0.7	53248	turquoise	purple	1	0	ml	2.7.3	bip	sub-12_ses-01_task-ml_proj-bip_2021-01-12-10-26-20.583454
122	12	1	3	123	volatile	5	40	23	vs	turquoise	purple	turquoise	purple	left	right	0.7	0.30000000000000004	2	6	1.4	1.8000000000000005	1	0	0.7	0.30000000000000004	2	6	1.4	1.8000000000000005	valid	0.6664988480006286	51200	0	0	1	53248	0	51200	1	53248	0	0.7	51200	turquoise	purple	0	2	ml	2.7.3	bip	sub-12_ses-01_task-ml_proj-bip_2021-01-12-10-26-20.583454
123	12	1	3	124	volatile	5	40	24	vs	purple	turquoise	turquoise	purple	right	left	0.7	0.30000000000000004	2	4	1.4	1.2000000000000002	0	1	0.30000000000000004	0.7	4	2	1.2000000000000002	1.4	invalid	0.7831435099997179	53248	0	1	1	53248	1	53248	1	51200	0	0.7	53248	turquoise	purple	0	0	ml	2.7.3	bip	sub-12_ses-01_task-ml_proj-bip_2021-01-12-10-26-20.583454
124	12	1	3	125	volatile	5	40	25	vs	turquoise	purple	turquoise	purple	left	right	0.7	0.30000000000000004	4	6	2.8	1.8000000000000005	0	1	0.7	0.30000000000000004	4	6	2.8	1.8000000000000005	invalid	0.6665043899993179	51200	0	0	1	51200	1	51200	1	53248	0	0.7	51200	turquoise	purple	0	0	ml	2.7.3	bip	sub-12_ses-01_task-ml_proj-bip_2021-01-12-10-26-20.583454
125	12	1	3	126	volatile	5	40	26	vs	purple	turquoise	turquoise	purple	right	left	0.7	0.30000000000000004	2	6	1.4	1.8000000000000005	0	1	0.30000000000000004	0.7	6	2	1.8000000000000005	1.4	invalid	1.0663923310003156	53248	0	1	1	51200	0	53248	1	51200	0	0.7	53248	turquoise	purple	0	0	ml	2.7.3	bip	sub-12_ses-01_task-ml_proj-bip_2021-01-12-10-26-20.583454
126	12	1	3	127	volatile	5	40	27	vs	turquoise	purple	turquoise	purple	left	right	0.7	0.30000000000000004	6	4	4.199999999999998	1.2000000000000002	1	0	0.7	0.30000000000000004	6	4	4.199999999999998	1.2000000000000002	valid	0.6165233110004921	53248	0	1	2	51200	0	51200	0	51200	0	0.7	51200	turquoise	purple	1	0	ml	2.7.3	bip	sub-12_ses-01_task-ml_proj-bip_2021-01-12-10-26-20.583454
127	12	1	3	128	volatile	5	40	28	vs	turquoise	purple	turquoise	purple	left	right	0.7	0.30000000000000004	2	10	1.4	3.0000000000000004	0	1	0.7	0.30000000000000004	2	10	1.4	3.0000000000000004	invalid	1.1163795270003902	53248	0	1	2	53248	1	51200	0	53248	1	0.7	51200	turquoise	purple	0	10	ml	2.7.3	bip	sub-12_ses-01_task-ml_proj-bip_2021-01-12-10-26-20.583454
128	12	1	3	129	volatile	5	40	29	vs	turquoise	purple	turquoise	purple	left	right	0.7	0.30000000000000004	6	4	4.199999999999998	1.2000000000000002	1	0	0.7	0.30000000000000004	6	4	4.199999999999998	1.2000000000000002	valid	0.8164674679992459	53248	0	1	2	51200	0	51200	0	51200	0	0.7	51200	turquoise	purple	1	0	ml	2.7.3	bip	sub-12_ses-01_task-ml_proj-bip_2021-01-12-10-26-20.583454
129	12	1	3	130	volatile	5	40	30	vs	purple	turquoise	turquoise	purple	right	left	0.7	0.30000000000000004	6	2	4.199999999999998	0.6000000000000001	1	0	0.30000000000000004	0.7	2	6	0.6000000000000001	4.199999999999998	valid	1.2163530199995876	53248	0	1	1	53248	1	53248	1	53248	1	0.7	53248	turquoise	purple	1	6	ml	2.7.3	bip	sub-12_ses-01_task-ml_proj-bip_2021-01-12-10-26-20.583454
130	12	1	3	131	volatile	5	40	31	vs	purple	turquoise	turquoise	purple	right	left	0.7	0.30000000000000004	2	10	1.4	3.0000000000000004	1	0	0.30000000000000004	0.7	10	2	3.0000000000000004	1.4	valid	0.9830808579990844	51200	0	0	2	51200	1	53248	0	51200	1	0.7	53248	turquoise	purple	0	0	ml	2.7.3	bip	sub-12_ses-01_task-ml_proj-bip_2021-01-12-10-26-20.583454
131	12	1	3	132	volatile	5	40	32	vs	purple	turquoise	turquoise	purple	right	left	0.7	0.30000000000000004	6	2	4.199999999999998	0.6000000000000001	0	1	0.30000000000000004	0.7	2	6	0.6000000000000001	4.199999999999998	invalid	0.8164713810001558	53248	0	1	1	53248	1	53248	1	53248	1	0.7	53248	turquoise	purple	1	0	ml	2.7.3	bip	sub-12_ses-01_task-ml_proj-bip_2021-01-12-10-26-20.583454
132	12	1	3	133	volatile	5	40	33	vs	purple	turquoise	turquoise	purple	right	left	0.7	0.30000000000000004	6	2	4.199999999999998	0.6000000000000001	1	0	0.30000000000000004	0.7	2	6	0.6000000000000001	4.199999999999998	valid	1.282998348000547	53248	0	1	1	53248	1	53248	1	53248	1	0.7	53248	turquoise	purple	1	6	ml	2.7.3	bip	sub-12_ses-01_task-ml_proj-bip_2021-01-12-10-26-20.583454
133	12	1	3	134	volatile	5	40	34	vs	turquoise	purple	turquoise	purple	left	right	0.7	0.30000000000000004	2	4	1.4	1.2000000000000002	1	0	0.7	0.30000000000000004	2	4	1.4	1.2000000000000002	valid	0.983075984999232	51200	0	0	1	51200	1	51200	1	53248	0	0.7	51200	turquoise	purple	0	2	ml	2.7.3	bip	sub-12_ses-01_task-ml_proj-bip_2021-01-12-10-26-20.583454
134	12	1	3	135	volatile	5	40	35	vs	purple	turquoise	turquoise	purple	right	left	0.7	0.30000000000000004	4	6	2.8	1.8000000000000005	0	1	0.30000000000000004	0.7	6	4	1.8000000000000005	2.8	invalid	0.8497897150009521	53248	0	1	1	53248	1	53248	1	51200	0	0.7	53248	turquoise	purple	0	0	ml	2.7.3	bip	sub-12_ses-01_task-ml_proj-bip_2021-01-12-10-26-20.583454
135	12	1	3	136	volatile	5	40	36	vs	purple	turquoise	turquoise	purple	right	left	0.7	0.30000000000000004	6	6	4.199999999999998	1.8000000000000005	1	0	0.30000000000000004	0.7	6	6	1.8000000000000005	4.199999999999998	valid	0.7498253860012483	53248	0	1	1	53248	1	53248	1	53248	1	0.7	53248	turquoise	purple	0	6	ml	2.7.3	bip	sub-12_ses-01_task-ml_proj-bip_2021-01-12-10-26-20.583454
136	12	1	3	137	volatile	5	40	37	vs	turquoise	purple	turquoise	purple	left	right	0.7	0.30000000000000004	4	2	2.8	0.6000000000000001	0	1	0.7	0.30000000000000004	4	2	2.8	0.6000000000000001	invalid	0.6998231489997124	51200	0	0	1	51200	1	51200	1	51200	1	0.7	51200	turquoise	purple	1	0	ml	2.7.3	bip	sub-12_ses-01_task-ml_proj-bip_2021-01-12-10-26-20.583454
137	12	1	3	138	volatile	5	40	38	vs	purple	turquoise	turquoise	purple	right	left	0.7	0.30000000000000004	2	2	1.4	0.6000000000000001	0	1	0.30000000000000004	0.7	2	2	0.6000000000000001	1.4	invalid	0.8997770310015767	53248	0	1	1	53248	1	53248	1	53248	1	0.7	53248	turquoise	purple	0	0	ml	2.7.3	bip	sub-12_ses-01_task-ml_proj-bip_2021-01-12-10-26-20.583454
138	12	1	3	139	volatile	5	40	39	vs	turquoise	purple	turquoise	purple	left	right	0.7	0.30000000000000004	6	6	4.199999999999998	1.8000000000000005	1	0	0.7	0.30000000000000004	6	6	4.199999999999998	1.8000000000000005	valid	0.5332107250014815	51200	0	0	1	51200	1	51200	1	53248	0	0.7	51200	turquoise	purple	1	6	ml	2.7.3	bip	sub-12_ses-01_task-ml_proj-bip_2021-01-12-10-26-20.583454
139	12	1	3	140	volatile	5	40	40	vs	purple	turquoise	turquoise	purple	right	left	0.7	0.30000000000000004	4	2	2.8	0.6000000000000001	1	0	0.30000000000000004	0.7	2	4	0.6000000000000001	2.8	valid	0.6831723080013035	53248	0	1	1	53248	1	53248	1	53248	1	0.7	53248	turquoise	purple	1	4	ml	2.7.3	bip	sub-12_ses-01_task-ml_proj-bip_2021-01-12-10-26-20.583454
140	12	1	3	141	volatile	6	20	1	vs	purple	turquoise	turquoise	purple	right	left	0.30000000000000004	0.7	6	6	1.8000000000000005	4.199999999999998	0	1	0.7	0.30000000000000004	6	6	4.199999999999998	1.8000000000000005	valid	0.6998324449996289	53248	0	1	1	51200	0	51200	0	53248	1	0.7	51200	purple	turquoise	1	0	ml	2.7.3	bip	sub-12_ses-01_task-ml_proj-bip_2021-01-12-10-26-20.583454
141	12	1	3	142	volatile	6	20	2	vs	turquoise	purple	turquoise	purple	left	right	0.30000000000000004	0.7	2	6	0.6000000000000001	4.199999999999998	1	0	0.30000000000000004	0.7	2	6	0.6000000000000001	4.199999999999998	invalid	1.2496741009999823	53248	0	1	2	53248	1	53248	1	53248	1	0.7	53248	purple	turquoise	1	0	ml	2.7.3	bip	sub-12_ses-01_task-ml_proj-bip_2021-01-12-10-26-20.583454
142	12	1	3	143	volatile	6	20	3	vs	turquoise	purple	turquoise	purple	left	right	0.30000000000000004	0.7	6	2	1.8000000000000005	1.4	0	1	0.30000000000000004	0.7	6	2	1.8000000000000005	1.4	valid	0.5332012900016707	51200	0	0	1	51200	1	53248	0	51200	1	0.7	53248	purple	turquoise	0	0	ml	2.7.3	bip	sub-12_ses-01_task-ml_proj-bip_2021-01-12-10-26-20.583454
143	12	1	3	144	volatile	6	20	4	vs	purple	turquoise	turquoise	purple	right	left	0.30000000000000004	0.7	6	4	1.8000000000000005	2.8	1	0	0.7	0.30000000000000004	4	6	2.8	1.8000000000000005	invalid	0.7331597749998764	51200	0	0	2	51200	1	51200	1	53248	0	0.7	51200	purple	turquoise	0	0	ml	2.7.3	bip	sub-12_ses-01_task-ml_proj-bip_2021-01-12-10-26-20.583454
144	12	1	3	145	volatile	6	20	5	vs	purple	turquoise	turquoise	purple	right	left	0.30000000000000004	0.7	2	2	0.6000000000000001	1.4	1	0	0.7	0.30000000000000004	2	2	1.4	0.6000000000000001	invalid	0.7164981219993933	53248	0	1	1	51200	0	51200	0	53248	1	0.7	51200	purple	turquoise	1	2	ml	2.7.3	bip	sub-12_ses-01_task-ml_proj-bip_2021-01-12-10-26-20.583454
145	12	1	3	146	volatile	6	20	6	vs	purple	turquoise	turquoise	purple	right	left	0.30000000000000004	0.7	2	2	0.6000000000000001	1.4	0	1	0.7	0.30000000000000004	2	2	1.4	0.6000000000000001	valid	0.7331641620003211	53248	0	1	1	51200	0	51200	0	53248	1	0.7	51200	purple	turquoise	1	0	ml	2.7.3	bip	sub-12_ses-01_task-ml_proj-bip_2021-01-12-10-26-20.583454
146	12	1	3	147	volatile	6	20	7	vs	purple	turquoise	turquoise	purple	right	left	0.30000000000000004	0.7	4	6	1.2000000000000002	4.199999999999998	1	0	0.7	0.30000000000000004	6	4	4.199999999999998	1.2000000000000002	invalid	0.7498244590005925	53248	0	1	1	51200	0	51200	0	51200	0	0.7	51200	purple	turquoise	1	4	ml	2.7.3	bip	sub-12_ses-01_task-ml_proj-bip_2021-01-12-10-26-20.583454
147	12	1	3	148	volatile	6	20	8	vs	purple	turquoise	turquoise	purple	right	left	0.30000000000000004	0.7	4	2	1.2000000000000002	1.4	0	1	0.7	0.30000000000000004	2	4	1.4	1.2000000000000002	valid	0.966416889001266	53248	0	1	1	51200	0	51200	0	53248	1	0.7	51200	purple	turquoise	0	0	ml	2.7.3	bip	sub-12_ses-01_task-ml_proj-bip_2021-01-12-10-26-20.583454
148	12	1	3	149	volatile	6	20	9	vs	turquoise	purple	turquoise	purple	left	right	0.30000000000000004	0.7	2	10	0.6000000000000001	7.0	1	0	0.30000000000000004	0.7	2	10	0.6000000000000001	7.0	invalid	1.1330448520002392	53248	0	1	2	53248	1	53248	1	53248	1	0.7	53248	purple	turquoise	1	0	ml	2.7.3	bip	sub-12_ses-01_task-ml_proj-bip_2021-01-12-10-26-20.583454
149	12	1	3	150	volatile	6	20	10	vs	turquoise	purple	turquoise	purple	left	right	0.30000000000000004	0.7	6	6	1.8000000000000005	4.199999999999998	0	1	0.30000000000000004	0.7	6	6	1.8000000000000005	4.199999999999998	valid	0.9497505949984771	51200	0	0	1	53248	0	53248	0	53248	0	0.7	53248	purple	turquoise	0	0	ml	2.7.3	bip	sub-12_ses-01_task-ml_proj-bip_2021-01-12-10-26-20.583454
150	12	1	4	151	volatile	6	20	11	vs	turquoise	purple	turquoise	purple	left	right	0.30000000000000004	0.7	4	2	1.2000000000000002	1.4	0	1	0.30000000000000004	0.7	4	2	1.2000000000000002	1.4	valid	0.9830786649999936	51200	0	0	1	53248	0	53248	0	51200	1	0.7	53248	purple	turquoise	0	0	ml	2.7.3	bip	sub-12_ses-01_task-ml_proj-bip_2021-01-12-10-26-20.583454
151	12	1	4	152	volatile	6	20	12	vs	turquoise	purple	turquoise	purple	left	right	0.30000000000000004	0.7	6	4	1.8000000000000005	2.8	0	1	0.30000000000000004	0.7	6	4	1.8000000000000005	2.8	valid	1.1163816780008349	53248	0	1	2	53248	1	53248	1	51200	0	0.7	53248	purple	turquoise	0	4	ml	2.7.3	bip	sub-12_ses-01_task-ml_proj-bip_2021-01-12-10-26-20.583454
152	12	1	4	153	volatile	6	20	13	vs	turquoise	purple	turquoise	purple	left	right	0.30000000000000004	0.7	10	2	3.0000000000000004	1.4	0	1	0.30000000000000004	0.7	10	2	3.0000000000000004	1.4	valid	1.2330126110009587	53248	0	1	2	51200	0	53248	1	51200	0	0.7	53248	purple	turquoise	0	2	ml	2.7.3	bip	sub-12_ses-01_task-ml_proj-bip_2021-01-12-10-26-20.583454
153	12	1	4	154	volatile	6	20	14	vs	turquoise	purple	turquoise	purple	left	right	0.30000000000000004	0.7	10	2	3.0000000000000004	1.4	0	1	0.30000000000000004	0.7	10	2	3.0000000000000004	1.4	valid	1.0830480229997193	51200	0	0	1	51200	1	53248	0	51200	1	0.7	53248	purple	turquoise	0	0	ml	2.7.3	bip	sub-12_ses-01_task-ml_proj-bip_2021-01-12-10-26-20.583454
154	12	1	4	155	volatile	6	20	15	vs	purple	turquoise	turquoise	purple	right	left	0.30000000000000004	0.7	6	4	1.8000000000000005	2.8	0	1	0.7	0.30000000000000004	4	6	2.8	1.8000000000000005	valid	0.6665075910004816	51200	0	0	2	51200	1	51200	1	53248	0	0.7	51200	purple	turquoise	0	4	ml	2.7.3	bip	sub-12_ses-01_task-ml_proj-bip_2021-01-12-10-26-20.583454
155	12	1	4	156	volatile	6	20	16	vs	purple	turquoise	turquoise	purple	right	left	0.30000000000000004	0.7	2	6	0.6000000000000001	4.199999999999998	0	1	0.7	0.30000000000000004	6	2	4.199999999999998	0.6000000000000001	valid	0.6998253680012567	51200	0	0	2	51200	1	51200	1	51200	1	0.7	51200	purple	turquoise	1	6	ml	2.7.3	bip	sub-12_ses-01_task-ml_proj-bip_2021-01-12-10-26-20.583454
156	12	1	4	157	volatile	6	20	17	vs	purple	turquoise	turquoise	purple	right	left	0.30000000000000004	0.7	10	2	3.0000000000000004	1.4	0	1	0.7	0.30000000000000004	2	10	1.4	3.0000000000000004	valid	1.649554394000006	53248	0	1	1	53248	1	51200	0	53248	1	0.7	51200	purple	turquoise	0	0	ml	2.7.3	bip	sub-12_ses-01_task-ml_proj-bip_2021-01-12-10-26-20.583454
157	12	1	4	158	volatile	6	20	18	vs	purple	turquoise	turquoise	purple	right	left	0.30000000000000004	0.7	4	2	1.2000000000000002	1.4	0	1	0.7	0.30000000000000004	2	4	1.4	1.2000000000000002	valid	0.9497455359996819	51200	0	0	2	51200	1	51200	1	53248	0	0.7	51200	purple	turquoise	0	2	ml	2.7.3	bip	sub-12_ses-01_task-ml_proj-bip_2021-01-12-10-26-20.583454
158	12	1	4	159	volatile	6	20	19	vs	turquoise	purple	turquoise	purple	left	right	0.30000000000000004	0.7	4	2	1.2000000000000002	1.4	0	1	0.30000000000000004	0.7	4	2	1.2000000000000002	1.4	valid	0.6665087479996146	53248	0	1	2	53248	1	53248	1	51200	0	0.7	53248	purple	turquoise	0	2	ml	2.7.3	bip	sub-12_ses-01_task-ml_proj-bip_2021-01-12-10-26-20.583454
159	12	1	4	160	volatile	6	20	20	vs	turquoise	purple	turquoise	purple	left	right	0.30000000000000004	0.7	2	6	0.6000000000000001	4.199999999999998	1	0	0.30000000000000004	0.7	2	6	0.6000000000000001	4.199999999999998	invalid	0.7331578140001511	53248	0	1	2	53248	1	53248	1	53248	1	0.7	53248	purple	turquoise	1	0	ml	2.7.3	bip	sub-12_ses-01_task-ml_proj-bip_2021-01-12-10-26-20.583454
160	12	1	4	161	volatile	7	40	1	vs	purple	turquoise	turquoise	purple	right	left	0.7	0.30000000000000004	2	4	1.4	1.2000000000000002	1	0	0.30000000000000004	0.7	4	2	1.2000000000000002	1.4	valid	0.6998195010000927	51200	0	0	2	53248	0	53248	0	51200	1	0.7	53248	turquoise	purple	0	0	ml	2.7.3	bip	sub-12_ses-01_task-ml_proj-bip_2021-01-12-10-26-20.583454
161	12	1	4	162	volatile	7	40	2	vs	turquoise	purple	turquoise	purple	left	right	0.7	0.30000000000000004	10	2	7.0	0.6000000000000001	1	0	0.7	0.30000000000000004	10	2	7.0	0.6000000000000001	valid	0.8164499100003013	51200	0	0	1	51200	1	51200	1	51200	1	0.7	51200	turquoise	purple	1	10	ml	2.7.3	bip	sub-12_ses-01_task-ml_proj-bip_2021-01-12-10-26-20.583454
162	12	1	4	163	volatile	7	40	3	vs	turquoise	purple	turquoise	purple	left	right	0.7	0.30000000000000004	2	2	1.4	0.6000000000000001	0	1	0.7	0.30000000000000004	2	2	1.4	0.6000000000000001	invalid	1.133030539000174	51200	0	0	1	51200	1	51200	1	53248	0	0.7	51200	turquoise	purple	1	0	ml	2.7.3	bip	sub-12_ses-01_task-ml_proj-bip_2021-01-12-10-26-20.583454
163	12	1	4	164	volatile	7	40	4	vs	turquoise	purple	turquoise	purple	left	right	0.7	0.30000000000000004	6	6	4.199999999999998	1.8000000000000005	1	0	0.7	0.30000000000000004	6	6	4.199999999999998	1.8000000000000005	valid	0.783133036999061	51200	0	0	1	51200	1	51200	1	53248	0	0.7	51200	turquoise	purple	1	6	ml	2.7.3	bip	sub-12_ses-01_task-ml_proj-bip_2021-01-12-10-26-20.583454
164	12	1	4	165	volatile	7	40	5	vs	turquoise	purple	turquoise	purple	left	right	0.7	0.30000000000000004	2	6	1.4	1.8000000000000005	1	0	0.7	0.30000000000000004	2	6	1.4	1.8000000000000005	valid	1.1663672370013956	53248	0	1	2	53248	1	51200	0	53248	1	0.7	51200	turquoise	purple	0	0	ml	2.7.3	bip	sub-12_ses-01_task-ml_proj-bip_2021-01-12-10-26-20.583454
165	12	1	4	166	volatile	7	40	6	vs	purple	turquoise	turquoise	purple	right	left	0.7	0.30000000000000004	4	2	2.8	0.6000000000000001	0	1	0.30000000000000004	0.7	2	4	0.6000000000000001	2.8	invalid	0.8497916879987315	53248	0	1	1	53248	1	53248	1	53248	1	0.7	53248	turquoise	purple	1	0	ml	2.7.3	bip	sub-12_ses-01_task-ml_proj-bip_2021-01-12-10-26-20.583454
166	12	1	4	167	volatile	7	40	7	vs	purple	turquoise	turquoise	purple	right	left	0.7	0.30000000000000004	4	6	2.8	1.8000000000000005	1	0	0.30000000000000004	0.7	6	4	1.8000000000000005	2.8	valid	1.2496654450005735	51200	0	0	2	53248	0	53248	0	51200	1	0.7	53248	turquoise	purple	0	0	ml	2.7.3	bip	sub-12_ses-01_task-ml_proj-bip_2021-01-12-10-26-20.583454
167	12	1	4	168	volatile	7	40	8	vs	turquoise	purple	turquoise	purple	left	right	0.7	0.30000000000000004	2	6	1.4	1.8000000000000005	0	1	0.7	0.30000000000000004	2	6	1.4	1.8000000000000005	invalid	0.8331299029996444	53248	0	1	2	53248	1	51200	0	53248	1	0.7	51200	turquoise	purple	0	6	ml	2.7.3	bip	sub-12_ses-01_task-ml_proj-bip_2021-01-12-10-26-20.583454
168	12	1	4	169	volatile	7	40	9	vs	purple	turquoise	turquoise	purple	right	left	0.7	0.30000000000000004	6	4	4.199999999999998	1.2000000000000002	1	0	0.30000000000000004	0.7	4	6	1.2000000000000002	4.199999999999998	valid	0.7498197250006342	51200	0	0	2	53248	0	53248	0	53248	0	0.7	53248	turquoise	purple	1	0	ml	2.7.3	bip	sub-12_ses-01_task-ml_proj-bip_2021-01-12-10-26-20.583454
169	12	1	4	170	volatile	7	40	10	vs	purple	turquoise	turquoise	purple	right	left	0.7	0.30000000000000004	4	6	2.8	1.8000000000000005	1	0	0.30000000000000004	0.7	6	4	1.8000000000000005	2.8	valid	0.9997379840006032	51200	0	0	2	53248	0	53248	0	51200	1	0.7	53248	turquoise	purple	0	0	ml	2.7.3	bip	sub-12_ses-01_task-ml_proj-bip_2021-01-12-10-26-20.583454
170	12	1	4	171	volatile	7	40	11	vs	purple	turquoise	turquoise	purple	right	left	0.7	0.30000000000000004	2	2	1.4	0.6000000000000001	1	0	0.30000000000000004	0.7	2	2	0.6000000000000001	1.4	valid	0.6165266620009788	53248	0	1	1	53248	1	53248	1	53248	1	0.7	53248	turquoise	purple	0	2	ml	2.7.3	bip	sub-12_ses-01_task-ml_proj-bip_2021-01-12-10-26-20.583454
171	12	1	4	172	volatile	7	40	12	vs	purple	turquoise	turquoise	purple	right	left	0.7	0.30000000000000004	4	6	2.8	1.8000000000000005	1	0	0.30000000000000004	0.7	6	4	1.8000000000000005	2.8	valid	0.6331882000013138	53248	0	1	1	53248	1	53248	1	51200	0	0.7	53248	turquoise	purple	0	4	ml	2.7.3	bip	sub-12_ses-01_task-ml_proj-bip_2021-01-12-10-26-20.583454
172	12	1	4	173	volatile	7	40	13	vs	purple	turquoise	turquoise	purple	right	left	0.7	0.30000000000000004	10	2	7.0	0.6000000000000001	0	1	0.30000000000000004	0.7	2	10	0.6000000000000001	7.0	invalid	0.7998017640002217	53248	0	1	1	53248	1	53248	1	53248	1	0.7	53248	turquoise	purple	1	0	ml	2.7.3	bip	sub-12_ses-01_task-ml_proj-bip_2021-01-12-10-26-20.583454
173	12	1	4	174	volatile	7	40	14	vs	turquoise	purple	turquoise	purple	left	right	0.7	0.30000000000000004	10	2	7.0	0.6000000000000001	1	0	0.7	0.30000000000000004	10	2	7.0	0.6000000000000001	valid	0.7997954630009191	51200	0	0	1	51200	1	51200	1	51200	1	0.7	51200	turquoise	purple	1	10	ml	2.7.3	bip	sub-12_ses-01_task-ml_proj-bip_2021-01-12-10-26-20.583454
174	12	1	4	175	volatile	7	40	15	vs	purple	turquoise	turquoise	purple	right	left	0.7	0.30000000000000004	2	10	1.4	3.0000000000000004	1	0	0.30000000000000004	0.7	10	2	3.0000000000000004	1.4	valid	1.0663973480004645	53248	0	1	1	51200	0	53248	1	51200	0	0.7	53248	turquoise	purple	0	2	ml	2.7.3	bip	sub-12_ses-01_task-ml_proj-bip_2021-01-12-10-26-20.583454
175	12	1	4	176	volatile	7	40	16	vs	turquoise	purple	turquoise	purple	left	right	0.7	0.30000000000000004	4	2	2.8	0.6000000000000001	0	1	0.7	0.30000000000000004	4	2	2.8	0.6000000000000001	invalid	0.6664987629992538	51200	0	0	1	51200	1	51200	1	51200	1	0.7	51200	turquoise	purple	1	0	ml	2.7.3	bip	sub-12_ses-01_task-ml_proj-bip_2021-01-12-10-26-20.583454
176	12	1	4	177	volatile	7	40	17	vs	turquoise	purple	turquoise	purple	left	right	0.7	0.30000000000000004	2	2	1.4	0.6000000000000001	1	0	0.7	0.30000000000000004	2	2	1.4	0.6000000000000001	valid	0.8331178009993891	51200	0	0	1	51200	1	51200	1	53248	0	0.7	51200	turquoise	purple	1	2	ml	2.7.3	bip	sub-12_ses-01_task-ml_proj-bip_2021-01-12-10-26-20.583454
177	12	1	4	178	volatile	7	40	18	vs	turquoise	purple	turquoise	purple	left	right	0.7	0.30000000000000004	6	4	4.199999999999998	1.2000000000000002	1	0	0.7	0.30000000000000004	6	4	4.199999999999998	1.2000000000000002	valid	1.0663827280004623	51200	0	0	1	51200	1	51200	1	51200	1	0.7	51200	turquoise	purple	1	6	ml	2.7.3	bip	sub-12_ses-01_task-ml_proj-bip_2021-01-12-10-26-20.583454
178	12	1	4	179	volatile	7	40	19	vs	turquoise	purple	turquoise	purple	left	right	0.7	0.30000000000000004	2	6	1.4	1.8000000000000005	1	0	0.7	0.30000000000000004	2	6	1.4	1.8000000000000005	valid	1.1163847990010254	53248	0	1	2	53248	1	51200	0	53248	1	0.7	51200	turquoise	purple	0	0	ml	2.7.3	bip	sub-12_ses-01_task-ml_proj-bip_2021-01-12-10-26-20.583454
179	12	1	4	180	volatile	7	40	20	vs	purple	turquoise	turquoise	purple	right	left	0.7	0.30000000000000004	6	4	4.199999999999998	1.2000000000000002	1	0	0.30000000000000004	0.7	4	6	1.2000000000000002	4.199999999999998	valid	0.966422473999046	53248	0	1	1	53248	1	53248	1	53248	1	0.7	53248	turquoise	purple	1	6	ml	2.7.3	bip	sub-12_ses-01_task-ml_proj-bip_2021-01-12-10-26-20.583454
180	12	1	4	181	volatile	7	40	21	vs	turquoise	purple	turquoise	purple	left	right	0.7	0.30000000000000004	2	10	1.4	3.0000000000000004	1	0	0.7	0.30000000000000004	2	10	1.4	3.0000000000000004	valid	0.9164298659998168	51200	0	0	1	53248	0	51200	1	53248	0	0.7	51200	turquoise	purple	0	2	ml	2.7.3	bip	sub-12_ses-01_task-ml_proj-bip_2021-01-12-10-26-20.583454
181	12	1	4	182	volatile	7	40	22	vs	turquoise	purple	turquoise	purple	left	right	0.7	0.30000000000000004	6	2	4.199999999999998	0.6000000000000001	1	0	0.7	0.30000000000000004	6	2	4.199999999999998	0.6000000000000001	valid	1.5495757480002794	51200	0	0	1	51200	1	51200	1	51200	1	0.7	51200	turquoise	purple	1	6	ml	2.7.3	bip	sub-12_ses-01_task-ml_proj-bip_2021-01-12-10-26-20.583454
182	12	1	4	183	volatile	7	40	23	vs	purple	turquoise	turquoise	purple	right	left	0.7	0.30000000000000004	6	2	4.199999999999998	0.6000000000000001	1	0	0.30000000000000004	0.7	2	6	0.6000000000000001	4.199999999999998	valid	0.7664804949999962	53248	0	1	1	53248	1	53248	1	53248	1	0.7	53248	turquoise	purple	1	6	ml	2.7.3	bip	sub-12_ses-01_task-ml_proj-bip_2021-01-12-10-26-20.583454
183	12	1	4	184	volatile	7	40	24	vs	purple	turquoise	turquoise	purple	right	left	0.7	0.30000000000000004	2	6	1.4	1.8000000000000005	1	0	0.30000000000000004	0.7	6	2	1.8000000000000005	1.4	valid	0.8497865850004018	51200	0	0	2	51200	1	53248	0	51200	1	0.7	53248	turquoise	purple	0	0	ml	2.7.3	bip	sub-12_ses-01_task-ml_proj-bip_2021-01-12-10-26-20.583454
184	12	1	4	185	volatile	7	40	25	vs	turquoise	purple	turquoise	purple	left	right	0.7	0.30000000000000004	6	2	4.199999999999998	0.6000000000000001	1	0	0.7	0.30000000000000004	6	2	4.199999999999998	0.6000000000000001	valid	0.6665010670003539	51200	0	0	1	51200	1	51200	1	51200	1	0.7	51200	turquoise	purple	1	6	ml	2.7.3	bip	sub-12_ses-01_task-ml_proj-bip_2021-01-12-10-26-20.583454
185	12	1	4	186	volatile	7	40	26	vs	turquoise	purple	turquoise	purple	left	right	0.7	0.30000000000000004	2	10	1.4	3.0000000000000004	1	0	0.7	0.30000000000000004	2	10	1.4	3.0000000000000004	valid	1.1996901470010926	53248	0	1	2	53248	1	51200	0	53248	1	0.7	51200	turquoise	purple	0	0	ml	2.7.3	bip	sub-12_ses-01_task-ml_proj-bip_2021-01-12-10-26-20.583454
186	12	1	4	187	volatile	7	40	27	vs	purple	turquoise	turquoise	purple	right	left	0.7	0.30000000000000004	2	6	1.4	1.8000000000000005	0	1	0.30000000000000004	0.7	6	2	1.8000000000000005	1.4	invalid	0.8664503640011391	53248	0	1	1	51200	0	53248	1	51200	0	0.7	53248	turquoise	purple	0	0	ml	2.7.3	bip	sub-12_ses-01_task-ml_proj-bip_2021-01-12-10-26-20.583454
187	12	1	4	188	volatile	7	40	28	vs	turquoise	purple	turquoise	purple	left	right	0.7	0.30000000000000004	2	4	1.4	1.2000000000000002	1	0	0.7	0.30000000000000004	2	4	1.4	1.2000000000000002	valid	1.2829919989999323	51200	0	0	1	51200	1	51200	1	53248	0	0.7	51200	turquoise	purple	0	2	ml	2.7.3	bip	sub-12_ses-01_task-ml_proj-bip_2021-01-12-10-26-20.583454
188	12	1	4	189	volatile	7	40	29	vs	turquoise	purple	turquoise	purple	left	right	0.7	0.30000000000000004	6	6	4.199999999999998	1.8000000000000005	1	0	0.7	0.30000000000000004	6	6	4.199999999999998	1.8000000000000005	valid	0.5165430349989037	51200	0	0	1	51200	1	51200	1	53248	0	0.7	51200	turquoise	purple	1	6	ml	2.7.3	bip	sub-12_ses-01_task-ml_proj-bip_2021-01-12-10-26-20.583454
189	12	1	4	190	volatile	7	40	30	vs	purple	turquoise	turquoise	purple	right	left	0.7	0.30000000000000004	2	2	1.4	0.6000000000000001	0	1	0.30000000000000004	0.7	2	2	0.6000000000000001	1.4	invalid	0.8831095810000988	53248	0	1	1	53248	1	53248	1	53248	1	0.7	53248	turquoise	purple	0	0	ml	2.7.3	bip	sub-12_ses-01_task-ml_proj-bip_2021-01-12-10-26-20.583454
190	12	1	4	191	volatile	7	40	31	vs	turquoise	purple	turquoise	purple	left	right	0.7	0.30000000000000004	4	2	2.8	0.6000000000000001	0	1	0.7	0.30000000000000004	4	2	2.8	0.6000000000000001	invalid	0.7831333840003936	51200	0	0	1	51200	1	51200	1	51200	1	0.7	51200	turquoise	purple	1	0	ml	2.7.3	bip	sub-12_ses-01_task-ml_proj-bip_2021-01-12-10-26-20.583454
191	12	1	4	192	volatile	7	40	32	vs	purple	turquoise	turquoise	purple	right	left	0.7	0.30000000000000004	6	4	4.199999999999998	1.2000000000000002	0	1	0.30000000000000004	0.7	4	6	1.2000000000000002	4.199999999999998	invalid	1.3496333719995164	51200	0	0	2	53248	0	53248	0	53248	0	0.7	53248	turquoise	purple	1	4	ml	2.7.3	bip	sub-12_ses-01_task-ml_proj-bip_2021-01-12-10-26-20.583454
192	12	1	4	193	volatile	7	40	33	vs	turquoise	purple	turquoise	purple	left	right	0.7	0.30000000000000004	2	4	1.4	1.2000000000000002	0	1	0.7	0.30000000000000004	2	4	1.4	1.2000000000000002	invalid	0.5831941500000539	53248	0	1	2	51200	0	51200	0	53248	1	0.7	51200	turquoise	purple	0	4	ml	2.7.3	bip	sub-12_ses-01_task-ml_proj-bip_2021-01-12-10-26-20.583454
193	12	1	4	194	volatile	7	40	34	vs	purple	turquoise	turquoise	purple	right	left	0.7	0.30000000000000004	6	6	4.199999999999998	1.8000000000000005	1	0	0.30000000000000004	0.7	6	6	1.8000000000000005	4.199999999999998	valid	0.5831879420002224	51200	0	0	2	53248	0	53248	0	53248	0	0.7	53248	turquoise	purple	0	0	ml	2.7.3	bip	sub-12_ses-01_task-ml_proj-bip_2021-01-12-10-26-20.583454
194	12	1	4	195	volatile	7	40	35	vs	turquoise	purple	turquoise	purple	left	right	0.7	0.30000000000000004	10	2	7.0	0.6000000000000001	0	1	0.7	0.30000000000000004	10	2	7.0	0.6000000000000001	invalid	0.6498435459998291	53248	0	1	2	51200	0	51200	0	51200	0	0.7	51200	turquoise	purple	1	2	ml	2.7.3	bip	sub-12_ses-01_task-ml_proj-bip_2021-01-12-10-26-20.583454
195	12	1	4	196	volatile	7	40	36	vs	turquoise	purple	turquoise	purple	left	right	0.7	0.30000000000000004	2	4	1.4	1.2000000000000002	1	0	0.7	0.30000000000000004	2	4	1.4	1.2000000000000002	valid	0.8331262910014631	53248	0	1	2	51200	0	51200	0	53248	1	0.7	51200	turquoise	purple	0	0	ml	2.7.3	bip	sub-12_ses-01_task-ml_proj-bip_2021-01-12-10-26-20.583454
196	12	1	4	197	volatile	7	40	37	vs	purple	turquoise	turquoise	purple	right	left	0.7	0.30000000000000004	2	4	1.4	1.2000000000000002	0	1	0.30000000000000004	0.7	4	2	1.2000000000000002	1.4	invalid	0.7664710659992124	51200	0	0	2	53248	0	53248	0	51200	1	0.7	53248	turquoise	purple	0	4	ml	2.7.3	bip	sub-12_ses-01_task-ml_proj-bip_2021-01-12-10-26-20.583454
197	12	1	4	198	volatile	7	40	38	vs	purple	turquoise	turquoise	purple	right	left	0.7	0.30000000000000004	10	2	7.0	0.6000000000000001	1	0	0.30000000000000004	0.7	2	10	0.6000000000000001	7.0	valid	1.0497327690009115	53248	0	1	1	53248	1	53248	1	53248	1	0.7	53248	turquoise	purple	1	10	ml	2.7.3	bip	sub-12_ses-01_task-ml_proj-bip_2021-01-12-10-26-20.583454
198	12	1	4	199	volatile	7	40	39	vs	purple	turquoise	turquoise	purple	right	left	0.7	0.30000000000000004	6	4	4.199999999999998	1.2000000000000002	1	0	0.30000000000000004	0.7	4	6	1.2000000000000002	4.199999999999998	valid	0.9497609280006144	53248	0	1	1	53248	1	53248	1	53248	1	0.7	53248	turquoise	purple	1	6	ml	2.7.3	bip	sub-12_ses-01_task-ml_proj-bip_2021-01-12-10-26-20.583454
199	12	1	4	200	volatile	7	40	40	vs	purple	turquoise	turquoise	purple	right	left	0.7	0.30000000000000004	6	6	4.199999999999998	1.8000000000000005	1	0	0.30000000000000004	0.7	6	6	1.8000000000000005	4.199999999999998	valid	0.7164944710002601	53248	0	1	1	53248	1	53248	1	53248	1	0.7	53248	turquoise	purple	0	6	ml	2.7.3	bip	sub-12_ses-01_task-ml_proj-bip_2021-01-12-10-26-20.583454
200	12	1	5	201	stable	8	200	1	vs	purple	turquoise	turquoise	purple	right	left	0.30000000000000004	0.7	2	10	0.6000000000000001	7.0	1	0	0.7	0.30000000000000004	10	2	7.0	0.6000000000000001	invalid	0.9497536620001484	51200	0	0	2	51200	1	51200	1	51200	1	0.7	51200	purple	turquoise	1	0	ml	2.7.3	bip	sub-12_ses-01_task-ml_proj-bip_2021-01-12-10-26-20.583454
201	12	1	5	202	stable	8	200	2	vs	purple	turquoise	turquoise	purple	right	left	0.30000000000000004	0.7	4	6	1.2000000000000002	4.199999999999998	0	1	0.7	0.30000000000000004	6	4	4.199999999999998	1.2000000000000002	valid	1.3829642479995528	53248	0	1	1	51200	0	51200	0	51200	0	0.7	51200	purple	turquoise	1	0	ml	2.7.3	bip	sub-12_ses-01_task-ml_proj-bip_2021-01-12-10-26-20.583454
202	12	1	5	203	stable	8	200	3	vs	turquoise	purple	turquoise	purple	left	right	0.30000000000000004	0.7	2	4	0.6000000000000001	2.8	0	1	0.30000000000000004	0.7	2	4	0.6000000000000001	2.8	valid	0.6331870240010176	53248	0	1	2	53248	1	53248	1	53248	1	0.7	53248	purple	turquoise	1	4	ml	2.7.3	bip	sub-12_ses-01_task-ml_proj-bip_2021-01-12-10-26-20.583454
203	12	1	5	204	stable	8	200	4	vs	purple	turquoise	turquoise	purple	right	left	0.30000000000000004	0.7	2	4	0.6000000000000001	2.8	0	1	0.7	0.30000000000000004	4	2	2.8	0.6000000000000001	valid	0.5998648789991421	51200	0	0	2	51200	1	51200	1	51200	1	0.7	51200	purple	turquoise	1	4	ml	2.7.3	bip	sub-12_ses-01_task-ml_proj-bip_2021-01-12-10-26-20.583454
204	12	1	5	205	stable	8	200	5	vs	turquoise	purple	turquoise	purple	left	right	0.30000000000000004	0.7	4	6	1.2000000000000002	4.199999999999998	0	1	0.30000000000000004	0.7	4	6	1.2000000000000002	4.199999999999998	valid	0.5665336300007766	53248	0	1	2	53248	1	53248	1	53248	1	0.7	53248	purple	turquoise	1	6	ml	2.7.3	bip	sub-12_ses-01_task-ml_proj-bip_2021-01-12-10-26-20.583454
205	12	1	5	206	stable	8	200	6	vs	purple	turquoise	turquoise	purple	right	left	0.30000000000000004	0.7	6	2	1.8000000000000005	1.4	0	1	0.7	0.30000000000000004	2	6	1.4	1.8000000000000005	valid	0.9330893959995592	51200	0	0	2	53248	0	51200	1	53248	0	0.7	51200	purple	turquoise	0	2	ml	2.7.3	bip	sub-12_ses-01_task-ml_proj-bip_2021-01-12-10-26-20.583454
206	12	1	5	207	stable	8	200	7	vs	turquoise	purple	turquoise	purple	left	right	0.30000000000000004	0.7	4	2	1.2000000000000002	1.4	0	1	0.30000000000000004	0.7	4	2	1.2000000000000002	1.4	valid	1.2163480339986563	53248	0	1	2	53248	1	53248	1	51200	0	0.7	53248	purple	turquoise	0	2	ml	2.7.3	bip	sub-12_ses-01_task-ml_proj-bip_2021-01-12-10-26-20.583454
207	12	1	5	208	stable	8	200	8	vs	turquoise	purple	turquoise	purple	left	right	0.30000000000000004	0.7	6	4	1.8000000000000005	2.8	0	1	0.30000000000000004	0.7	6	4	1.8000000000000005	2.8	valid	1.0830563420004182	53248	0	1	2	53248	1	53248	1	51200	0	0.7	53248	purple	turquoise	0	4	ml	2.7.3	bip	sub-12_ses-01_task-ml_proj-bip_2021-01-12-10-26-20.583454
208	12	1	5	209	stable	8	200	9	vs	turquoise	purple	turquoise	purple	left	right	0.30000000000000004	0.7	2	10	0.6000000000000001	7.0	0	1	0.30000000000000004	0.7	2	10	0.6000000000000001	7.0	valid	0.5998632190003264	53248	0	1	2	53248	1	53248	1	53248	1	0.7	53248	purple	turquoise	1	10	ml	2.7.3	bip	sub-12_ses-01_task-ml_proj-bip_2021-01-12-10-26-20.583454
209	12	1	5	210	stable	8	200	10	vs	purple	turquoise	turquoise	purple	right	left	0.30000000000000004	0.7	2	4	0.6000000000000001	2.8	1	0	0.7	0.30000000000000004	4	2	2.8	0.6000000000000001	invalid	0.7664638139995077	51200	0	0	2	51200	1	51200	1	51200	1	0.7	51200	purple	turquoise	1	0	ml	2.7.3	bip	sub-12_ses-01_task-ml_proj-bip_2021-01-12-10-26-20.583454
210	12	1	5	211	stable	8	200	11	vs	turquoise	purple	turquoise	purple	left	right	0.30000000000000004	0.7	2	4	0.6000000000000001	2.8	0	1	0.30000000000000004	0.7	2	4	0.6000000000000001	2.8	valid	0.9164358400012134	53248	0	1	2	53248	1	53248	1	53248	1	0.7	53248	purple	turquoise	1	4	ml	2.7.3	bip	sub-12_ses-01_task-ml_proj-bip_2021-01-12-10-26-20.583454
211	12	1	5	212	stable	8	200	12	vs	purple	turquoise	turquoise	purple	right	left	0.30000000000000004	0.7	2	6	0.6000000000000001	4.199999999999998	0	1	0.7	0.30000000000000004	6	2	4.199999999999998	0.6000000000000001	valid	0.5831888530010474	51200	0	0	2	51200	1	51200	1	51200	1	0.7	51200	purple	turquoise	1	6	ml	2.7.3	bip	sub-12_ses-01_task-ml_proj-bip_2021-01-12-10-26-20.583454
212	12	1	5	213	stable	8	200	13	vs	turquoise	purple	turquoise	purple	left	right	0.30000000000000004	0.7	6	4	1.8000000000000005	2.8	1	0	0.30000000000000004	0.7	6	4	1.8000000000000005	2.8	invalid	0.6831721339985961	53248	0	1	2	53248	1	53248	1	51200	0	0.7	53248	purple	turquoise	0	0	ml	2.7.3	bip	sub-12_ses-01_task-ml_proj-bip_2021-01-12-10-26-20.583454
213	12	1	5	214	stable	8	200	14	vs	purple	turquoise	turquoise	purple	right	left	0.30000000000000004	0.7	4	6	1.2000000000000002	4.199999999999998	0	1	0.7	0.30000000000000004	6	4	4.199999999999998	1.2000000000000002	valid	0.7164919619990542	51200	0	0	2	51200	1	51200	1	51200	1	0.7	51200	purple	turquoise	1	6	ml	2.7.3	bip	sub-12_ses-01_task-ml_proj-bip_2021-01-12-10-26-20.583454
214	12	1	5	215	stable	8	200	15	vs	purple	turquoise	turquoise	purple	right	left	0.30000000000000004	0.7	2	6	0.6000000000000001	4.199999999999998	1	0	0.7	0.30000000000000004	6	2	4.199999999999998	0.6000000000000001	invalid	0.6498458230016695	51200	0	0	2	51200	1	51200	1	51200	1	0.7	51200	purple	turquoise	1	0	ml	2.7.3	bip	sub-12_ses-01_task-ml_proj-bip_2021-01-12-10-26-20.583454
215	12	1	5	216	stable	8	200	16	vs	turquoise	purple	turquoise	purple	left	right	0.30000000000000004	0.7	6	6	1.8000000000000005	4.199999999999998	1	0	0.30000000000000004	0.7	6	6	1.8000000000000005	4.199999999999998	invalid	0.7164947590008524	53248	0	1	2	53248	1	53248	1	53248	1	0.7	53248	purple	turquoise	0	0	ml	2.7.3	bip	sub-12_ses-01_task-ml_proj-bip_2021-01-12-10-26-20.583454
216	12	1	5	217	stable	8	200	17	vs	turquoise	purple	turquoise	purple	left	right	0.30000000000000004	0.7	10	2	3.0000000000000004	1.4	0	1	0.30000000000000004	0.7	10	2	3.0000000000000004	1.4	valid	0.6831578479996097	51200	0	0	1	51200	1	53248	0	51200	1	0.7	53248	purple	turquoise	0	0	ml	2.7.3	bip	sub-12_ses-01_task-ml_proj-bip_2021-01-12-10-26-20.583454
217	12	1	5	218	stable	8	200	18	vs	purple	turquoise	turquoise	purple	right	left	0.30000000000000004	0.7	6	4	1.8000000000000005	2.8	0	1	0.7	0.30000000000000004	4	6	2.8	1.8000000000000005	valid	0.7164907419992232	51200	0	0	2	51200	1	51200	1	53248	0	0.7	51200	purple	turquoise	0	4	ml	2.7.3	bip	sub-12_ses-01_task-ml_proj-bip_2021-01-12-10-26-20.583454
218	12	1	5	219	stable	8	200	19	vs	turquoise	purple	turquoise	purple	left	right	0.30000000000000004	0.7	10	2	3.0000000000000004	1.4	0	1	0.30000000000000004	0.7	10	2	3.0000000000000004	1.4	valid	1.916153538000799	53248	0	1	2	51200	0	53248	1	51200	0	0.7	53248	purple	turquoise	0	2	ml	2.7.3	bip	sub-12_ses-01_task-ml_proj-bip_2021-01-12-10-26-20.583454
219	12	1	5	220	stable	8	200	20	vs	purple	turquoise	turquoise	purple	right	left	0.30000000000000004	0.7	4	6	1.2000000000000002	4.199999999999998	0	1	0.7	0.30000000000000004	6	4	4.199999999999998	1.2000000000000002	valid	0.6998245900012989	51200	0	0	2	51200	1	51200	1	51200	1	0.7	51200	purple	turquoise	1	6	ml	2.7.3	bip	sub-12_ses-01_task-ml_proj-bip_2021-01-12-10-26-20.583454
220	12	1	5	221	stable	8	200	21	vs	purple	turquoise	turquoise	purple	right	left	0.30000000000000004	0.7	2	2	0.6000000000000001	1.4	1	0	0.7	0.30000000000000004	2	2	1.4	0.6000000000000001	invalid	0.8997731279996515	51200	0	0	2	51200	1	51200	1	53248	0	0.7	51200	purple	turquoise	1	0	ml	2.7.3	bip	sub-12_ses-01_task-ml_proj-bip_2021-01-12-10-26-20.583454
221	12	1	5	222	stable	8	200	22	vs	purple	turquoise	turquoise	purple	right	left	0.30000000000000004	0.7	6	2	1.8000000000000005	1.4	0	1	0.7	0.30000000000000004	2	6	1.4	1.8000000000000005	valid	0.6498399430001882	51200	0	0	2	53248	0	51200	1	53248	0	0.7	51200	purple	turquoise	0	2	ml	2.7.3	bip	sub-12_ses-01_task-ml_proj-bip_2021-01-12-10-26-20.583454
222	12	1	5	223	stable	8	200	23	vs	purple	turquoise	turquoise	purple	right	left	0.30000000000000004	0.7	2	10	0.6000000000000001	7.0	0	1	0.7	0.30000000000000004	10	2	7.0	0.6000000000000001	valid	0.6498371920006321	51200	0	0	2	51200	1	51200	1	51200	1	0.7	51200	purple	turquoise	1	10	ml	2.7.3	bip	sub-12_ses-01_task-ml_proj-bip_2021-01-12-10-26-20.583454
223	12	1	5	224	stable	8	200	24	vs	turquoise	purple	turquoise	purple	left	right	0.30000000000000004	0.7	4	6	1.2000000000000002	4.199999999999998	0	1	0.30000000000000004	0.7	4	6	1.2000000000000002	4.199999999999998	valid	0.6998340629997983	53248	0	1	2	53248	1	53248	1	53248	1	0.7	53248	purple	turquoise	1	6	ml	2.7.3	bip	sub-12_ses-01_task-ml_proj-bip_2021-01-12-10-26-20.583454
224	12	1	5	225	stable	8	200	25	vs	purple	turquoise	turquoise	purple	right	left	0.30000000000000004	0.7	6	2	1.8000000000000005	1.4	0	1	0.7	0.30000000000000004	2	6	1.4	1.8000000000000005	valid	1.0663819729998067	51200	0	0	2	53248	0	51200	1	53248	0	0.7	51200	purple	turquoise	0	2	ml	2.7.3	bip	sub-12_ses-01_task-ml_proj-bip_2021-01-12-10-26-20.583454
225	12	1	5	226	stable	8	200	26	vs	turquoise	purple	turquoise	purple	left	right	0.30000000000000004	0.7	4	6	1.2000000000000002	4.199999999999998	0	1	0.30000000000000004	0.7	4	6	1.2000000000000002	4.199999999999998	valid	1.033064078001189	53248	0	1	2	53248	1	53248	1	53248	1	0.7	53248	purple	turquoise	1	6	ml	2.7.3	bip	sub-12_ses-01_task-ml_proj-bip_2021-01-12-10-26-20.583454
226	12	1	5	227	stable	8	200	27	vs	purple	turquoise	turquoise	purple	right	left	0.30000000000000004	0.7	6	2	1.8000000000000005	1.4	0	1	0.7	0.30000000000000004	2	6	1.4	1.8000000000000005	valid	1.4162825510011317	51200	0	0	2	53248	0	51200	1	53248	0	0.7	51200	purple	turquoise	0	2	ml	2.7.3	bip	sub-12_ses-01_task-ml_proj-bip_2021-01-12-10-26-20.583454
227	12	1	5	228	stable	8	200	28	vs	purple	turquoise	turquoise	purple	right	left	0.30000000000000004	0.7	4	2	1.2000000000000002	1.4	0	1	0.7	0.30000000000000004	2	4	1.4	1.2000000000000002	valid	0.7164830130004702	51200	0	0	2	51200	1	51200	1	53248	0	0.7	51200	purple	turquoise	0	2	ml	2.7.3	bip	sub-12_ses-01_task-ml_proj-bip_2021-01-12-10-26-20.583454
228	12	1	5	229	stable	8	200	29	vs	purple	turquoise	turquoise	purple	right	left	0.30000000000000004	0.7	2	6	0.6000000000000001	4.199999999999998	1	0	0.7	0.30000000000000004	6	2	4.199999999999998	0.6000000000000001	invalid	0.8164567429994349	51200	0	0	2	51200	1	51200	1	51200	1	0.7	51200	purple	turquoise	1	0	ml	2.7.3	bip	sub-12_ses-01_task-ml_proj-bip_2021-01-12-10-26-20.583454
229	12	1	5	230	stable	8	200	30	vs	turquoise	purple	turquoise	purple	left	right	0.30000000000000004	0.7	6	4	1.8000000000000005	2.8	0	1	0.30000000000000004	0.7	6	4	1.8000000000000005	2.8	valid	0.7498193760002323	53248	0	1	2	53248	1	53248	1	51200	0	0.7	53248	purple	turquoise	0	4	ml	2.7.3	bip	sub-12_ses-01_task-ml_proj-bip_2021-01-12-10-26-20.583454
230	12	1	5	231	stable	8	200	31	vs	turquoise	purple	turquoise	purple	left	right	0.30000000000000004	0.7	4	6	1.2000000000000002	4.199999999999998	0	1	0.30000000000000004	0.7	4	6	1.2000000000000002	4.199999999999998	valid	0.5998631290003686	53248	0	1	2	53248	1	53248	1	53248	1	0.7	53248	purple	turquoise	1	6	ml	2.7.3	bip	sub-12_ses-01_task-ml_proj-bip_2021-01-12-10-26-20.583454
231	12	1	5	232	stable	8	200	32	vs	purple	turquoise	turquoise	purple	right	left	0.30000000000000004	0.7	2	2	0.6000000000000001	1.4	0	1	0.7	0.30000000000000004	2	2	1.4	0.6000000000000001	valid	0.9497511640001904	51200	0	0	2	51200	1	51200	1	53248	0	0.7	51200	purple	turquoise	1	2	ml	2.7.3	bip	sub-12_ses-01_task-ml_proj-bip_2021-01-12-10-26-20.583454
232	12	1	5	233	stable	8	200	33	vs	purple	turquoise	turquoise	purple	right	left	0.30000000000000004	0.7	10	2	3.0000000000000004	1.4	0	1	0.7	0.30000000000000004	2	10	1.4	3.0000000000000004	valid	0.8331310369994753	53248	0	1	1	53248	1	51200	0	53248	1	0.7	51200	purple	turquoise	0	0	ml	2.7.3	bip	sub-12_ses-01_task-ml_proj-bip_2021-01-12-10-26-20.583454
233	12	1	5	234	stable	8	200	34	vs	turquoise	purple	turquoise	purple	left	right	0.30000000000000004	0.7	6	6	1.8000000000000005	4.199999999999998	0	1	0.30000000000000004	0.7	6	6	1.8000000000000005	4.199999999999998	valid	1.9661355549997095	53248	0	1	2	53248	1	53248	1	53248	1	0.7	53248	purple	turquoise	0	6	ml	2.7.3	bip	sub-12_ses-01_task-ml_proj-bip_2021-01-12-10-26-20.583454
234	12	1	5	235	stable	8	200	35	vs	turquoise	purple	turquoise	purple	left	right	0.30000000000000004	0.7	2	2	0.6000000000000001	1.4	0	1	0.30000000000000004	0.7	2	2	0.6000000000000001	1.4	valid	0.966431241000464	53248	0	1	2	53248	1	53248	1	53248	1	0.7	53248	purple	turquoise	0	2	ml	2.7.3	bip	sub-12_ses-01_task-ml_proj-bip_2021-01-12-10-26-20.583454
235	12	1	5	236	stable	8	200	36	vs	purple	turquoise	turquoise	purple	right	left	0.30000000000000004	0.7	10	2	3.0000000000000004	1.4	1	0	0.7	0.30000000000000004	2	10	1.4	3.0000000000000004	invalid	1.0663984100010566	53248	0	1	1	53248	1	51200	0	53248	1	0.7	51200	purple	turquoise	0	10	ml	2.7.3	bip	sub-12_ses-01_task-ml_proj-bip_2021-01-12-10-26-20.583454
236	12	1	5	237	stable	8	200	37	vs	purple	turquoise	turquoise	purple	right	left	0.30000000000000004	0.7	6	2	1.8000000000000005	1.4	0	1	0.7	0.30000000000000004	2	6	1.4	1.8000000000000005	valid	0.749852260998523	53248	0	1	1	53248	1	51200	0	53248	1	0.7	51200	purple	turquoise	0	0	ml	2.7.3	bip	sub-12_ses-01_task-ml_proj-bip_2021-01-12-10-26-20.583454
237	12	1	5	238	stable	8	200	38	vs	turquoise	purple	turquoise	purple	left	right	0.30000000000000004	0.7	6	4	1.8000000000000005	2.8	1	0	0.30000000000000004	0.7	6	4	1.8000000000000005	2.8	invalid	0.8331291300000885	53248	0	1	2	53248	1	53248	1	51200	0	0.7	53248	purple	turquoise	0	0	ml	2.7.3	bip	sub-12_ses-01_task-ml_proj-bip_2021-01-12-10-26-20.583454
238	12	1	5	239	stable	8	200	39	vs	turquoise	purple	turquoise	purple	left	right	0.30000000000000004	0.7	10	2	3.0000000000000004	1.4	1	0	0.30000000000000004	0.7	10	2	3.0000000000000004	1.4	invalid	0.5665303229998244	51200	0	0	1	51200	1	53248	0	51200	1	0.7	53248	purple	turquoise	0	10	ml	2.7.3	bip	sub-12_ses-01_task-ml_proj-bip_2021-01-12-10-26-20.583454
239	12	1	5	240	stable	8	200	40	vs	turquoise	purple	turquoise	purple	left	right	0.30000000000000004	0.7	2	4	0.6000000000000001	2.8	0	1	0.30000000000000004	0.7	2	4	0.6000000000000001	2.8	valid	1.3329719680004928	51200	0	0	1	53248	0	53248	0	53248	0	0.7	53248	purple	turquoise	1	0	ml	2.7.3	bip	sub-12_ses-01_task-ml_proj-bip_2021-01-12-10-26-20.583454
240	12	1	5	241	stable	8	200	41	vs	turquoise	purple	turquoise	purple	left	right	0.30000000000000004	0.7	6	2	1.8000000000000005	1.4	1	0	0.30000000000000004	0.7	6	2	1.8000000000000005	1.4	invalid	0.6165133569993486	51200	0	0	1	51200	1	53248	0	51200	1	0.7	53248	purple	turquoise	0	6	ml	2.7.3	bip	sub-12_ses-01_task-ml_proj-bip_2021-01-12-10-26-20.583454
241	12	1	5	242	stable	8	200	42	vs	purple	turquoise	turquoise	purple	right	left	0.30000000000000004	0.7	6	6	1.8000000000000005	4.199999999999998	0	1	0.7	0.30000000000000004	6	6	4.199999999999998	1.8000000000000005	valid	0.7664857269992353	53248	0	1	1	51200	0	51200	0	53248	1	0.7	51200	purple	turquoise	1	0	ml	2.7.3	bip	sub-12_ses-01_task-ml_proj-bip_2021-01-12-10-26-20.583454
242	12	1	5	243	stable	8	200	43	vs	turquoise	purple	turquoise	purple	left	right	0.30000000000000004	0.7	2	2	0.6000000000000001	1.4	1	0	0.30000000000000004	0.7	2	2	0.6000000000000001	1.4	invalid	0.8497891799997888	53248	0	1	2	53248	1	53248	1	53248	1	0.7	53248	purple	turquoise	0	0	ml	2.7.3	bip	sub-12_ses-01_task-ml_proj-bip_2021-01-12-10-26-20.583454
243	12	1	5	244	stable	8	200	44	vs	purple	turquoise	turquoise	purple	right	left	0.30000000000000004	0.7	2	6	0.6000000000000001	4.199999999999998	1	0	0.7	0.30000000000000004	6	2	4.199999999999998	0.6000000000000001	invalid	0.5498674419995949	51200	0	0	2	51200	1	51200	1	51200	1	0.7	51200	purple	turquoise	1	0	ml	2.7.3	bip	sub-12_ses-01_task-ml_proj-bip_2021-01-12-10-26-20.583454
244	12	1	5	245	stable	8	200	45	vs	purple	turquoise	turquoise	purple	right	left	0.30000000000000004	0.7	4	2	1.2000000000000002	1.4	0	1	0.7	0.30000000000000004	2	4	1.4	1.2000000000000002	valid	0.6665104200001224	53248	0	1	1	51200	0	51200	0	53248	1	0.7	51200	purple	turquoise	0	0	ml	2.7.3	bip	sub-12_ses-01_task-ml_proj-bip_2021-01-12-10-26-20.583454
245	12	1	5	246	stable	8	200	46	vs	purple	turquoise	turquoise	purple	right	left	0.30000000000000004	0.7	2	6	0.6000000000000001	4.199999999999998	0	1	0.7	0.30000000000000004	6	2	4.199999999999998	0.6000000000000001	valid	0.5165432220001094	51200	0	0	2	51200	1	51200	1	51200	1	0.7	51200	purple	turquoise	1	6	ml	2.7.3	bip	sub-12_ses-01_task-ml_proj-bip_2021-01-12-10-26-20.583454
246	12	1	5	247	stable	8	200	47	vs	turquoise	purple	turquoise	purple	left	right	0.30000000000000004	0.7	2	6	0.6000000000000001	4.199999999999998	0	1	0.30000000000000004	0.7	2	6	0.6000000000000001	4.199999999999998	valid	0.5665394290008408	53248	0	1	2	53248	1	53248	1	53248	1	0.7	53248	purple	turquoise	1	6	ml	2.7.3	bip	sub-12_ses-01_task-ml_proj-bip_2021-01-12-10-26-20.583454
247	12	1	5	248	stable	8	200	48	vs	turquoise	purple	turquoise	purple	left	right	0.30000000000000004	0.7	4	6	1.2000000000000002	4.199999999999998	1	0	0.30000000000000004	0.7	4	6	1.2000000000000002	4.199999999999998	invalid	0.6331874150000658	53248	0	1	2	53248	1	53248	1	53248	1	0.7	53248	purple	turquoise	1	0	ml	2.7.3	bip	sub-12_ses-01_task-ml_proj-bip_2021-01-12-10-26-20.583454
248	12	1	5	249	stable	8	200	49	vs	turquoise	purple	turquoise	purple	left	right	0.30000000000000004	0.7	4	6	1.2000000000000002	4.199999999999998	1	0	0.30000000000000004	0.7	4	6	1.2000000000000002	4.199999999999998	invalid	0.5832069260013668	53248	0	1	2	53248	1	53248	1	53248	1	0.7	53248	purple	turquoise	1	0	ml	2.7.3	bip	sub-12_ses-01_task-ml_proj-bip_2021-01-12-10-26-20.583454
249	12	1	5	250	stable	8	200	50	vs	turquoise	purple	turquoise	purple	left	right	0.30000000000000004	0.7	6	2	1.8000000000000005	1.4	0	1	0.30000000000000004	0.7	6	2	1.8000000000000005	1.4	valid	1.1830332579993408	53248	0	1	2	51200	0	53248	1	51200	0	0.7	53248	purple	turquoise	0	2	ml	2.7.3	bip	sub-12_ses-01_task-ml_proj-bip_2021-01-12-10-26-20.583454
250	12	1	6	251	stable	8	200	51	vs	turquoise	purple	turquoise	purple	left	right	0.30000000000000004	0.7	4	6	1.2000000000000002	4.199999999999998	1	0	0.30000000000000004	0.7	4	6	1.2000000000000002	4.199999999999998	invalid	0.8831094059987663	53248	0	1	2	53248	1	53248	1	53248	1	0.7	53248	purple	turquoise	1	0	ml	2.7.3	bip	sub-12_ses-01_task-ml_proj-bip_2021-01-12-10-26-20.583454
251	12	1	6	252	stable	8	200	52	vs	purple	turquoise	turquoise	purple	right	left	0.30000000000000004	0.7	2	2	0.6000000000000001	1.4	0	1	0.7	0.30000000000000004	2	2	1.4	0.6000000000000001	valid	0.7331610799992632	53248	0	1	1	51200	0	51200	0	53248	1	0.7	51200	purple	turquoise	1	0	ml	2.7.3	bip	sub-12_ses-01_task-ml_proj-bip_2021-01-12-10-26-20.583454
252	12	1	6	253	stable	8	200	53	vs	purple	turquoise	turquoise	purple	right	left	0.30000000000000004	0.7	10	2	3.0000000000000004	1.4	0	1	0.7	0.30000000000000004	2	10	1.4	3.0000000000000004	valid	0.6498486649998085	53248	0	1	1	53248	1	51200	0	53248	1	0.7	51200	purple	turquoise	0	0	ml	2.7.3	bip	sub-12_ses-01_task-ml_proj-bip_2021-01-12-10-26-20.583454
253	12	1	6	254	stable	8	200	54	vs	purple	turquoise	turquoise	purple	right	left	0.30000000000000004	0.7	2	6	0.6000000000000001	4.199999999999998	0	1	0.7	0.30000000000000004	6	2	4.199999999999998	0.6000000000000001	valid	0.7498132860000624	51200	0	0	2	51200	1	51200	1	51200	1	0.7	51200	purple	turquoise	1	6	ml	2.7.3	bip	sub-12_ses-01_task-ml_proj-bip_2021-01-12-10-26-20.583454
254	12	1	6	255	stable	8	200	55	vs	turquoise	purple	turquoise	purple	left	right	0.30000000000000004	0.7	2	2	0.6000000000000001	1.4	0	1	0.30000000000000004	0.7	2	2	0.6000000000000001	1.4	valid	0.5498951739991753	53248	0	1	2	53248	1	53248	1	53248	1	0.7	53248	purple	turquoise	0	2	ml	2.7.3	bip	sub-12_ses-01_task-ml_proj-bip_2021-01-12-10-26-20.583454
255	12	1	6	256	stable	8	200	56	vs	turquoise	purple	turquoise	purple	left	right	0.30000000000000004	0.7	4	2	1.2000000000000002	1.4	0	1	0.30000000000000004	0.7	4	2	1.2000000000000002	1.4	valid	0.5831996540000546	53248	0	1	2	53248	1	53248	1	51200	0	0.7	53248	purple	turquoise	0	2	ml	2.7.3	bip	sub-12_ses-01_task-ml_proj-bip_2021-01-12-10-26-20.583454
256	12	1	6	257	stable	8	200	57	vs	turquoise	purple	turquoise	purple	left	right	0.30000000000000004	0.7	6	4	1.8000000000000005	2.8	0	1	0.30000000000000004	0.7	6	4	1.8000000000000005	2.8	valid	0.8164737390015944	53248	0	1	2	53248	1	53248	1	51200	0	0.7	53248	purple	turquoise	0	4	ml	2.7.3	bip	sub-12_ses-01_task-ml_proj-bip_2021-01-12-10-26-20.583454
257	12	1	6	258	stable	8	200	58	vs	turquoise	purple	turquoise	purple	left	right	0.30000000000000004	0.7	10	2	3.0000000000000004	1.4	0	1	0.30000000000000004	0.7	10	2	3.0000000000000004	1.4	valid	0.7997944800008554	51200	0	0	1	51200	1	53248	0	51200	1	0.7	53248	purple	turquoise	0	0	ml	2.7.3	bip	sub-12_ses-01_task-ml_proj-bip_2021-01-12-10-26-20.583454
258	12	1	6	259	stable	8	200	59	vs	purple	turquoise	turquoise	purple	right	left	0.30000000000000004	0.7	2	10	0.6000000000000001	7.0	0	1	0.7	0.30000000000000004	10	2	7.0	0.6000000000000001	valid	1.2163578889994824	53248	0	1	1	51200	0	51200	0	51200	0	0.7	51200	purple	turquoise	1	0	ml	2.7.3	bip	sub-12_ses-01_task-ml_proj-bip_2021-01-12-10-26-20.583454
259	12	1	6	260	stable	8	200	60	vs	purple	turquoise	turquoise	purple	right	left	0.30000000000000004	0.7	2	2	0.6000000000000001	1.4	1	0	0.7	0.30000000000000004	2	2	1.4	0.6000000000000001	invalid	0.8164505299992015	51200	0	0	2	51200	1	51200	1	53248	0	0.7	51200	purple	turquoise	1	0	ml	2.7.3	bip	sub-12_ses-01_task-ml_proj-bip_2021-01-12-10-26-20.583454
260	12	1	6	261	stable	8	200	61	vs	purple	turquoise	turquoise	purple	right	left	0.30000000000000004	0.7	2	4	0.6000000000000001	2.8	1	0	0.7	0.30000000000000004	4	2	2.8	0.6000000000000001	invalid	0.5665204520009866	51200	0	0	2	51200	1	51200	1	51200	1	0.7	51200	purple	turquoise	1	0	ml	2.7.3	bip	sub-12_ses-01_task-ml_proj-bip_2021-01-12-10-26-20.583454
261	12	1	6	262	stable	8	200	62	vs	turquoise	purple	turquoise	purple	left	right	0.30000000000000004	0.7	2	4	0.6000000000000001	2.8	1	0	0.30000000000000004	0.7	2	4	0.6000000000000001	2.8	invalid	0.6665111419988534	53248	0	1	2	53248	1	53248	1	53248	1	0.7	53248	purple	turquoise	1	0	ml	2.7.3	bip	sub-12_ses-01_task-ml_proj-bip_2021-01-12-10-26-20.583454
262	12	1	6	263	stable	8	200	63	vs	purple	turquoise	turquoise	purple	right	left	0.30000000000000004	0.7	4	6	1.2000000000000002	4.199999999999998	0	1	0.7	0.30000000000000004	6	4	4.199999999999998	1.2000000000000002	valid	0.4499055249998492	53248	0	1	1	51200	0	51200	0	51200	0	0.7	51200	purple	turquoise	1	0	ml	2.7.3	bip	sub-12_ses-01_task-ml_proj-bip_2021-01-12-10-26-20.583454
263	12	1	6	264	stable	8	200	64	vs	turquoise	purple	turquoise	purple	left	right	0.30000000000000004	0.7	4	2	1.2000000000000002	1.4	1	0	0.30000000000000004	0.7	4	2	1.2000000000000002	1.4	invalid	0.4165685010011657	51200	0	0	1	53248	0	53248	0	51200	1	0.7	53248	purple	turquoise	0	4	ml	2.7.3	bip	sub-12_ses-01_task-ml_proj-bip_2021-01-12-10-26-20.583454
264	12	1	6	265	stable	8	200	65	vs	turquoise	purple	turquoise	purple	left	right	0.30000000000000004	0.7	6	6	1.8000000000000005	4.199999999999998	0	1	0.30000000000000004	0.7	6	6	1.8000000000000005	4.199999999999998	valid	0.6664999389995501	51200	0	0	1	53248	0	53248	0	53248	0	0.7	53248	purple	turquoise	0	0	ml	2.7.3	bip	sub-12_ses-01_task-ml_proj-bip_2021-01-12-10-26-20.583454
265	12	1	6	266	stable	8	200	66	vs	turquoise	purple	turquoise	purple	left	right	0.30000000000000004	0.7	6	6	1.8000000000000005	4.199999999999998	0	1	0.30000000000000004	0.7	6	6	1.8000000000000005	4.199999999999998	valid	1.0830455420000362	51200	0	0	1	53248	0	53248	0	53248	0	0.7	53248	purple	turquoise	0	0	ml	2.7.3	bip	sub-12_ses-01_task-ml_proj-bip_2021-01-12-10-26-20.583454
266	12	1	6	267	stable	8	200	67	vs	turquoise	purple	turquoise	purple	left	right	0.30000000000000004	0.7	6	2	1.8000000000000005	1.4	1	0	0.30000000000000004	0.7	6	2	1.8000000000000005	1.4	invalid	1.0163974079987383	51200	0	0	1	51200	1	53248	0	51200	1	0.7	53248	purple	turquoise	0	6	ml	2.7.3	bip	sub-12_ses-01_task-ml_proj-bip_2021-01-12-10-26-20.583454
267	12	1	6	268	stable	8	200	68	vs	purple	turquoise	turquoise	purple	right	left	0.30000000000000004	0.7	6	6	1.8000000000000005	4.199999999999998	0	1	0.7	0.30000000000000004	6	6	4.199999999999998	1.8000000000000005	valid	0.5832030189994839	53248	0	1	1	51200	0	51200	0	53248	1	0.7	51200	purple	turquoise	1	0	ml	2.7.3	bip	sub-12_ses-01_task-ml_proj-bip_2021-01-12-10-26-20.583454
268	12	1	6	269	stable	8	200	69	vs	turquoise	purple	turquoise	purple	left	right	0.30000000000000004	0.7	10	2	3.0000000000000004	1.4	0	1	0.30000000000000004	0.7	10	2	3.0000000000000004	1.4	valid	0.4665585859984276	51200	0	0	1	51200	1	53248	0	51200	1	0.7	53248	purple	turquoise	0	0	ml	2.7.3	bip	sub-12_ses-01_task-ml_proj-bip_2021-01-12-10-26-20.583454
269	12	1	6	270	stable	8	200	70	vs	turquoise	purple	turquoise	purple	left	right	0.30000000000000004	0.7	6	4	1.8000000000000005	2.8	0	1	0.30000000000000004	0.7	6	4	1.8000000000000005	2.8	valid	0.7498078089993214	51200	0	0	1	53248	0	53248	0	51200	1	0.7	53248	purple	turquoise	0	0	ml	2.7.3	bip	sub-12_ses-01_task-ml_proj-bip_2021-01-12-10-26-20.583454
270	12	1	6	271	stable	8	200	71	vs	purple	turquoise	turquoise	purple	right	left	0.30000000000000004	0.7	10	2	3.0000000000000004	1.4	1	0	0.7	0.30000000000000004	2	10	1.4	3.0000000000000004	invalid	0.4998807270003454	51200	0	0	2	53248	0	51200	1	53248	0	0.7	51200	purple	turquoise	0	0	ml	2.7.3	bip	sub-12_ses-01_task-ml_proj-bip_2021-01-12-10-26-20.583454
271	12	1	6	272	stable	8	200	72	vs	purple	turquoise	turquoise	purple	right	left	0.30000000000000004	0.7	2	4	0.6000000000000001	2.8	0	1	0.7	0.30000000000000004	4	2	2.8	0.6000000000000001	valid	1.0997117850001814	51200	0	0	2	51200	1	51200	1	51200	1	0.7	51200	purple	turquoise	1	4	ml	2.7.3	bip	sub-12_ses-01_task-ml_proj-bip_2021-01-12-10-26-20.583454
272	12	1	6	273	stable	8	200	73	vs	turquoise	purple	turquoise	purple	left	right	0.30000000000000004	0.7	6	4	1.8000000000000005	2.8	0	1	0.30000000000000004	0.7	6	4	1.8000000000000005	2.8	valid	0.6331871000002138	53248	0	1	2	53248	1	53248	1	51200	0	0.7	53248	purple	turquoise	0	4	ml	2.7.3	bip	sub-12_ses-01_task-ml_proj-bip_2021-01-12-10-26-20.583454
273	12	1	6	274	stable	8	200	74	vs	turquoise	purple	turquoise	purple	left	right	0.30000000000000004	0.7	10	2	3.0000000000000004	1.4	0	1	0.30000000000000004	0.7	10	2	3.0000000000000004	1.4	valid	1.0663829959994473	51200	0	0	1	51200	1	53248	0	51200	1	0.7	53248	purple	turquoise	0	0	ml	2.7.3	bip	sub-12_ses-01_task-ml_proj-bip_2021-01-12-10-26-20.583454
274	12	1	6	275	stable	8	200	75	vs	purple	turquoise	turquoise	purple	right	left	0.30000000000000004	0.7	6	4	1.8000000000000005	2.8	0	1	0.7	0.30000000000000004	4	6	2.8	1.8000000000000005	valid	0.9164262550002604	51200	0	0	2	51200	1	51200	1	53248	0	0.7	51200	purple	turquoise	0	4	ml	2.7.3	bip	sub-12_ses-01_task-ml_proj-bip_2021-01-12-10-26-20.583454
275	12	1	6	276	stable	8	200	76	vs	purple	turquoise	turquoise	purple	right	left	0.30000000000000004	0.7	6	2	1.8000000000000005	1.4	1	0	0.7	0.30000000000000004	2	6	1.4	1.8000000000000005	invalid	1.3496551349999208	53248	0	1	1	53248	1	51200	0	53248	1	0.7	51200	purple	turquoise	0	6	ml	2.7.3	bip	sub-12_ses-01_task-ml_proj-bip_2021-01-12-10-26-20.583454
276	12	1	6	277	stable	8	200	77	vs	purple	turquoise	turquoise	purple	right	left	0.30000000000000004	0.7	4	6	1.2000000000000002	4.199999999999998	0	1	0.7	0.30000000000000004	6	4	4.199999999999998	1.2000000000000002	valid	0.7331416550005088	51200	0	0	2	51200	1	51200	1	51200	1	0.7	51200	purple	turquoise	1	6	ml	2.7.3	bip	sub-12_ses-01_task-ml_proj-bip_2021-01-12-10-26-20.583454
277	12	1	6	278	stable	8	200	78	vs	turquoise	purple	turquoise	purple	left	right	0.30000000000000004	0.7	2	10	0.6000000000000001	7.0	0	1	0.30000000000000004	0.7	2	10	0.6000000000000001	7.0	valid	0.749821196000994	53248	0	1	2	53248	1	53248	1	53248	1	0.7	53248	purple	turquoise	1	10	ml	2.7.3	bip	sub-12_ses-01_task-ml_proj-bip_2021-01-12-10-26-20.583454
