Unnamed: 0	sub_id	ses_id	block_no	trial_no	phase_type	phase_no	phase_length	trialInPhase_no	phase_type_order	color_left	color_right	color1	color2	position1	position2	prob1	prob2	mag1	mag2	ev1	ev2	outcome1	outcome2	prob_left	prob_right	mag_left	mag_right	ev_left	ev_right	reward_validity	resp_time	resp_key	timeout	choice_side	choice	ev_corr_resp	ev_correct	prob_corr_resp	prob_correct	mag_corr_resp	mag_correct	high_prob	high_prob_side	high_prob_color	low_prob_color	no_brain	reward	name	version	proj_id	logFileID
0	6	2	1	1	stable	1	200	1	sv	red	blue	red	blue	left	right	0.7	0.30000000000000004	10	2	7.0	0.6000000000000001	1	0	0.7	0.30000000000000004	10	2	7.0	0.6000000000000001	valid	0.6664989559994865	51200	0	0	1	51200	1	51200	1	51200	1	0.7	51200	red	blue	1	10	ml	2.7.3	lorasick	sub-06_ses-02_task-ml_proj-lorasick_2020-12-11-14-04-56.373516
1	6	2	1	2	stable	1	200	2	sv	red	blue	red	blue	left	right	0.7	0.30000000000000004	2	4	1.4	1.2000000000000002	0	1	0.7	0.30000000000000004	2	4	1.4	1.2000000000000002	invalid	0.5332061350000004	51200	0	0	1	51200	1	51200	1	53248	0	0.7	51200	red	blue	0	0	ml	2.7.3	lorasick	sub-06_ses-02_task-ml_proj-lorasick_2020-12-11-14-04-56.373516
2	6	2	1	3	stable	1	200	3	sv	blue	red	red	blue	right	left	0.7	0.30000000000000004	6	6	4.199999999999998	1.8000000000000005	0	1	0.30000000000000004	0.7	6	6	1.8000000000000005	4.199999999999998	invalid	0.5665403620005236	53248	0	1	1	53248	1	53248	1	53248	1	0.7	53248	red	blue	0	0	ml	2.7.3	lorasick	sub-06_ses-02_task-ml_proj-lorasick_2020-12-11-14-04-56.373516
3	6	2	1	4	stable	1	200	4	sv	blue	red	red	blue	right	left	0.7	0.30000000000000004	10	2	7.0	0.6000000000000001	0	1	0.30000000000000004	0.7	2	10	0.6000000000000001	7.0	invalid	0.6665053619999526	53248	0	1	1	53248	1	53248	1	53248	1	0.7	53248	red	blue	1	0	ml	2.7.3	lorasick	sub-06_ses-02_task-ml_proj-lorasick_2020-12-11-14-04-56.373516
4	6	2	1	5	stable	1	200	5	sv	red	blue	red	blue	left	right	0.7	0.30000000000000004	6	2	4.199999999999998	0.6000000000000001	1	0	0.7	0.30000000000000004	6	2	4.199999999999998	0.6000000000000001	valid	0.4665676019994862	53248	0	1	2	51200	0	51200	0	51200	0	0.7	51200	red	blue	1	0	ml	2.7.3	lorasick	sub-06_ses-02_task-ml_proj-lorasick_2020-12-11-14-04-56.373516
5	6	2	1	6	stable	1	200	6	sv	red	blue	red	blue	left	right	0.7	0.30000000000000004	10	2	7.0	0.6000000000000001	1	0	0.7	0.30000000000000004	10	2	7.0	0.6000000000000001	valid	0.7164874930003862	51200	0	0	1	51200	1	51200	1	51200	1	0.7	51200	red	blue	1	10	ml	2.7.3	lorasick	sub-06_ses-02_task-ml_proj-lorasick_2020-12-11-14-04-56.373516
6	6	2	1	7	stable	1	200	7	sv	red	blue	red	blue	left	right	0.7	0.30000000000000004	6	2	4.199999999999998	0.6000000000000001	0	1	0.7	0.30000000000000004	6	2	4.199999999999998	0.6000000000000001	invalid	0.7331466499999806	51200	0	0	1	51200	1	51200	1	51200	1	0.7	51200	red	blue	1	0	ml	2.7.3	lorasick	sub-06_ses-02_task-ml_proj-lorasick_2020-12-11-14-04-56.373516
7	6	2	1	8	stable	1	200	8	sv	blue	red	red	blue	right	left	0.7	0.30000000000000004	4	2	2.8	0.6000000000000001	0	1	0.30000000000000004	0.7	2	4	0.6000000000000001	2.8	invalid	0.5498703289995319	51200	0	0	2	53248	0	53248	0	53248	0	0.7	53248	red	blue	1	2	ml	2.7.3	lorasick	sub-06_ses-02_task-ml_proj-lorasick_2020-12-11-14-04-56.373516
8	6	2	1	9	stable	1	200	9	sv	blue	red	red	blue	right	left	0.7	0.30000000000000004	6	2	4.199999999999998	0.6000000000000001	1	0	0.30000000000000004	0.7	2	6	0.6000000000000001	4.199999999999998	valid	0.6498407220005902	51200	0	0	2	53248	0	53248	0	53248	0	0.7	53248	red	blue	1	0	ml	2.7.3	lorasick	sub-06_ses-02_task-ml_proj-lorasick_2020-12-11-14-04-56.373516
9	6	2	1	10	stable	1	200	10	sv	red	blue	red	blue	left	right	0.7	0.30000000000000004	2	2	1.4	0.6000000000000001	1	0	0.7	0.30000000000000004	2	2	1.4	0.6000000000000001	valid	0.8331371180011047	53248	0	1	2	51200	0	51200	0	53248	1	0.7	51200	red	blue	1	0	ml	2.7.3	lorasick	sub-06_ses-02_task-ml_proj-lorasick_2020-12-11-14-04-56.373516
10	6	2	1	11	stable	1	200	11	sv	red	blue	red	blue	left	right	0.7	0.30000000000000004	2	4	1.4	1.2000000000000002	0	1	0.7	0.30000000000000004	2	4	1.4	1.2000000000000002	invalid	0.6331925340000453	53248	0	1	2	51200	0	51200	0	53248	1	0.7	51200	red	blue	0	4	ml	2.7.3	lorasick	sub-06_ses-02_task-ml_proj-lorasick_2020-12-11-14-04-56.373516
11	6	2	1	12	stable	1	200	12	sv	blue	red	red	blue	right	left	0.7	0.30000000000000004	4	6	2.8	1.8000000000000005	0	1	0.30000000000000004	0.7	6	4	1.8000000000000005	2.8	invalid	0.5498722239990457	51200	0	0	2	53248	0	53248	0	51200	1	0.7	53248	red	blue	0	6	ml	2.7.3	lorasick	sub-06_ses-02_task-ml_proj-lorasick_2020-12-11-14-04-56.373516
12	6	2	1	13	stable	1	200	13	sv	red	blue	red	blue	left	right	0.7	0.30000000000000004	2	4	1.4	1.2000000000000002	1	0	0.7	0.30000000000000004	2	4	1.4	1.2000000000000002	valid	0.5832008690013026	53248	0	1	2	51200	0	51200	0	53248	1	0.7	51200	red	blue	0	0	ml	2.7.3	lorasick	sub-06_ses-02_task-ml_proj-lorasick_2020-12-11-14-04-56.373516
13	6	2	1	14	stable	1	200	14	sv	blue	red	red	blue	right	left	0.7	0.30000000000000004	2	2	1.4	0.6000000000000001	1	0	0.30000000000000004	0.7	2	2	0.6000000000000001	1.4	valid	0.4498960689998057	51200	0	0	2	53248	0	53248	0	53248	0	0.7	53248	red	blue	0	0	ml	2.7.3	lorasick	sub-06_ses-02_task-ml_proj-lorasick_2020-12-11-14-04-56.373516
14	6	2	1	15	stable	1	200	15	sv	blue	red	red	blue	right	left	0.7	0.30000000000000004	6	4	4.199999999999998	1.2000000000000002	0	1	0.30000000000000004	0.7	4	6	1.2000000000000002	4.199999999999998	invalid	0.7831445110005006	53248	0	1	1	53248	1	53248	1	53248	1	0.7	53248	red	blue	1	0	ml	2.7.3	lorasick	sub-06_ses-02_task-ml_proj-lorasick_2020-12-11-14-04-56.373516
15	6	2	1	16	stable	1	200	16	sv	blue	red	red	blue	right	left	0.7	0.30000000000000004	6	6	4.199999999999998	1.8000000000000005	1	0	0.30000000000000004	0.7	6	6	1.8000000000000005	4.199999999999998	valid	0.5332048880009097	51200	0	0	2	53248	0	53248	0	53248	0	0.7	53248	red	blue	0	0	ml	2.7.3	lorasick	sub-06_ses-02_task-ml_proj-lorasick_2020-12-11-14-04-56.373516
16	6	2	1	17	stable	1	200	17	sv	red	blue	red	blue	left	right	0.7	0.30000000000000004	4	6	2.8	1.8000000000000005	1	0	0.7	0.30000000000000004	4	6	2.8	1.8000000000000005	valid	0.3999621989987645	53248	0	1	2	51200	0	51200	0	53248	1	0.7	51200	red	blue	0	0	ml	2.7.3	lorasick	sub-06_ses-02_task-ml_proj-lorasick_2020-12-11-14-04-56.373516
17	6	2	1	18	stable	1	200	18	sv	blue	red	red	blue	right	left	0.7	0.30000000000000004	2	6	1.4	1.8000000000000005	1	0	0.30000000000000004	0.7	6	2	1.8000000000000005	1.4	valid	0.3832485379989521	51200	0	0	2	51200	1	53248	0	51200	1	0.7	53248	red	blue	0	0	ml	2.7.3	lorasick	sub-06_ses-02_task-ml_proj-lorasick_2020-12-11-14-04-56.373516
18	6	2	1	19	stable	1	200	19	sv	red	blue	red	blue	left	right	0.7	0.30000000000000004	2	10	1.4	3.0000000000000004	1	0	0.7	0.30000000000000004	2	10	1.4	3.0000000000000004	valid	0.4665596470003948	51200	0	0	1	53248	0	51200	1	53248	0	0.7	51200	red	blue	0	2	ml	2.7.3	lorasick	sub-06_ses-02_task-ml_proj-lorasick_2020-12-11-14-04-56.373516
19	6	2	1	20	stable	1	200	20	sv	red	blue	red	blue	left	right	0.7	0.30000000000000004	10	2	7.0	0.6000000000000001	0	1	0.7	0.30000000000000004	10	2	7.0	0.6000000000000001	invalid	0.34992602599959355	51200	0	0	1	51200	1	51200	1	51200	1	0.7	51200	red	blue	1	0	ml	2.7.3	lorasick	sub-06_ses-02_task-ml_proj-lorasick_2020-12-11-14-04-56.373516
20	6	2	1	21	stable	1	200	21	sv	red	blue	red	blue	left	right	0.7	0.30000000000000004	2	10	1.4	3.0000000000000004	0	1	0.7	0.30000000000000004	2	10	1.4	3.0000000000000004	invalid	0.5165427899992211	51200	0	0	1	53248	0	51200	1	53248	0	0.7	51200	red	blue	0	0	ml	2.7.3	lorasick	sub-06_ses-02_task-ml_proj-lorasick_2020-12-11-14-04-56.373516
21	6	2	1	22	stable	1	200	22	sv	blue	red	red	blue	right	left	0.7	0.30000000000000004	10	2	7.0	0.6000000000000001	1	0	0.30000000000000004	0.7	2	10	0.6000000000000001	7.0	valid	0.5165353790016525	51200	0	0	2	53248	0	53248	0	53248	0	0.7	53248	red	blue	1	0	ml	2.7.3	lorasick	sub-06_ses-02_task-ml_proj-lorasick_2020-12-11-14-04-56.373516
22	6	2	1	23	stable	1	200	23	sv	blue	red	red	blue	right	left	0.7	0.30000000000000004	2	4	1.4	1.2000000000000002	1	0	0.30000000000000004	0.7	4	2	1.2000000000000002	1.4	valid	0.6665014480004174	51200	0	0	2	53248	0	53248	0	51200	1	0.7	53248	red	blue	0	0	ml	2.7.3	lorasick	sub-06_ses-02_task-ml_proj-lorasick_2020-12-11-14-04-56.373516
23	6	2	1	24	stable	1	200	24	sv	red	blue	red	blue	left	right	0.7	0.30000000000000004	2	6	1.4	1.8000000000000005	1	0	0.7	0.30000000000000004	2	6	1.4	1.8000000000000005	valid	0.5331999249992805	51200	0	0	1	53248	0	51200	1	53248	0	0.7	51200	red	blue	0	2	ml	2.7.3	lorasick	sub-06_ses-02_task-ml_proj-lorasick_2020-12-11-14-04-56.373516
24	6	2	1	25	stable	1	200	25	sv	blue	red	red	blue	right	left	0.7	0.30000000000000004	4	6	2.8	1.8000000000000005	1	0	0.30000000000000004	0.7	6	4	1.8000000000000005	2.8	valid	0.38326107899956696	53248	0	1	1	53248	1	53248	1	51200	0	0.7	53248	red	blue	0	4	ml	2.7.3	lorasick	sub-06_ses-02_task-ml_proj-lorasick_2020-12-11-14-04-56.373516
25	6	2	1	26	stable	1	200	26	sv	blue	red	red	blue	right	left	0.7	0.30000000000000004	6	2	4.199999999999998	0.6000000000000001	0	1	0.30000000000000004	0.7	2	6	0.6000000000000001	4.199999999999998	invalid	0.43324463899989496	53248	0	1	1	53248	1	53248	1	53248	1	0.7	53248	red	blue	1	0	ml	2.7.3	lorasick	sub-06_ses-02_task-ml_proj-lorasick_2020-12-11-14-04-56.373516
26	6	2	1	27	stable	1	200	27	sv	blue	red	red	blue	right	left	0.7	0.30000000000000004	6	4	4.199999999999998	1.2000000000000002	1	0	0.30000000000000004	0.7	4	6	1.2000000000000002	4.199999999999998	valid	0.4332428739999159	53248	0	1	1	53248	1	53248	1	53248	1	0.7	53248	red	blue	1	6	ml	2.7.3	lorasick	sub-06_ses-02_task-ml_proj-lorasick_2020-12-11-14-04-56.373516
27	6	2	1	28	stable	1	200	28	sv	red	blue	red	blue	left	right	0.7	0.30000000000000004	4	2	2.8	0.6000000000000001	1	0	0.7	0.30000000000000004	4	2	2.8	0.6000000000000001	valid	0.5332103790005931	51200	0	0	1	51200	1	51200	1	51200	1	0.7	51200	red	blue	1	4	ml	2.7.3	lorasick	sub-06_ses-02_task-ml_proj-lorasick_2020-12-11-14-04-56.373516
28	6	2	1	29	stable	1	200	29	sv	blue	red	red	blue	right	left	0.7	0.30000000000000004	4	6	2.8	1.8000000000000005	1	0	0.30000000000000004	0.7	6	4	1.8000000000000005	2.8	valid	0.4665786149998894	53248	0	1	1	53248	1	53248	1	51200	0	0.7	53248	red	blue	0	4	ml	2.7.3	lorasick	sub-06_ses-02_task-ml_proj-lorasick_2020-12-11-14-04-56.373516
29	6	2	1	30	stable	1	200	30	sv	blue	red	red	blue	right	left	0.7	0.30000000000000004	2	6	1.4	1.8000000000000005	1	0	0.30000000000000004	0.7	6	2	1.8000000000000005	1.4	valid	0.4998926429998392	53248	0	1	1	51200	0	53248	1	51200	0	0.7	53248	red	blue	0	2	ml	2.7.3	lorasick	sub-06_ses-02_task-ml_proj-lorasick_2020-12-11-14-04-56.373516
30	6	2	1	31	stable	1	200	31	sv	blue	red	red	blue	right	left	0.7	0.30000000000000004	2	10	1.4	3.0000000000000004	1	0	0.30000000000000004	0.7	10	2	3.0000000000000004	1.4	valid	0.7831327159983629	51200	0	0	2	51200	1	53248	0	51200	1	0.7	53248	red	blue	0	0	ml	2.7.3	lorasick	sub-06_ses-02_task-ml_proj-lorasick_2020-12-11-14-04-56.373516
31	6	2	1	32	stable	1	200	32	sv	red	blue	red	blue	left	right	0.7	0.30000000000000004	2	2	1.4	0.6000000000000001	1	0	0.7	0.30000000000000004	2	2	1.4	0.6000000000000001	valid	0.5332172509988595	53248	0	1	2	51200	0	51200	0	53248	1	0.7	51200	red	blue	1	0	ml	2.7.3	lorasick	sub-06_ses-02_task-ml_proj-lorasick_2020-12-11-14-04-56.373516
32	6	2	1	33	stable	1	200	33	sv	red	blue	red	blue	left	right	0.7	0.30000000000000004	2	4	1.4	1.2000000000000002	0	1	0.7	0.30000000000000004	2	4	1.4	1.2000000000000002	invalid	0.3999127579991182	51200	0	0	1	51200	1	51200	1	53248	0	0.7	51200	red	blue	0	0	ml	2.7.3	lorasick	sub-06_ses-02_task-ml_proj-lorasick_2020-12-11-14-04-56.373516
33	6	2	1	34	stable	1	200	34	sv	red	blue	red	blue	left	right	0.7	0.30000000000000004	10	2	7.0	0.6000000000000001	1	0	0.7	0.30000000000000004	10	2	7.0	0.6000000000000001	valid	0.6331755150004028	51200	0	0	1	51200	1	51200	1	51200	1	0.7	51200	red	blue	1	10	ml	2.7.3	lorasick	sub-06_ses-02_task-ml_proj-lorasick_2020-12-11-14-04-56.373516
34	6	2	1	35	stable	1	200	35	sv	red	blue	red	blue	left	right	0.7	0.30000000000000004	6	2	4.199999999999998	0.6000000000000001	1	0	0.7	0.30000000000000004	6	2	4.199999999999998	0.6000000000000001	valid	0.38325029100087693	51200	0	0	1	51200	1	51200	1	51200	1	0.7	51200	red	blue	1	6	ml	2.7.3	lorasick	sub-06_ses-02_task-ml_proj-lorasick_2020-12-11-14-04-56.373516
35	6	2	1	36	stable	1	200	36	sv	blue	red	red	blue	right	left	0.7	0.30000000000000004	6	6	4.199999999999998	1.8000000000000005	0	1	0.30000000000000004	0.7	6	6	1.8000000000000005	4.199999999999998	invalid	0.5165550450001319	53248	0	1	1	53248	1	53248	1	53248	1	0.7	53248	red	blue	0	0	ml	2.7.3	lorasick	sub-06_ses-02_task-ml_proj-lorasick_2020-12-11-14-04-56.373516
36	6	2	1	37	stable	1	200	37	sv	blue	red	red	blue	right	left	0.7	0.30000000000000004	6	2	4.199999999999998	0.6000000000000001	1	0	0.30000000000000004	0.7	2	6	0.6000000000000001	4.199999999999998	valid	0.5165548800014221	53248	0	1	1	53248	1	53248	1	53248	1	0.7	53248	red	blue	1	6	ml	2.7.3	lorasick	sub-06_ses-02_task-ml_proj-lorasick_2020-12-11-14-04-56.373516
37	6	2	1	38	stable	1	200	38	sv	blue	red	red	blue	right	left	0.7	0.30000000000000004	2	4	1.4	1.2000000000000002	1	0	0.30000000000000004	0.7	4	2	1.2000000000000002	1.4	valid	0.6498373060003361	51200	0	0	2	53248	0	53248	0	51200	1	0.7	53248	red	blue	0	0	ml	2.7.3	lorasick	sub-06_ses-02_task-ml_proj-lorasick_2020-12-11-14-04-56.373516
38	6	2	1	39	stable	1	200	39	sv	red	blue	red	blue	left	right	0.7	0.30000000000000004	6	4	4.199999999999998	1.2000000000000002	1	0	0.7	0.30000000000000004	6	4	4.199999999999998	1.2000000000000002	valid	0.599852909999754	51200	0	0	1	51200	1	51200	1	51200	1	0.7	51200	red	blue	1	6	ml	2.7.3	lorasick	sub-06_ses-02_task-ml_proj-lorasick_2020-12-11-14-04-56.373516
39	6	2	1	40	stable	1	200	40	sv	red	blue	red	blue	left	right	0.7	0.30000000000000004	6	2	4.199999999999998	0.6000000000000001	0	1	0.7	0.30000000000000004	6	2	4.199999999999998	0.6000000000000001	invalid	0.4832217540006241	51200	0	0	1	51200	1	51200	1	51200	1	0.7	51200	red	blue	1	0	ml	2.7.3	lorasick	sub-06_ses-02_task-ml_proj-lorasick_2020-12-11-14-04-56.373516
40	6	2	1	41	stable	1	200	41	sv	blue	red	red	blue	right	left	0.7	0.30000000000000004	2	10	1.4	3.0000000000000004	0	1	0.30000000000000004	0.7	10	2	3.0000000000000004	1.4	invalid	0.616527528000006	53248	0	1	1	51200	0	53248	1	51200	0	0.7	53248	red	blue	0	0	ml	2.7.3	lorasick	sub-06_ses-02_task-ml_proj-lorasick_2020-12-11-14-04-56.373516
41	6	2	1	42	stable	1	200	42	sv	red	blue	red	blue	left	right	0.7	0.30000000000000004	2	2	1.4	0.6000000000000001	0	1	0.7	0.30000000000000004	2	2	1.4	0.6000000000000001	invalid	0.5165542269987782	53248	0	1	2	51200	0	51200	0	53248	1	0.7	51200	red	blue	1	2	ml	2.7.3	lorasick	sub-06_ses-02_task-ml_proj-lorasick_2020-12-11-14-04-56.373516
42	6	2	1	43	stable	1	200	43	sv	red	blue	red	blue	left	right	0.7	0.30000000000000004	10	2	7.0	0.6000000000000001	0	1	0.7	0.30000000000000004	10	2	7.0	0.6000000000000001	invalid	0.6165239609999844	53248	0	1	2	51200	0	51200	0	51200	0	0.7	51200	red	blue	1	2	ml	2.7.3	lorasick	sub-06_ses-02_task-ml_proj-lorasick_2020-12-11-14-04-56.373516
43	6	2	1	44	stable	1	200	44	sv	blue	red	red	blue	right	left	0.7	0.30000000000000004	6	4	4.199999999999998	1.2000000000000002	1	0	0.30000000000000004	0.7	4	6	1.2000000000000002	4.199999999999998	valid	0.4332338420008455	51200	0	0	2	53248	0	53248	0	53248	0	0.7	53248	red	blue	1	0	ml	2.7.3	lorasick	sub-06_ses-02_task-ml_proj-lorasick_2020-12-11-14-04-56.373516
44	6	2	1	45	stable	1	200	45	sv	red	blue	red	blue	left	right	0.7	0.30000000000000004	2	6	1.4	1.8000000000000005	0	1	0.7	0.30000000000000004	2	6	1.4	1.8000000000000005	invalid	0.4332464010003605	53248	0	1	2	53248	1	51200	0	53248	1	0.7	51200	red	blue	0	6	ml	2.7.3	lorasick	sub-06_ses-02_task-ml_proj-lorasick_2020-12-11-14-04-56.373516
45	6	2	1	46	stable	1	200	46	sv	blue	red	red	blue	right	left	0.7	0.30000000000000004	2	4	1.4	1.2000000000000002	1	0	0.30000000000000004	0.7	4	2	1.2000000000000002	1.4	valid	0.4165724300000875	51200	0	0	2	53248	0	53248	0	51200	1	0.7	53248	red	blue	0	0	ml	2.7.3	lorasick	sub-06_ses-02_task-ml_proj-lorasick_2020-12-11-14-04-56.373516
46	6	2	1	47	stable	1	200	47	sv	red	blue	red	blue	left	right	0.7	0.30000000000000004	2	4	1.4	1.2000000000000002	1	0	0.7	0.30000000000000004	2	4	1.4	1.2000000000000002	valid	0.7498193459996401	53248	0	1	2	51200	0	51200	0	53248	1	0.7	51200	red	blue	0	0	ml	2.7.3	lorasick	sub-06_ses-02_task-ml_proj-lorasick_2020-12-11-14-04-56.373516
47	6	2	1	48	stable	1	200	48	sv	blue	red	red	blue	right	left	0.7	0.30000000000000004	2	10	1.4	3.0000000000000004	1	0	0.30000000000000004	0.7	10	2	3.0000000000000004	1.4	valid	0.6331762059999164	51200	0	0	2	51200	1	53248	0	51200	1	0.7	53248	red	blue	0	0	ml	2.7.3	lorasick	sub-06_ses-02_task-ml_proj-lorasick_2020-12-11-14-04-56.373516
48	6	2	1	49	stable	1	200	49	sv	blue	red	red	blue	right	left	0.7	0.30000000000000004	10	2	7.0	0.6000000000000001	1	0	0.30000000000000004	0.7	2	10	0.6000000000000001	7.0	valid	0.4665677829998458	53248	0	1	1	53248	1	53248	1	53248	1	0.7	53248	red	blue	1	10	ml	2.7.3	lorasick	sub-06_ses-02_task-ml_proj-lorasick_2020-12-11-14-04-56.373516
49	6	2	1	50	stable	1	200	50	sv	red	blue	red	blue	left	right	0.7	0.30000000000000004	2	4	1.4	1.2000000000000002	1	0	0.7	0.30000000000000004	2	4	1.4	1.2000000000000002	valid	0.5332015069998306	51200	0	0	1	51200	1	51200	1	53248	0	0.7	51200	red	blue	0	2	ml	2.7.3	lorasick	sub-06_ses-02_task-ml_proj-lorasick_2020-12-11-14-04-56.373516
50	6	2	2	51	stable	1	200	51	sv	red	blue	red	blue	left	right	0.7	0.30000000000000004	2	10	1.4	3.0000000000000004	1	0	0.7	0.30000000000000004	2	10	1.4	3.0000000000000004	valid	0.6831733759991039	53248	0	1	2	53248	1	51200	0	53248	1	0.7	51200	red	blue	0	0	ml	2.7.3	lorasick	sub-06_ses-02_task-ml_proj-lorasick_2020-12-11-14-04-56.373516
51	6	2	2	52	stable	1	200	52	sv	blue	red	red	blue	right	left	0.7	0.30000000000000004	6	6	4.199999999999998	1.8000000000000005	1	0	0.30000000000000004	0.7	6	6	1.8000000000000005	4.199999999999998	valid	0.5498682420002297	51200	0	0	2	53248	0	53248	0	53248	0	0.7	53248	red	blue	0	0	ml	2.7.3	lorasick	sub-06_ses-02_task-ml_proj-lorasick_2020-12-11-14-04-56.373516
52	6	2	2	53	stable	1	200	53	sv	blue	red	red	blue	right	left	0.7	0.30000000000000004	2	10	1.4	3.0000000000000004	1	0	0.30000000000000004	0.7	10	2	3.0000000000000004	1.4	valid	0.44990549800058943	53248	0	1	1	51200	0	53248	1	51200	0	0.7	53248	red	blue	0	2	ml	2.7.3	lorasick	sub-06_ses-02_task-ml_proj-lorasick_2020-12-11-14-04-56.373516
53	6	2	2	54	stable	1	200	54	sv	blue	red	red	blue	right	left	0.7	0.30000000000000004	2	4	1.4	1.2000000000000002	1	0	0.30000000000000004	0.7	4	2	1.2000000000000002	1.4	valid	0.3166139379991364	53248	0	1	1	53248	1	53248	1	51200	0	0.7	53248	red	blue	0	2	ml	2.7.3	lorasick	sub-06_ses-02_task-ml_proj-lorasick_2020-12-11-14-04-56.373516
54	6	2	2	55	stable	1	200	55	sv	red	blue	red	blue	left	right	0.7	0.30000000000000004	2	6	1.4	1.8000000000000005	0	1	0.7	0.30000000000000004	2	6	1.4	1.8000000000000005	invalid	0.3499252349993185	51200	0	0	1	53248	0	51200	1	53248	0	0.7	51200	red	blue	0	0	ml	2.7.3	lorasick	sub-06_ses-02_task-ml_proj-lorasick_2020-12-11-14-04-56.373516
55	6	2	2	56	stable	1	200	56	sv	blue	red	red	blue	right	left	0.7	0.30000000000000004	6	4	4.199999999999998	1.2000000000000002	1	0	0.30000000000000004	0.7	4	6	1.2000000000000002	4.199999999999998	valid	0.3832597079999687	53248	0	1	1	53248	1	53248	1	53248	1	0.7	53248	red	blue	1	6	ml	2.7.3	lorasick	sub-06_ses-02_task-ml_proj-lorasick_2020-12-11-14-04-56.373516
56	6	2	2	57	stable	1	200	57	sv	blue	red	red	blue	right	left	0.7	0.30000000000000004	2	2	1.4	0.6000000000000001	1	0	0.30000000000000004	0.7	2	2	0.6000000000000001	1.4	valid	0.5165521790004277	53248	0	1	1	53248	1	53248	1	53248	1	0.7	53248	red	blue	0	2	ml	2.7.3	lorasick	sub-06_ses-02_task-ml_proj-lorasick_2020-12-11-14-04-56.373516
57	6	2	2	58	stable	1	200	58	sv	red	blue	red	blue	left	right	0.7	0.30000000000000004	2	2	1.4	0.6000000000000001	1	0	0.7	0.30000000000000004	2	2	1.4	0.6000000000000001	valid	0.3832430250004109	51200	0	0	1	51200	1	51200	1	53248	0	0.7	51200	red	blue	1	2	ml	2.7.3	lorasick	sub-06_ses-02_task-ml_proj-lorasick_2020-12-11-14-04-56.373516
58	6	2	2	59	stable	1	200	59	sv	red	blue	red	blue	left	right	0.7	0.30000000000000004	10	2	7.0	0.6000000000000001	0	1	0.7	0.30000000000000004	10	2	7.0	0.6000000000000001	invalid	0.3665864909999073	51200	0	0	1	51200	1	51200	1	51200	1	0.7	51200	red	blue	1	0	ml	2.7.3	lorasick	sub-06_ses-02_task-ml_proj-lorasick_2020-12-11-14-04-56.373516
59	6	2	2	60	stable	1	200	60	sv	blue	red	red	blue	right	left	0.7	0.30000000000000004	2	10	1.4	3.0000000000000004	1	0	0.30000000000000004	0.7	10	2	3.0000000000000004	1.4	valid	0.4165827179986081	53248	0	1	1	51200	0	53248	1	51200	0	0.7	53248	red	blue	0	2	ml	2.7.3	lorasick	sub-06_ses-02_task-ml_proj-lorasick_2020-12-11-14-04-56.373516
60	6	2	2	61	stable	1	200	61	sv	blue	red	red	blue	right	left	0.7	0.30000000000000004	4	2	2.8	0.6000000000000001	1	0	0.30000000000000004	0.7	2	4	0.6000000000000001	2.8	valid	0.4998933340011718	53248	0	1	1	53248	1	53248	1	53248	1	0.7	53248	red	blue	1	4	ml	2.7.3	lorasick	sub-06_ses-02_task-ml_proj-lorasick_2020-12-11-14-04-56.373516
61	6	2	2	62	stable	1	200	62	sv	red	blue	red	blue	left	right	0.7	0.30000000000000004	6	2	4.199999999999998	0.6000000000000001	1	0	0.7	0.30000000000000004	6	2	4.199999999999998	0.6000000000000001	valid	0.4498972540004616	51200	0	0	1	51200	1	51200	1	51200	1	0.7	51200	red	blue	1	6	ml	2.7.3	lorasick	sub-06_ses-02_task-ml_proj-lorasick_2020-12-11-14-04-56.373516
62	6	2	2	63	stable	1	200	63	sv	red	blue	red	blue	left	right	0.7	0.30000000000000004	6	4	4.199999999999998	1.2000000000000002	1	0	0.7	0.30000000000000004	6	4	4.199999999999998	1.2000000000000002	valid	0.4665624799999932	51200	0	0	1	51200	1	51200	1	51200	1	0.7	51200	red	blue	1	6	ml	2.7.3	lorasick	sub-06_ses-02_task-ml_proj-lorasick_2020-12-11-14-04-56.373516
63	6	2	2	64	stable	1	200	64	sv	blue	red	red	blue	right	left	0.7	0.30000000000000004	2	10	1.4	3.0000000000000004	1	0	0.30000000000000004	0.7	10	2	3.0000000000000004	1.4	valid	1.0164057809997755	51200	0	0	2	51200	1	53248	0	51200	1	0.7	53248	red	blue	0	0	ml	2.7.3	lorasick	sub-06_ses-02_task-ml_proj-lorasick_2020-12-11-14-04-56.373516
64	6	2	2	65	stable	1	200	65	sv	blue	red	red	blue	right	left	0.7	0.30000000000000004	10	2	7.0	0.6000000000000001	1	0	0.30000000000000004	0.7	2	10	0.6000000000000001	7.0	valid	0.5165559410015703	53248	0	1	1	53248	1	53248	1	53248	1	0.7	53248	red	blue	1	10	ml	2.7.3	lorasick	sub-06_ses-02_task-ml_proj-lorasick_2020-12-11-14-04-56.373516
65	6	2	2	66	stable	1	200	66	sv	blue	red	red	blue	right	left	0.7	0.30000000000000004	6	6	4.199999999999998	1.8000000000000005	1	0	0.30000000000000004	0.7	6	6	1.8000000000000005	4.199999999999998	valid	0.38325871199958783	53248	0	1	1	53248	1	53248	1	53248	1	0.7	53248	red	blue	0	6	ml	2.7.3	lorasick	sub-06_ses-02_task-ml_proj-lorasick_2020-12-11-14-04-56.373516
66	6	2	2	67	stable	1	200	67	sv	blue	red	red	blue	right	left	0.7	0.30000000000000004	4	6	2.8	1.8000000000000005	1	0	0.30000000000000004	0.7	6	4	1.8000000000000005	2.8	valid	0.4832295039996097	53248	0	1	1	53248	1	53248	1	51200	0	0.7	53248	red	blue	0	4	ml	2.7.3	lorasick	sub-06_ses-02_task-ml_proj-lorasick_2020-12-11-14-04-56.373516
67	6	2	2	68	stable	1	200	68	sv	red	blue	red	blue	left	right	0.7	0.30000000000000004	2	10	1.4	3.0000000000000004	1	0	0.7	0.30000000000000004	2	10	1.4	3.0000000000000004	valid	0.8664539690016682	53248	0	1	2	53248	1	51200	0	53248	1	0.7	51200	red	blue	0	0	ml	2.7.3	lorasick	sub-06_ses-02_task-ml_proj-lorasick_2020-12-11-14-04-56.373516
68	6	2	2	69	stable	1	200	69	sv	blue	red	red	blue	right	left	0.7	0.30000000000000004	4	6	2.8	1.8000000000000005	1	0	0.30000000000000004	0.7	6	4	1.8000000000000005	2.8	valid	0.4832391890013241	53248	0	1	1	53248	1	53248	1	51200	0	0.7	53248	red	blue	0	4	ml	2.7.3	lorasick	sub-06_ses-02_task-ml_proj-lorasick_2020-12-11-14-04-56.373516
69	6	2	2	70	stable	1	200	70	sv	blue	red	red	blue	right	left	0.7	0.30000000000000004	6	2	4.199999999999998	0.6000000000000001	1	0	0.30000000000000004	0.7	2	6	0.6000000000000001	4.199999999999998	valid	0.3832586749995244	53248	0	1	1	53248	1	53248	1	53248	1	0.7	53248	red	blue	1	6	ml	2.7.3	lorasick	sub-06_ses-02_task-ml_proj-lorasick_2020-12-11-14-04-56.373516
70	6	2	2	71	stable	1	200	71	sv	red	blue	red	blue	left	right	0.7	0.30000000000000004	2	2	1.4	0.6000000000000001	1	0	0.7	0.30000000000000004	2	2	1.4	0.6000000000000001	valid	0.8331189669988817	51200	0	0	1	51200	1	51200	1	53248	0	0.7	51200	red	blue	1	2	ml	2.7.3	lorasick	sub-06_ses-02_task-ml_proj-lorasick_2020-12-11-14-04-56.373516
71	6	2	2	72	stable	1	200	72	sv	red	blue	red	blue	left	right	0.7	0.30000000000000004	2	10	1.4	3.0000000000000004	1	0	0.7	0.30000000000000004	2	10	1.4	3.0000000000000004	valid	0.4832217359999049	51200	0	0	1	53248	0	51200	1	53248	0	0.7	51200	red	blue	0	2	ml	2.7.3	lorasick	sub-06_ses-02_task-ml_proj-lorasick_2020-12-11-14-04-56.373516
72	6	2	2	73	stable	1	200	73	sv	blue	red	red	blue	right	left	0.7	0.30000000000000004	2	10	1.4	3.0000000000000004	1	0	0.30000000000000004	0.7	10	2	3.0000000000000004	1.4	valid	1.033060657999158	51200	0	0	2	51200	1	53248	0	51200	1	0.7	53248	red	blue	0	0	ml	2.7.3	lorasick	sub-06_ses-02_task-ml_proj-lorasick_2020-12-11-14-04-56.373516
73	6	2	2	74	stable	1	200	74	sv	red	blue	red	blue	left	right	0.7	0.30000000000000004	6	4	4.199999999999998	1.2000000000000002	1	0	0.7	0.30000000000000004	6	4	4.199999999999998	1.2000000000000002	valid	0.5165499409995391	51200	0	0	1	51200	1	51200	1	51200	1	0.7	51200	red	blue	1	6	ml	2.7.3	lorasick	sub-06_ses-02_task-ml_proj-lorasick_2020-12-11-14-04-56.373516
74	6	2	2	75	stable	1	200	75	sv	blue	red	red	blue	right	left	0.7	0.30000000000000004	6	4	4.199999999999998	1.2000000000000002	1	0	0.30000000000000004	0.7	4	6	1.2000000000000002	4.199999999999998	valid	0.3666004489987245	53248	0	1	1	53248	1	53248	1	53248	1	0.7	53248	red	blue	1	6	ml	2.7.3	lorasick	sub-06_ses-02_task-ml_proj-lorasick_2020-12-11-14-04-56.373516
75	6	2	2	76	stable	1	200	76	sv	blue	red	red	blue	right	left	0.7	0.30000000000000004	2	4	1.4	1.2000000000000002	1	0	0.30000000000000004	0.7	4	2	1.2000000000000002	1.4	valid	0.34994346299936296	53248	0	1	1	53248	1	53248	1	51200	0	0.7	53248	red	blue	0	2	ml	2.7.3	lorasick	sub-06_ses-02_task-ml_proj-lorasick_2020-12-11-14-04-56.373516
76	6	2	2	77	stable	1	200	77	sv	blue	red	red	blue	right	left	0.7	0.30000000000000004	2	10	1.4	3.0000000000000004	0	1	0.30000000000000004	0.7	10	2	3.0000000000000004	1.4	invalid	1.0664200279989018	53248	0	1	1	51200	0	53248	1	51200	0	0.7	53248	red	blue	0	0	ml	2.7.3	lorasick	sub-06_ses-02_task-ml_proj-lorasick_2020-12-11-14-04-56.373516
77	6	2	2	78	stable	1	200	78	sv	blue	red	red	blue	right	left	0.7	0.30000000000000004	6	4	4.199999999999998	1.2000000000000002	0	1	0.30000000000000004	0.7	4	6	1.2000000000000002	4.199999999999998	invalid	0.6165124449998984	51200	0	0	2	53248	0	53248	0	53248	0	0.7	53248	red	blue	1	4	ml	2.7.3	lorasick	sub-06_ses-02_task-ml_proj-lorasick_2020-12-11-14-04-56.373516
78	6	2	2	79	stable	1	200	79	sv	red	blue	red	blue	left	right	0.7	0.30000000000000004	6	4	4.199999999999998	1.2000000000000002	0	1	0.7	0.30000000000000004	6	4	4.199999999999998	1.2000000000000002	invalid	0.3832602660004341	53248	0	1	2	51200	0	51200	0	51200	0	0.7	51200	red	blue	1	4	ml	2.7.3	lorasick	sub-06_ses-02_task-ml_proj-lorasick_2020-12-11-14-04-56.373516
79	6	2	2	80	stable	1	200	80	sv	red	blue	red	blue	left	right	0.7	0.30000000000000004	6	4	4.199999999999998	1.2000000000000002	1	0	0.7	0.30000000000000004	6	4	4.199999999999998	1.2000000000000002	valid	0.4332384220015229	53248	0	1	2	51200	0	51200	0	51200	0	0.7	51200	red	blue	1	0	ml	2.7.3	lorasick	sub-06_ses-02_task-ml_proj-lorasick_2020-12-11-14-04-56.373516
80	6	2	2	81	stable	1	200	81	sv	blue	red	red	blue	right	left	0.7	0.30000000000000004	6	4	4.199999999999998	1.2000000000000002	0	1	0.30000000000000004	0.7	4	6	1.2000000000000002	4.199999999999998	invalid	0.3999110169988853	51200	0	0	2	53248	0	53248	0	53248	0	0.7	53248	red	blue	1	4	ml	2.7.3	lorasick	sub-06_ses-02_task-ml_proj-lorasick_2020-12-11-14-04-56.373516
81	6	2	2	82	stable	1	200	82	sv	red	blue	red	blue	left	right	0.7	0.30000000000000004	2	2	1.4	0.6000000000000001	1	0	0.7	0.30000000000000004	2	2	1.4	0.6000000000000001	valid	0.33327506800014817	53248	0	1	2	51200	0	51200	0	53248	1	0.7	51200	red	blue	1	0	ml	2.7.3	lorasick	sub-06_ses-02_task-ml_proj-lorasick_2020-12-11-14-04-56.373516
82	6	2	2	83	stable	1	200	83	sv	blue	red	red	blue	right	left	0.7	0.30000000000000004	4	2	2.8	0.6000000000000001	0	1	0.30000000000000004	0.7	2	4	0.6000000000000001	2.8	invalid	0.4165750009997282	51200	0	0	2	53248	0	53248	0	53248	0	0.7	53248	red	blue	1	2	ml	2.7.3	lorasick	sub-06_ses-02_task-ml_proj-lorasick_2020-12-11-14-04-56.373516
83	6	2	2	84	stable	1	200	84	sv	blue	red	red	blue	right	left	0.7	0.30000000000000004	4	6	2.8	1.8000000000000005	1	0	0.30000000000000004	0.7	6	4	1.8000000000000005	2.8	valid	0.43323641999995743	51200	0	0	2	53248	0	53248	0	51200	1	0.7	53248	red	blue	0	0	ml	2.7.3	lorasick	sub-06_ses-02_task-ml_proj-lorasick_2020-12-11-14-04-56.373516
84	6	2	2	85	stable	1	200	85	sv	red	blue	red	blue	left	right	0.7	0.30000000000000004	2	4	1.4	1.2000000000000002	1	0	0.7	0.30000000000000004	2	4	1.4	1.2000000000000002	valid	0.3999211230002402	53248	0	1	2	51200	0	51200	0	53248	1	0.7	51200	red	blue	0	0	ml	2.7.3	lorasick	sub-06_ses-02_task-ml_proj-lorasick_2020-12-11-14-04-56.373516
85	6	2	2	86	stable	1	200	86	sv	blue	red	red	blue	right	left	0.7	0.30000000000000004	6	2	4.199999999999998	0.6000000000000001	0	1	0.30000000000000004	0.7	2	6	0.6000000000000001	4.199999999999998	invalid	0.8164680429999862	53248	0	1	1	53248	1	53248	1	53248	1	0.7	53248	red	blue	1	0	ml	2.7.3	lorasick	sub-06_ses-02_task-ml_proj-lorasick_2020-12-11-14-04-56.373516
86	6	2	2	87	stable	1	200	87	sv	red	blue	red	blue	left	right	0.7	0.30000000000000004	4	6	2.8	1.8000000000000005	1	0	0.7	0.30000000000000004	4	6	2.8	1.8000000000000005	valid	0.5831952570006251	53248	0	1	2	51200	0	51200	0	53248	1	0.7	51200	red	blue	0	0	ml	2.7.3	lorasick	sub-06_ses-02_task-ml_proj-lorasick_2020-12-11-14-04-56.373516
87	6	2	2	88	stable	1	200	88	sv	red	blue	red	blue	left	right	0.7	0.30000000000000004	10	2	7.0	0.6000000000000001	1	0	0.7	0.30000000000000004	10	2	7.0	0.6000000000000001	valid	0.5165447350009345	51200	0	0	1	51200	1	51200	1	51200	1	0.7	51200	red	blue	1	10	ml	2.7.3	lorasick	sub-06_ses-02_task-ml_proj-lorasick_2020-12-11-14-04-56.373516
88	6	2	2	89	stable	1	200	89	sv	blue	red	red	blue	right	left	0.7	0.30000000000000004	2	10	1.4	3.0000000000000004	0	1	0.30000000000000004	0.7	10	2	3.0000000000000004	1.4	invalid	0.43323468699964	51200	0	0	2	51200	1	53248	0	51200	1	0.7	53248	red	blue	0	10	ml	2.7.3	lorasick	sub-06_ses-02_task-ml_proj-lorasick_2020-12-11-14-04-56.373516
89	6	2	2	90	stable	1	200	90	sv	red	blue	red	blue	left	right	0.7	0.30000000000000004	4	6	2.8	1.8000000000000005	1	0	0.7	0.30000000000000004	4	6	2.8	1.8000000000000005	valid	0.5332190129993251	53248	0	1	2	51200	0	51200	0	53248	1	0.7	51200	red	blue	0	0	ml	2.7.3	lorasick	sub-06_ses-02_task-ml_proj-lorasick_2020-12-11-14-04-56.373516
90	6	2	2	91	stable	1	200	91	sv	blue	red	red	blue	right	left	0.7	0.30000000000000004	2	6	1.4	1.8000000000000005	1	0	0.30000000000000004	0.7	6	2	1.8000000000000005	1.4	valid	0.4832200490000105	51200	0	0	2	51200	1	53248	0	51200	1	0.7	53248	red	blue	0	0	ml	2.7.3	lorasick	sub-06_ses-02_task-ml_proj-lorasick_2020-12-11-14-04-56.373516
91	6	2	2	92	stable	1	200	92	sv	red	blue	red	blue	left	right	0.7	0.30000000000000004	2	6	1.4	1.8000000000000005	1	0	0.7	0.30000000000000004	2	6	1.4	1.8000000000000005	valid	0.6665073969998048	53248	0	1	2	53248	1	51200	0	53248	1	0.7	51200	red	blue	0	0	ml	2.7.3	lorasick	sub-06_ses-02_task-ml_proj-lorasick_2020-12-11-14-04-56.373516
92	6	2	2	93	stable	1	200	93	sv	red	blue	red	blue	left	right	0.7	0.30000000000000004	2	4	1.4	1.2000000000000002	1	0	0.7	0.30000000000000004	2	4	1.4	1.2000000000000002	valid	0.499880868001128	51200	0	0	1	51200	1	51200	1	53248	0	0.7	51200	red	blue	0	2	ml	2.7.3	lorasick	sub-06_ses-02_task-ml_proj-lorasick_2020-12-11-14-04-56.373516
93	6	2	2	94	stable	1	200	94	sv	red	blue	red	blue	left	right	0.7	0.30000000000000004	4	6	2.8	1.8000000000000005	0	1	0.7	0.30000000000000004	4	6	2.8	1.8000000000000005	invalid	0.3999148430011701	51200	0	0	1	51200	1	51200	1	53248	0	0.7	51200	red	blue	0	0	ml	2.7.3	lorasick	sub-06_ses-02_task-ml_proj-lorasick_2020-12-11-14-04-56.373516
94	6	2	2	95	stable	1	200	95	sv	red	blue	red	blue	left	right	0.7	0.30000000000000004	6	2	4.199999999999998	0.6000000000000001	0	1	0.7	0.30000000000000004	6	2	4.199999999999998	0.6000000000000001	invalid	0.41657468899938976	51200	0	0	1	51200	1	51200	1	51200	1	0.7	51200	red	blue	1	0	ml	2.7.3	lorasick	sub-06_ses-02_task-ml_proj-lorasick_2020-12-11-14-04-56.373516
95	6	2	2	96	stable	1	200	96	sv	red	blue	red	blue	left	right	0.7	0.30000000000000004	6	6	4.199999999999998	1.8000000000000005	0	1	0.7	0.30000000000000004	6	6	4.199999999999998	1.8000000000000005	invalid	0.3665987669992319	53248	0	1	2	51200	0	51200	0	53248	1	0.7	51200	red	blue	1	6	ml	2.7.3	lorasick	sub-06_ses-02_task-ml_proj-lorasick_2020-12-11-14-04-56.373516
96	6	2	2	97	stable	1	200	97	sv	blue	red	red	blue	right	left	0.7	0.30000000000000004	2	4	1.4	1.2000000000000002	1	0	0.30000000000000004	0.7	4	2	1.2000000000000002	1.4	valid	0.4332349520009302	51200	0	0	2	53248	0	53248	0	51200	1	0.7	53248	red	blue	0	0	ml	2.7.3	lorasick	sub-06_ses-02_task-ml_proj-lorasick_2020-12-11-14-04-56.373516
97	6	2	2	98	stable	1	200	98	sv	red	blue	red	blue	left	right	0.7	0.30000000000000004	2	10	1.4	3.0000000000000004	0	1	0.7	0.30000000000000004	2	10	1.4	3.0000000000000004	invalid	0.4332417039986467	53248	0	1	2	53248	1	51200	0	53248	1	0.7	51200	red	blue	0	10	ml	2.7.3	lorasick	sub-06_ses-02_task-ml_proj-lorasick_2020-12-11-14-04-56.373516
98	6	2	2	99	stable	1	200	99	sv	blue	red	red	blue	right	left	0.7	0.30000000000000004	4	6	2.8	1.8000000000000005	1	0	0.30000000000000004	0.7	6	4	1.8000000000000005	2.8	valid	0.41657770500023616	51200	0	0	2	53248	0	53248	0	51200	1	0.7	53248	red	blue	0	0	ml	2.7.3	lorasick	sub-06_ses-02_task-ml_proj-lorasick_2020-12-11-14-04-56.373516
99	6	2	2	100	stable	1	200	100	sv	blue	red	red	blue	right	left	0.7	0.30000000000000004	6	2	4.199999999999998	0.6000000000000001	1	0	0.30000000000000004	0.7	2	6	0.6000000000000001	4.199999999999998	valid	0.5831978189999063	53248	0	1	1	53248	1	53248	1	53248	1	0.7	53248	red	blue	1	6	ml	2.7.3	lorasick	sub-06_ses-02_task-ml_proj-lorasick_2020-12-11-14-04-56.373516
100	6	2	3	101	stable	1	200	101	sv	blue	red	red	blue	right	left	0.7	0.30000000000000004	6	2	4.199999999999998	0.6000000000000001	0	1	0.30000000000000004	0.7	2	6	0.6000000000000001	4.199999999999998	invalid	0.5498781730002521	53248	0	1	1	53248	1	53248	1	53248	1	0.7	53248	red	blue	1	0	ml	2.7.3	lorasick	sub-06_ses-02_task-ml_proj-lorasick_2020-12-11-14-04-56.373516
101	6	2	3	102	stable	1	200	102	sv	red	blue	red	blue	left	right	0.7	0.30000000000000004	6	2	4.199999999999998	0.6000000000000001	0	1	0.7	0.30000000000000004	6	2	4.199999999999998	0.6000000000000001	invalid	0.5165564520011685	53248	0	1	2	51200	0	51200	0	51200	0	0.7	51200	red	blue	1	2	ml	2.7.3	lorasick	sub-06_ses-02_task-ml_proj-lorasick_2020-12-11-14-04-56.373516
102	6	2	3	103	stable	1	200	103	sv	blue	red	red	blue	right	left	0.7	0.30000000000000004	6	4	4.199999999999998	1.2000000000000002	1	0	0.30000000000000004	0.7	4	6	1.2000000000000002	4.199999999999998	valid	0.3665874199996324	51200	0	0	2	53248	0	53248	0	53248	0	0.7	53248	red	blue	1	0	ml	2.7.3	lorasick	sub-06_ses-02_task-ml_proj-lorasick_2020-12-11-14-04-56.373516
103	6	2	3	104	stable	1	200	104	sv	red	blue	red	blue	left	right	0.7	0.30000000000000004	6	2	4.199999999999998	0.6000000000000001	1	0	0.7	0.30000000000000004	6	2	4.199999999999998	0.6000000000000001	valid	0.3665909899991675	53248	0	1	2	51200	0	51200	0	51200	0	0.7	51200	red	blue	1	0	ml	2.7.3	lorasick	sub-06_ses-02_task-ml_proj-lorasick_2020-12-11-14-04-56.373516
104	6	2	3	105	stable	1	200	105	sv	blue	red	red	blue	right	left	0.7	0.30000000000000004	6	2	4.199999999999998	0.6000000000000001	1	0	0.30000000000000004	0.7	2	6	0.6000000000000001	4.199999999999998	valid	0.3499312439998903	53248	0	1	1	53248	1	53248	1	53248	1	0.7	53248	red	blue	1	6	ml	2.7.3	lorasick	sub-06_ses-02_task-ml_proj-lorasick_2020-12-11-14-04-56.373516
105	6	2	3	106	stable	1	200	106	sv	red	blue	red	blue	left	right	0.7	0.30000000000000004	4	6	2.8	1.8000000000000005	1	0	0.7	0.30000000000000004	4	6	2.8	1.8000000000000005	valid	0.349927454999488	51200	0	0	1	51200	1	51200	1	53248	0	0.7	51200	red	blue	0	4	ml	2.7.3	lorasick	sub-06_ses-02_task-ml_proj-lorasick_2020-12-11-14-04-56.373516
106	6	2	3	107	stable	1	200	107	sv	red	blue	red	blue	left	right	0.7	0.30000000000000004	2	6	1.4	1.8000000000000005	1	0	0.7	0.30000000000000004	2	6	1.4	1.8000000000000005	valid	0.6498414050001884	53248	0	1	2	53248	1	51200	0	53248	1	0.7	51200	red	blue	0	0	ml	2.7.3	lorasick	sub-06_ses-02_task-ml_proj-lorasick_2020-12-11-14-04-56.373516
107	6	2	3	108	stable	1	200	108	sv	red	blue	red	blue	left	right	0.7	0.30000000000000004	4	2	2.8	0.6000000000000001	0	1	0.7	0.30000000000000004	4	2	2.8	0.6000000000000001	invalid	0.3832505730006233	51200	0	0	1	51200	1	51200	1	51200	1	0.7	51200	red	blue	1	0	ml	2.7.3	lorasick	sub-06_ses-02_task-ml_proj-lorasick_2020-12-11-14-04-56.373516
108	6	2	3	109	stable	1	200	109	sv	red	blue	red	blue	left	right	0.7	0.30000000000000004	4	2	2.8	0.6000000000000001	1	0	0.7	0.30000000000000004	4	2	2.8	0.6000000000000001	valid	0.5165527259996452	51200	0	0	1	51200	1	51200	1	51200	1	0.7	51200	red	blue	1	4	ml	2.7.3	lorasick	sub-06_ses-02_task-ml_proj-lorasick_2020-12-11-14-04-56.373516
109	6	2	3	110	stable	1	200	110	sv	red	blue	red	blue	left	right	0.7	0.30000000000000004	6	6	4.199999999999998	1.8000000000000005	0	1	0.7	0.30000000000000004	6	6	4.199999999999998	1.8000000000000005	invalid	0.4998816260012973	51200	0	0	1	51200	1	51200	1	53248	0	0.7	51200	red	blue	1	0	ml	2.7.3	lorasick	sub-06_ses-02_task-ml_proj-lorasick_2020-12-11-14-04-56.373516
110	6	2	3	111	stable	1	200	111	sv	blue	red	red	blue	right	left	0.7	0.30000000000000004	2	4	1.4	1.2000000000000002	0	1	0.30000000000000004	0.7	4	2	1.2000000000000002	1.4	invalid	0.4832305629988696	53248	0	1	1	53248	1	53248	1	51200	0	0.7	53248	red	blue	0	0	ml	2.7.3	lorasick	sub-06_ses-02_task-ml_proj-lorasick_2020-12-11-14-04-56.373516
111	6	2	3	112	stable	1	200	112	sv	red	blue	red	blue	left	right	0.7	0.30000000000000004	6	2	4.199999999999998	0.6000000000000001	1	0	0.7	0.30000000000000004	6	2	4.199999999999998	0.6000000000000001	valid	0.48322837700106896	53248	0	1	2	51200	0	51200	0	51200	0	0.7	51200	red	blue	1	0	ml	2.7.3	lorasick	sub-06_ses-02_task-ml_proj-lorasick_2020-12-11-14-04-56.373516
112	6	2	3	113	stable	1	200	113	sv	red	blue	red	blue	left	right	0.7	0.30000000000000004	2	10	1.4	3.0000000000000004	1	0	0.7	0.30000000000000004	2	10	1.4	3.0000000000000004	valid	0.5498789230005059	53248	0	1	2	53248	1	51200	0	53248	1	0.7	51200	red	blue	0	0	ml	2.7.3	lorasick	sub-06_ses-02_task-ml_proj-lorasick_2020-12-11-14-04-56.373516
113	6	2	3	114	stable	1	200	114	sv	blue	red	red	blue	right	left	0.7	0.30000000000000004	2	2	1.4	0.6000000000000001	0	1	0.30000000000000004	0.7	2	2	0.6000000000000001	1.4	invalid	0.4998811909990764	51200	0	0	2	53248	0	53248	0	53248	0	0.7	53248	red	blue	0	2	ml	2.7.3	lorasick	sub-06_ses-02_task-ml_proj-lorasick_2020-12-11-14-04-56.373516
114	6	2	3	115	stable	1	200	115	sv	red	blue	red	blue	left	right	0.7	0.30000000000000004	10	2	7.0	0.6000000000000001	1	0	0.7	0.30000000000000004	10	2	7.0	0.6000000000000001	valid	0.5332171790014401	53248	0	1	2	51200	0	51200	0	51200	0	0.7	51200	red	blue	1	0	ml	2.7.3	lorasick	sub-06_ses-02_task-ml_proj-lorasick_2020-12-11-14-04-56.373516
115	6	2	3	116	stable	1	200	116	sv	blue	red	red	blue	right	left	0.7	0.30000000000000004	6	2	4.199999999999998	0.6000000000000001	1	0	0.30000000000000004	0.7	2	6	0.6000000000000001	4.199999999999998	valid	0.4499066769985802	53248	0	1	1	53248	1	53248	1	53248	1	0.7	53248	red	blue	1	6	ml	2.7.3	lorasick	sub-06_ses-02_task-ml_proj-lorasick_2020-12-11-14-04-56.373516
116	6	2	3	117	stable	1	200	117	sv	red	blue	red	blue	left	right	0.7	0.30000000000000004	6	4	4.199999999999998	1.2000000000000002	1	0	0.7	0.30000000000000004	6	4	4.199999999999998	1.2000000000000002	valid	0.4165720390010392	51200	0	0	1	51200	1	51200	1	51200	1	0.7	51200	red	blue	1	6	ml	2.7.3	lorasick	sub-06_ses-02_task-ml_proj-lorasick_2020-12-11-14-04-56.373516
117	6	2	3	118	stable	1	200	118	sv	red	blue	red	blue	left	right	0.7	0.30000000000000004	2	2	1.4	0.6000000000000001	0	1	0.7	0.30000000000000004	2	2	1.4	0.6000000000000001	invalid	0.5332041199999367	51200	0	0	1	51200	1	51200	1	53248	0	0.7	51200	red	blue	1	0	ml	2.7.3	lorasick	sub-06_ses-02_task-ml_proj-lorasick_2020-12-11-14-04-56.373516
118	6	2	3	119	stable	1	200	119	sv	red	blue	red	blue	left	right	0.7	0.30000000000000004	2	4	1.4	1.2000000000000002	1	0	0.7	0.30000000000000004	2	4	1.4	1.2000000000000002	valid	0.3665875789993152	51200	0	0	1	51200	1	51200	1	53248	0	0.7	51200	red	blue	0	2	ml	2.7.3	lorasick	sub-06_ses-02_task-ml_proj-lorasick_2020-12-11-14-04-56.373516
119	6	2	3	120	stable	1	200	120	sv	red	blue	red	blue	left	right	0.7	0.30000000000000004	6	2	4.199999999999998	0.6000000000000001	1	0	0.7	0.30000000000000004	6	2	4.199999999999998	0.6000000000000001	valid	0.3832475170001999	51200	0	0	1	51200	1	51200	1	51200	1	0.7	51200	red	blue	1	6	ml	2.7.3	lorasick	sub-06_ses-02_task-ml_proj-lorasick_2020-12-11-14-04-56.373516
120	6	2	3	121	stable	1	200	121	sv	red	blue	red	blue	left	right	0.7	0.30000000000000004	2	4	1.4	1.2000000000000002	1	0	0.7	0.30000000000000004	2	4	1.4	1.2000000000000002	valid	0.499884466000367	51200	0	0	1	51200	1	51200	1	53248	0	0.7	51200	red	blue	0	2	ml	2.7.3	lorasick	sub-06_ses-02_task-ml_proj-lorasick_2020-12-11-14-04-56.373516
121	6	2	3	122	stable	1	200	122	sv	red	blue	red	blue	left	right	0.7	0.30000000000000004	2	6	1.4	1.8000000000000005	0	1	0.7	0.30000000000000004	2	6	1.4	1.8000000000000005	invalid	0.44989838499896	51200	0	0	1	53248	0	51200	1	53248	0	0.7	51200	red	blue	0	0	ml	2.7.3	lorasick	sub-06_ses-02_task-ml_proj-lorasick_2020-12-11-14-04-56.373516
122	6	2	3	123	stable	1	200	123	sv	red	blue	red	blue	left	right	0.7	0.30000000000000004	2	6	1.4	1.8000000000000005	1	0	0.7	0.30000000000000004	2	6	1.4	1.8000000000000005	valid	0.5498708949999127	51200	0	0	1	53248	0	51200	1	53248	0	0.7	51200	red	blue	0	2	ml	2.7.3	lorasick	sub-06_ses-02_task-ml_proj-lorasick_2020-12-11-14-04-56.373516
123	6	2	3	124	stable	1	200	124	sv	blue	red	red	blue	right	left	0.7	0.30000000000000004	4	6	2.8	1.8000000000000005	1	0	0.30000000000000004	0.7	6	4	1.8000000000000005	2.8	valid	0.4332446150001488	53248	0	1	1	53248	1	53248	1	51200	0	0.7	53248	red	blue	0	4	ml	2.7.3	lorasick	sub-06_ses-02_task-ml_proj-lorasick_2020-12-11-14-04-56.373516
124	6	2	3	125	stable	1	200	125	sv	blue	red	red	blue	right	left	0.7	0.30000000000000004	6	6	4.199999999999998	1.8000000000000005	1	0	0.30000000000000004	0.7	6	6	1.8000000000000005	4.199999999999998	valid	0.5498765039992577	53248	0	1	1	53248	1	53248	1	53248	1	0.7	53248	red	blue	0	6	ml	2.7.3	lorasick	sub-06_ses-02_task-ml_proj-lorasick_2020-12-11-14-04-56.373516
125	6	2	3	126	stable	1	200	126	sv	red	blue	red	blue	left	right	0.7	0.30000000000000004	2	2	1.4	0.6000000000000001	1	0	0.7	0.30000000000000004	2	2	1.4	0.6000000000000001	valid	0.5498658220003563	51200	0	0	1	51200	1	51200	1	53248	0	0.7	51200	red	blue	1	2	ml	2.7.3	lorasick	sub-06_ses-02_task-ml_proj-lorasick_2020-12-11-14-04-56.373516
126	6	2	3	127	stable	1	200	127	sv	blue	red	red	blue	right	left	0.7	0.30000000000000004	6	6	4.199999999999998	1.8000000000000005	1	0	0.30000000000000004	0.7	6	6	1.8000000000000005	4.199999999999998	valid	0.8497876279998309	53248	0	1	1	53248	1	53248	1	53248	1	0.7	53248	red	blue	0	6	ml	2.7.3	lorasick	sub-06_ses-02_task-ml_proj-lorasick_2020-12-11-14-04-56.373516
127	6	2	3	128	stable	1	200	128	sv	blue	red	red	blue	right	left	0.7	0.30000000000000004	6	6	4.199999999999998	1.8000000000000005	1	0	0.30000000000000004	0.7	6	6	1.8000000000000005	4.199999999999998	valid	0.483232048998616	53248	0	1	1	53248	1	53248	1	53248	1	0.7	53248	red	blue	0	6	ml	2.7.3	lorasick	sub-06_ses-02_task-ml_proj-lorasick_2020-12-11-14-04-56.373516
128	6	2	3	129	stable	1	200	129	sv	blue	red	red	blue	right	left	0.7	0.30000000000000004	2	2	1.4	0.6000000000000001	0	1	0.30000000000000004	0.7	2	2	0.6000000000000001	1.4	invalid	0.5165564520011685	53248	0	1	1	53248	1	53248	1	53248	1	0.7	53248	red	blue	0	0	ml	2.7.3	lorasick	sub-06_ses-02_task-ml_proj-lorasick_2020-12-11-14-04-56.373516
129	6	2	3	130	stable	1	200	130	sv	blue	red	red	blue	right	left	0.7	0.30000000000000004	6	6	4.199999999999998	1.8000000000000005	1	0	0.30000000000000004	0.7	6	6	1.8000000000000005	4.199999999999998	valid	0.4332479469994723	53248	0	1	1	53248	1	53248	1	53248	1	0.7	53248	red	blue	0	6	ml	2.7.3	lorasick	sub-06_ses-02_task-ml_proj-lorasick_2020-12-11-14-04-56.373516
130	6	2	3	131	stable	1	200	131	sv	blue	red	red	blue	right	left	0.7	0.30000000000000004	6	2	4.199999999999998	0.6000000000000001	0	1	0.30000000000000004	0.7	2	6	0.6000000000000001	4.199999999999998	invalid	0.3499357220007369	53248	0	1	1	53248	1	53248	1	53248	1	0.7	53248	red	blue	1	0	ml	2.7.3	lorasick	sub-06_ses-02_task-ml_proj-lorasick_2020-12-11-14-04-56.373516
131	6	2	3	132	stable	1	200	132	sv	red	blue	red	blue	left	right	0.7	0.30000000000000004	6	6	4.199999999999998	1.8000000000000005	0	1	0.7	0.30000000000000004	6	6	4.199999999999998	1.8000000000000005	invalid	0.5831895629999053	51200	0	0	1	51200	1	51200	1	53248	0	0.7	51200	red	blue	1	0	ml	2.7.3	lorasick	sub-06_ses-02_task-ml_proj-lorasick_2020-12-11-14-04-56.373516
132	6	2	3	133	stable	1	200	133	sv	red	blue	red	blue	left	right	0.7	0.30000000000000004	2	4	1.4	1.2000000000000002	1	0	0.7	0.30000000000000004	2	4	1.4	1.2000000000000002	valid	0.4832175699993968	51200	0	0	1	51200	1	51200	1	53248	0	0.7	51200	red	blue	0	2	ml	2.7.3	lorasick	sub-06_ses-02_task-ml_proj-lorasick_2020-12-11-14-04-56.373516
133	6	2	3	134	stable	1	200	134	sv	red	blue	red	blue	left	right	0.7	0.30000000000000004	6	4	4.199999999999998	1.2000000000000002	0	1	0.7	0.30000000000000004	6	4	4.199999999999998	1.2000000000000002	invalid	0.416576243000236	51200	0	0	1	51200	1	51200	1	51200	1	0.7	51200	red	blue	1	0	ml	2.7.3	lorasick	sub-06_ses-02_task-ml_proj-lorasick_2020-12-11-14-04-56.373516
134	6	2	3	135	stable	1	200	135	sv	red	blue	red	blue	left	right	0.7	0.30000000000000004	4	2	2.8	0.6000000000000001	1	0	0.7	0.30000000000000004	4	2	2.8	0.6000000000000001	valid	0.5498788650002098	53248	0	1	2	51200	0	51200	0	51200	0	0.7	51200	red	blue	1	0	ml	2.7.3	lorasick	sub-06_ses-02_task-ml_proj-lorasick_2020-12-11-14-04-56.373516
135	6	2	3	136	stable	1	200	136	sv	blue	red	red	blue	right	left	0.7	0.30000000000000004	6	4	4.199999999999998	1.2000000000000002	1	0	0.30000000000000004	0.7	4	6	1.2000000000000002	4.199999999999998	valid	0.5165584619990113	53248	0	1	1	53248	1	53248	1	53248	1	0.7	53248	red	blue	1	6	ml	2.7.3	lorasick	sub-06_ses-02_task-ml_proj-lorasick_2020-12-11-14-04-56.373516
136	6	2	3	137	stable	1	200	137	sv	blue	red	red	blue	right	left	0.7	0.30000000000000004	2	2	1.4	0.6000000000000001	1	0	0.30000000000000004	0.7	2	2	0.6000000000000001	1.4	valid	0.4832306710013654	53248	0	1	1	53248	1	53248	1	53248	1	0.7	53248	red	blue	0	2	ml	2.7.3	lorasick	sub-06_ses-02_task-ml_proj-lorasick_2020-12-11-14-04-56.373516
137	6	2	3	138	stable	1	200	138	sv	red	blue	red	blue	left	right	0.7	0.30000000000000004	2	4	1.4	1.2000000000000002	1	0	0.7	0.30000000000000004	2	4	1.4	1.2000000000000002	valid	0.44990939300078026	51200	0	0	1	51200	1	51200	1	53248	0	0.7	51200	red	blue	0	2	ml	2.7.3	lorasick	sub-06_ses-02_task-ml_proj-lorasick_2020-12-11-14-04-56.373516
138	6	2	3	139	stable	1	200	139	sv	blue	red	red	blue	right	left	0.7	0.30000000000000004	6	6	4.199999999999998	1.8000000000000005	0	1	0.30000000000000004	0.7	6	6	1.8000000000000005	4.199999999999998	invalid	0.3999225990010018	53248	0	1	1	53248	1	53248	1	53248	1	0.7	53248	red	blue	0	0	ml	2.7.3	lorasick	sub-06_ses-02_task-ml_proj-lorasick_2020-12-11-14-04-56.373516
139	6	2	3	140	stable	1	200	140	sv	blue	red	red	blue	right	left	0.7	0.30000000000000004	2	4	1.4	1.2000000000000002	1	0	0.30000000000000004	0.7	4	2	1.2000000000000002	1.4	valid	0.4499077569998917	53248	0	1	1	53248	1	53248	1	51200	0	0.7	53248	red	blue	0	2	ml	2.7.3	lorasick	sub-06_ses-02_task-ml_proj-lorasick_2020-12-11-14-04-56.373516
140	6	2	3	141	stable	1	200	141	sv	red	blue	red	blue	left	right	0.7	0.30000000000000004	4	6	2.8	1.8000000000000005	1	0	0.7	0.30000000000000004	4	6	2.8	1.8000000000000005	valid	0.4998840799999016	51200	0	0	1	51200	1	51200	1	53248	0	0.7	51200	red	blue	0	4	ml	2.7.3	lorasick	sub-06_ses-02_task-ml_proj-lorasick_2020-12-11-14-04-56.373516
141	6	2	3	142	stable	1	200	142	sv	blue	red	red	blue	right	left	0.7	0.30000000000000004	6	4	4.199999999999998	1.2000000000000002	1	0	0.30000000000000004	0.7	4	6	1.2000000000000002	4.199999999999998	valid	0.4165829109988408	53248	0	1	1	53248	1	53248	1	53248	1	0.7	53248	red	blue	1	6	ml	2.7.3	lorasick	sub-06_ses-02_task-ml_proj-lorasick_2020-12-11-14-04-56.373516
142	6	2	3	143	stable	1	200	143	sv	red	blue	red	blue	left	right	0.7	0.30000000000000004	6	4	4.199999999999998	1.2000000000000002	0	1	0.7	0.30000000000000004	6	4	4.199999999999998	1.2000000000000002	invalid	0.36658416200043575	51200	0	0	1	51200	1	51200	1	51200	1	0.7	51200	red	blue	1	0	ml	2.7.3	lorasick	sub-06_ses-02_task-ml_proj-lorasick_2020-12-11-14-04-56.373516
143	6	2	3	144	stable	1	200	144	sv	red	blue	red	blue	left	right	0.7	0.30000000000000004	2	10	1.4	3.0000000000000004	1	0	0.7	0.30000000000000004	2	10	1.4	3.0000000000000004	valid	0.7331582769984379	53248	0	1	2	53248	1	51200	0	53248	1	0.7	51200	red	blue	0	0	ml	2.7.3	lorasick	sub-06_ses-02_task-ml_proj-lorasick_2020-12-11-14-04-56.373516
144	6	2	3	145	stable	1	200	145	sv	blue	red	red	blue	right	left	0.7	0.30000000000000004	4	6	2.8	1.8000000000000005	1	0	0.30000000000000004	0.7	6	4	1.8000000000000005	2.8	valid	0.3665984460003529	53248	0	1	1	53248	1	53248	1	51200	0	0.7	53248	red	blue	0	4	ml	2.7.3	lorasick	sub-06_ses-02_task-ml_proj-lorasick_2020-12-11-14-04-56.373516
145	6	2	3	146	stable	1	200	146	sv	blue	red	red	blue	right	left	0.7	0.30000000000000004	2	10	1.4	3.0000000000000004	1	0	0.30000000000000004	0.7	10	2	3.0000000000000004	1.4	valid	0.8164686979998805	53248	0	1	1	51200	0	53248	1	51200	0	0.7	53248	red	blue	0	2	ml	2.7.3	lorasick	sub-06_ses-02_task-ml_proj-lorasick_2020-12-11-14-04-56.373516
146	6	2	3	147	stable	1	200	147	sv	red	blue	red	blue	left	right	0.7	0.30000000000000004	6	6	4.199999999999998	1.8000000000000005	1	0	0.7	0.30000000000000004	6	6	4.199999999999998	1.8000000000000005	valid	0.5831934430007095	51200	0	0	1	51200	1	51200	1	53248	0	0.7	51200	red	blue	1	6	ml	2.7.3	lorasick	sub-06_ses-02_task-ml_proj-lorasick_2020-12-11-14-04-56.373516
147	6	2	3	148	stable	1	200	148	sv	red	blue	red	blue	left	right	0.7	0.30000000000000004	6	4	4.199999999999998	1.2000000000000002	1	0	0.7	0.30000000000000004	6	4	4.199999999999998	1.2000000000000002	valid	0.44989987700137135	51200	0	0	1	51200	1	51200	1	51200	1	0.7	51200	red	blue	1	6	ml	2.7.3	lorasick	sub-06_ses-02_task-ml_proj-lorasick_2020-12-11-14-04-56.373516
148	6	2	3	149	stable	1	200	149	sv	blue	red	red	blue	right	left	0.7	0.30000000000000004	6	6	4.199999999999998	1.8000000000000005	1	0	0.30000000000000004	0.7	6	6	1.8000000000000005	4.199999999999998	valid	0.3666020960008609	53248	0	1	1	53248	1	53248	1	53248	1	0.7	53248	red	blue	0	6	ml	2.7.3	lorasick	sub-06_ses-02_task-ml_proj-lorasick_2020-12-11-14-04-56.373516
149	6	2	3	150	stable	1	200	150	sv	blue	red	red	blue	right	left	0.7	0.30000000000000004	2	4	1.4	1.2000000000000002	0	1	0.30000000000000004	0.7	4	2	1.2000000000000002	1.4	invalid	0.5998625780011935	53248	0	1	1	53248	1	53248	1	51200	0	0.7	53248	red	blue	0	0	ml	2.7.3	lorasick	sub-06_ses-02_task-ml_proj-lorasick_2020-12-11-14-04-56.373516
150	6	2	4	151	stable	1	200	151	sv	blue	red	red	blue	right	left	0.7	0.30000000000000004	10	2	7.0	0.6000000000000001	1	0	0.30000000000000004	0.7	2	10	0.6000000000000001	7.0	valid	0.5165533129984397	53248	0	1	1	53248	1	53248	1	53248	1	0.7	53248	red	blue	1	10	ml	2.7.3	lorasick	sub-06_ses-02_task-ml_proj-lorasick_2020-12-11-14-04-56.373516
151	6	2	4	152	stable	1	200	152	sv	red	blue	red	blue	left	right	0.7	0.30000000000000004	6	6	4.199999999999998	1.8000000000000005	0	1	0.7	0.30000000000000004	6	6	4.199999999999998	1.8000000000000005	invalid	0.3332730789989	51200	0	0	1	51200	1	51200	1	53248	0	0.7	51200	red	blue	1	0	ml	2.7.3	lorasick	sub-06_ses-02_task-ml_proj-lorasick_2020-12-11-14-04-56.373516
152	6	2	4	153	stable	1	200	153	sv	blue	red	red	blue	right	left	0.7	0.30000000000000004	2	2	1.4	0.6000000000000001	1	0	0.30000000000000004	0.7	2	2	0.6000000000000001	1.4	valid	0.4499102649988345	53248	0	1	1	53248	1	53248	1	53248	1	0.7	53248	red	blue	0	2	ml	2.7.3	lorasick	sub-06_ses-02_task-ml_proj-lorasick_2020-12-11-14-04-56.373516
153	6	2	4	154	stable	1	200	154	sv	red	blue	red	blue	left	right	0.7	0.30000000000000004	4	6	2.8	1.8000000000000005	0	1	0.7	0.30000000000000004	4	6	2.8	1.8000000000000005	invalid	0.48321335999935405	51200	0	0	1	51200	1	51200	1	53248	0	0.7	51200	red	blue	0	0	ml	2.7.3	lorasick	sub-06_ses-02_task-ml_proj-lorasick_2020-12-11-14-04-56.373516
154	6	2	4	155	stable	1	200	155	sv	blue	red	red	blue	right	left	0.7	0.30000000000000004	2	4	1.4	1.2000000000000002	0	1	0.30000000000000004	0.7	4	2	1.2000000000000002	1.4	invalid	0.4665700890000153	53248	0	1	1	53248	1	53248	1	51200	0	0.7	53248	red	blue	0	0	ml	2.7.3	lorasick	sub-06_ses-02_task-ml_proj-lorasick_2020-12-11-14-04-56.373516
155	6	2	4	156	stable	1	200	156	sv	blue	red	red	blue	right	left	0.7	0.30000000000000004	2	6	1.4	1.8000000000000005	0	1	0.30000000000000004	0.7	6	2	1.8000000000000005	1.4	invalid	0.5332071579996409	51200	0	0	2	51200	1	53248	0	51200	1	0.7	53248	red	blue	0	6	ml	2.7.3	lorasick	sub-06_ses-02_task-ml_proj-lorasick_2020-12-11-14-04-56.373516
156	6	2	4	157	stable	1	200	157	sv	red	blue	red	blue	left	right	0.7	0.30000000000000004	4	2	2.8	0.6000000000000001	1	0	0.7	0.30000000000000004	4	2	2.8	0.6000000000000001	valid	0.7331570440001087	53248	0	1	2	51200	0	51200	0	51200	0	0.7	51200	red	blue	1	0	ml	2.7.3	lorasick	sub-06_ses-02_task-ml_proj-lorasick_2020-12-11-14-04-56.373516
157	6	2	4	158	stable	1	200	158	sv	red	blue	red	blue	left	right	0.7	0.30000000000000004	2	2	1.4	0.6000000000000001	1	0	0.7	0.30000000000000004	2	2	1.4	0.6000000000000001	valid	0.5998532379999233	51200	0	0	1	51200	1	51200	1	53248	0	0.7	51200	red	blue	1	2	ml	2.7.3	lorasick	sub-06_ses-02_task-ml_proj-lorasick_2020-12-11-14-04-56.373516
158	6	2	4	159	stable	1	200	159	sv	blue	red	red	blue	right	left	0.7	0.30000000000000004	2	2	1.4	0.6000000000000001	1	0	0.30000000000000004	0.7	2	2	0.6000000000000001	1.4	valid	0.4998811400000705	51200	0	0	2	53248	0	53248	0	53248	0	0.7	53248	red	blue	0	0	ml	2.7.3	lorasick	sub-06_ses-02_task-ml_proj-lorasick_2020-12-11-14-04-56.373516
159	6	2	4	160	stable	1	200	160	sv	blue	red	red	blue	right	left	0.7	0.30000000000000004	6	4	4.199999999999998	1.2000000000000002	1	0	0.30000000000000004	0.7	4	6	1.2000000000000002	4.199999999999998	valid	0.933082776999072	51200	0	0	2	53248	0	53248	0	53248	0	0.7	53248	red	blue	1	0	ml	2.7.3	lorasick	sub-06_ses-02_task-ml_proj-lorasick_2020-12-11-14-04-56.373516
160	6	2	4	161	stable	1	200	161	sv	red	blue	red	blue	left	right	0.7	0.30000000000000004	2	10	1.4	3.0000000000000004	1	0	0.7	0.30000000000000004	2	10	1.4	3.0000000000000004	valid	0.9497502190006344	51200	0	0	1	53248	0	51200	1	53248	0	0.7	51200	red	blue	0	2	ml	2.7.3	lorasick	sub-06_ses-02_task-ml_proj-lorasick_2020-12-11-14-04-56.373516
161	6	2	4	162	stable	1	200	162	sv	blue	red	red	blue	right	left	0.7	0.30000000000000004	4	2	2.8	0.6000000000000001	1	0	0.30000000000000004	0.7	2	4	0.6000000000000001	2.8	valid	0.43324905099871097	53248	0	1	1	53248	1	53248	1	53248	1	0.7	53248	red	blue	1	4	ml	2.7.3	lorasick	sub-06_ses-02_task-ml_proj-lorasick_2020-12-11-14-04-56.373516
162	6	2	4	163	stable	1	200	163	sv	blue	red	red	blue	right	left	0.7	0.30000000000000004	4	2	2.8	0.6000000000000001	1	0	0.30000000000000004	0.7	2	4	0.6000000000000001	2.8	valid	0.666494324001178	51200	0	0	2	53248	0	53248	0	53248	0	0.7	53248	red	blue	1	0	ml	2.7.3	lorasick	sub-06_ses-02_task-ml_proj-lorasick_2020-12-11-14-04-56.373516
163	6	2	4	164	stable	1	200	164	sv	blue	red	red	blue	right	left	0.7	0.30000000000000004	2	6	1.4	1.8000000000000005	0	1	0.30000000000000004	0.7	6	2	1.8000000000000005	1.4	invalid	0.3999253029996908	53248	0	1	1	51200	0	53248	1	51200	0	0.7	53248	red	blue	0	0	ml	2.7.3	lorasick	sub-06_ses-02_task-ml_proj-lorasick_2020-12-11-14-04-56.373516
164	6	2	4	165	stable	1	200	165	sv	red	blue	red	blue	left	right	0.7	0.30000000000000004	6	6	4.199999999999998	1.8000000000000005	0	1	0.7	0.30000000000000004	6	6	4.199999999999998	1.8000000000000005	invalid	0.5332050850011001	51200	0	0	1	51200	1	51200	1	53248	0	0.7	51200	red	blue	1	0	ml	2.7.3	lorasick	sub-06_ses-02_task-ml_proj-lorasick_2020-12-11-14-04-56.373516
165	6	2	4	166	stable	1	200	166	sv	blue	red	red	blue	right	left	0.7	0.30000000000000004	2	6	1.4	1.8000000000000005	0	1	0.30000000000000004	0.7	6	2	1.8000000000000005	1.4	invalid	0.4165836899992428	53248	0	1	1	51200	0	53248	1	51200	0	0.7	53248	red	blue	0	0	ml	2.7.3	lorasick	sub-06_ses-02_task-ml_proj-lorasick_2020-12-11-14-04-56.373516
166	6	2	4	167	stable	1	200	167	sv	blue	red	red	blue	right	left	0.7	0.30000000000000004	2	2	1.4	0.6000000000000001	1	0	0.30000000000000004	0.7	2	2	0.6000000000000001	1.4	valid	0.7164993579990551	53248	0	1	1	53248	1	53248	1	53248	1	0.7	53248	red	blue	0	2	ml	2.7.3	lorasick	sub-06_ses-02_task-ml_proj-lorasick_2020-12-11-14-04-56.373516
167	6	2	4	168	stable	1	200	168	sv	red	blue	red	blue	left	right	0.7	0.30000000000000004	2	4	1.4	1.2000000000000002	1	0	0.7	0.30000000000000004	2	4	1.4	1.2000000000000002	valid	0.38324829999874055	51200	0	0	1	51200	1	51200	1	53248	0	0.7	51200	red	blue	0	2	ml	2.7.3	lorasick	sub-06_ses-02_task-ml_proj-lorasick_2020-12-11-14-04-56.373516
168	6	2	4	169	stable	1	200	169	sv	blue	red	red	blue	right	left	0.7	0.30000000000000004	2	4	1.4	1.2000000000000002	0	1	0.30000000000000004	0.7	4	2	1.2000000000000002	1.4	invalid	0.3332733650004229	53248	0	1	1	53248	1	53248	1	51200	0	0.7	53248	red	blue	0	0	ml	2.7.3	lorasick	sub-06_ses-02_task-ml_proj-lorasick_2020-12-11-14-04-56.373516
169	6	2	4	170	stable	1	200	170	sv	blue	red	red	blue	right	left	0.7	0.30000000000000004	2	4	1.4	1.2000000000000002	1	0	0.30000000000000004	0.7	4	2	1.2000000000000002	1.4	valid	0.5165507439996873	51200	0	0	2	53248	0	53248	0	51200	1	0.7	53248	red	blue	0	0	ml	2.7.3	lorasick	sub-06_ses-02_task-ml_proj-lorasick_2020-12-11-14-04-56.373516
170	6	2	4	171	stable	1	200	171	sv	red	blue	red	blue	left	right	0.7	0.30000000000000004	6	2	4.199999999999998	0.6000000000000001	1	0	0.7	0.30000000000000004	6	2	4.199999999999998	0.6000000000000001	valid	0.54986711499987	51200	0	0	1	51200	1	51200	1	51200	1	0.7	51200	red	blue	1	6	ml	2.7.3	lorasick	sub-06_ses-02_task-ml_proj-lorasick_2020-12-11-14-04-56.373516
171	6	2	4	172	stable	1	200	172	sv	red	blue	red	blue	left	right	0.7	0.30000000000000004	10	2	7.0	0.6000000000000001	1	0	0.7	0.30000000000000004	10	2	7.0	0.6000000000000001	valid	0.4165673009993043	51200	0	0	1	51200	1	51200	1	51200	1	0.7	51200	red	blue	1	10	ml	2.7.3	lorasick	sub-06_ses-02_task-ml_proj-lorasick_2020-12-11-14-04-56.373516
172	6	2	4	173	stable	1	200	173	sv	red	blue	red	blue	left	right	0.7	0.30000000000000004	6	6	4.199999999999998	1.8000000000000005	1	0	0.7	0.30000000000000004	6	6	4.199999999999998	1.8000000000000005	valid	0.4498959250013286	51200	0	0	1	51200	1	51200	1	53248	0	0.7	51200	red	blue	1	6	ml	2.7.3	lorasick	sub-06_ses-02_task-ml_proj-lorasick_2020-12-11-14-04-56.373516
173	6	2	4	174	stable	1	200	174	sv	blue	red	red	blue	right	left	0.7	0.30000000000000004	6	6	4.199999999999998	1.8000000000000005	1	0	0.30000000000000004	0.7	6	6	1.8000000000000005	4.199999999999998	valid	0.6331882129998121	53248	0	1	1	53248	1	53248	1	53248	1	0.7	53248	red	blue	0	6	ml	2.7.3	lorasick	sub-06_ses-02_task-ml_proj-lorasick_2020-12-11-14-04-56.373516
174	6	2	4	175	stable	1	200	175	sv	blue	red	red	blue	right	left	0.7	0.30000000000000004	10	2	7.0	0.6000000000000001	0	1	0.30000000000000004	0.7	2	10	0.6000000000000001	7.0	invalid	0.4499092699988978	53248	0	1	1	53248	1	53248	1	53248	1	0.7	53248	red	blue	1	0	ml	2.7.3	lorasick	sub-06_ses-02_task-ml_proj-lorasick_2020-12-11-14-04-56.373516
175	6	2	4	176	stable	1	200	176	sv	red	blue	red	blue	left	right	0.7	0.30000000000000004	2	6	1.4	1.8000000000000005	1	0	0.7	0.30000000000000004	2	6	1.4	1.8000000000000005	valid	0.3999112029996468	51200	0	0	1	53248	0	51200	1	53248	0	0.7	51200	red	blue	0	2	ml	2.7.3	lorasick	sub-06_ses-02_task-ml_proj-lorasick_2020-12-11-14-04-56.373516
176	6	2	4	177	stable	1	200	177	sv	red	blue	red	blue	left	right	0.7	0.30000000000000004	10	2	7.0	0.6000000000000001	1	0	0.7	0.30000000000000004	10	2	7.0	0.6000000000000001	valid	0.4498980629996368	51200	0	0	1	51200	1	51200	1	51200	1	0.7	51200	red	blue	1	10	ml	2.7.3	lorasick	sub-06_ses-02_task-ml_proj-lorasick_2020-12-11-14-04-56.373516
177	6	2	4	178	stable	1	200	178	sv	blue	red	red	blue	right	left	0.7	0.30000000000000004	2	4	1.4	1.2000000000000002	1	0	0.30000000000000004	0.7	4	2	1.2000000000000002	1.4	valid	0.3166118839999399	53248	0	1	1	53248	1	53248	1	51200	0	0.7	53248	red	blue	0	2	ml	2.7.3	lorasick	sub-06_ses-02_task-ml_proj-lorasick_2020-12-11-14-04-56.373516
178	6	2	4	179	stable	1	200	179	sv	blue	red	red	blue	right	left	0.7	0.30000000000000004	4	6	2.8	1.8000000000000005	0	1	0.30000000000000004	0.7	6	4	1.8000000000000005	2.8	invalid	0.3832562989991857	53248	0	1	1	53248	1	53248	1	51200	0	0.7	53248	red	blue	0	0	ml	2.7.3	lorasick	sub-06_ses-02_task-ml_proj-lorasick_2020-12-11-14-04-56.373516
179	6	2	4	180	stable	1	200	180	sv	red	blue	red	blue	left	right	0.7	0.30000000000000004	2	10	1.4	3.0000000000000004	1	0	0.7	0.30000000000000004	2	10	1.4	3.0000000000000004	valid	0.3999115499991603	51200	0	0	1	53248	0	51200	1	53248	0	0.7	51200	red	blue	0	2	ml	2.7.3	lorasick	sub-06_ses-02_task-ml_proj-lorasick_2020-12-11-14-04-56.373516
180	6	2	4	181	stable	1	200	181	sv	blue	red	red	blue	right	left	0.7	0.30000000000000004	2	2	1.4	0.6000000000000001	1	0	0.30000000000000004	0.7	2	2	0.6000000000000001	1.4	valid	0.3832645830007096	53248	0	1	1	53248	1	53248	1	53248	1	0.7	53248	red	blue	0	2	ml	2.7.3	lorasick	sub-06_ses-02_task-ml_proj-lorasick_2020-12-11-14-04-56.373516
181	6	2	4	182	stable	1	200	182	sv	red	blue	red	blue	left	right	0.7	0.30000000000000004	2	2	1.4	0.6000000000000001	1	0	0.7	0.30000000000000004	2	2	1.4	0.6000000000000001	valid	0.5831924989997788	51200	0	0	1	51200	1	51200	1	53248	0	0.7	51200	red	blue	1	2	ml	2.7.3	lorasick	sub-06_ses-02_task-ml_proj-lorasick_2020-12-11-14-04-56.373516
182	6	2	4	183	stable	1	200	183	sv	blue	red	red	blue	right	left	0.7	0.30000000000000004	2	4	1.4	1.2000000000000002	0	1	0.30000000000000004	0.7	4	2	1.2000000000000002	1.4	invalid	0.8497796970004856	51200	0	0	2	53248	0	53248	0	51200	1	0.7	53248	red	blue	0	4	ml	2.7.3	lorasick	sub-06_ses-02_task-ml_proj-lorasick_2020-12-11-14-04-56.373516
183	6	2	4	184	stable	1	200	184	sv	blue	red	red	blue	right	left	0.7	0.30000000000000004	6	4	4.199999999999998	1.2000000000000002	1	0	0.30000000000000004	0.7	4	6	1.2000000000000002	4.199999999999998	valid	0.4832297239991021	53248	0	1	1	53248	1	53248	1	53248	1	0.7	53248	red	blue	1	6	ml	2.7.3	lorasick	sub-06_ses-02_task-ml_proj-lorasick_2020-12-11-14-04-56.373516
184	6	2	4	185	stable	1	200	185	sv	blue	red	red	blue	right	left	0.7	0.30000000000000004	10	2	7.0	0.6000000000000001	1	0	0.30000000000000004	0.7	2	10	0.6000000000000001	7.0	valid	0.6998334130003059	53248	0	1	1	53248	1	53248	1	53248	1	0.7	53248	red	blue	1	10	ml	2.7.3	lorasick	sub-06_ses-02_task-ml_proj-lorasick_2020-12-11-14-04-56.373516
185	6	2	4	186	stable	1	200	186	sv	red	blue	red	blue	left	right	0.7	0.30000000000000004	2	4	1.4	1.2000000000000002	0	1	0.7	0.30000000000000004	2	4	1.4	1.2000000000000002	invalid	0.3832536259997141	51200	0	0	1	51200	1	51200	1	53248	0	0.7	51200	red	blue	0	0	ml	2.7.3	lorasick	sub-06_ses-02_task-ml_proj-lorasick_2020-12-11-14-04-56.373516
186	6	2	4	187	stable	1	200	187	sv	blue	red	red	blue	right	left	0.7	0.30000000000000004	10	2	7.0	0.6000000000000001	1	0	0.30000000000000004	0.7	2	10	0.6000000000000001	7.0	valid	0.5498776589993213	53248	0	1	1	53248	1	53248	1	53248	1	0.7	53248	red	blue	1	10	ml	2.7.3	lorasick	sub-06_ses-02_task-ml_proj-lorasick_2020-12-11-14-04-56.373516
187	6	2	4	188	stable	1	200	188	sv	red	blue	red	blue	left	right	0.7	0.30000000000000004	6	2	4.199999999999998	0.6000000000000001	0	1	0.7	0.30000000000000004	6	2	4.199999999999998	0.6000000000000001	invalid	0.4165709349999816	51200	0	0	1	51200	1	51200	1	51200	1	0.7	51200	red	blue	1	0	ml	2.7.3	lorasick	sub-06_ses-02_task-ml_proj-lorasick_2020-12-11-14-04-56.373516
188	6	2	4	189	stable	1	200	189	sv	red	blue	red	blue	left	right	0.7	0.30000000000000004	4	6	2.8	1.8000000000000005	1	0	0.7	0.30000000000000004	4	6	2.8	1.8000000000000005	valid	0.5332186729992827	51200	0	0	1	51200	1	51200	1	53248	0	0.7	51200	red	blue	0	4	ml	2.7.3	lorasick	sub-06_ses-02_task-ml_proj-lorasick_2020-12-11-14-04-56.373516
189	6	2	4	190	stable	1	200	190	sv	blue	red	red	blue	right	left	0.7	0.30000000000000004	2	2	1.4	0.6000000000000001	0	1	0.30000000000000004	0.7	2	2	0.6000000000000001	1.4	invalid	0.4165801830004057	53248	0	1	1	53248	1	53248	1	53248	1	0.7	53248	red	blue	0	0	ml	2.7.3	lorasick	sub-06_ses-02_task-ml_proj-lorasick_2020-12-11-14-04-56.373516
190	6	2	4	191	stable	1	200	191	sv	blue	red	red	blue	right	left	0.7	0.30000000000000004	6	2	4.199999999999998	0.6000000000000001	1	0	0.30000000000000004	0.7	2	6	0.6000000000000001	4.199999999999998	valid	0.483229023999229	53248	0	1	1	53248	1	53248	1	53248	1	0.7	53248	red	blue	1	6	ml	2.7.3	lorasick	sub-06_ses-02_task-ml_proj-lorasick_2020-12-11-14-04-56.373516
191	6	2	4	192	stable	1	200	192	sv	red	blue	red	blue	left	right	0.7	0.30000000000000004	6	6	4.199999999999998	1.8000000000000005	1	0	0.7	0.30000000000000004	6	6	4.199999999999998	1.8000000000000005	valid	0.4332357820003381	51200	0	0	1	51200	1	51200	1	53248	0	0.7	51200	red	blue	1	6	ml	2.7.3	lorasick	sub-06_ses-02_task-ml_proj-lorasick_2020-12-11-14-04-56.373516
192	6	2	4	193	stable	1	200	193	sv	red	blue	red	blue	left	right	0.7	0.30000000000000004	2	4	1.4	1.2000000000000002	1	0	0.7	0.30000000000000004	2	4	1.4	1.2000000000000002	valid	0.6498385569993843	51200	0	0	1	51200	1	51200	1	53248	0	0.7	51200	red	blue	0	2	ml	2.7.3	lorasick	sub-06_ses-02_task-ml_proj-lorasick_2020-12-11-14-04-56.373516
193	6	2	4	194	stable	1	200	194	sv	red	blue	red	blue	left	right	0.7	0.30000000000000004	4	2	2.8	0.6000000000000001	1	0	0.7	0.30000000000000004	4	2	2.8	0.6000000000000001	valid	0.5498486039996351	51200	0	0	1	51200	1	51200	1	51200	1	0.7	51200	red	blue	1	4	ml	2.7.3	lorasick	sub-06_ses-02_task-ml_proj-lorasick_2020-12-11-14-04-56.373516
194	6	2	4	195	stable	1	200	195	sv	red	blue	red	blue	left	right	0.7	0.30000000000000004	2	10	1.4	3.0000000000000004	1	0	0.7	0.30000000000000004	2	10	1.4	3.0000000000000004	valid	0.783141660000183	53248	0	1	2	53248	1	51200	0	53248	1	0.7	51200	red	blue	0	0	ml	2.7.3	lorasick	sub-06_ses-02_task-ml_proj-lorasick_2020-12-11-14-04-56.373516
195	6	2	4	196	stable	1	200	196	sv	red	blue	red	blue	left	right	0.7	0.30000000000000004	2	10	1.4	3.0000000000000004	1	0	0.7	0.30000000000000004	2	10	1.4	3.0000000000000004	valid	0.7498212509999576	53248	0	1	2	53248	1	51200	0	53248	1	0.7	51200	red	blue	0	0	ml	2.7.3	lorasick	sub-06_ses-02_task-ml_proj-lorasick_2020-12-11-14-04-56.373516
196	6	2	4	197	stable	1	200	197	sv	blue	red	red	blue	right	left	0.7	0.30000000000000004	2	6	1.4	1.8000000000000005	1	0	0.30000000000000004	0.7	6	2	1.8000000000000005	1.4	valid	1.1163714550002624	51200	0	0	2	51200	1	53248	0	51200	1	0.7	53248	red	blue	0	0	ml	2.7.3	lorasick	sub-06_ses-02_task-ml_proj-lorasick_2020-12-11-14-04-56.373516
197	6	2	4	198	stable	1	200	198	sv	red	blue	red	blue	left	right	0.7	0.30000000000000004	2	6	1.4	1.8000000000000005	1	0	0.7	0.30000000000000004	2	6	1.4	1.8000000000000005	valid	0.8331255840002996	51200	0	0	1	53248	0	51200	1	53248	0	0.7	51200	red	blue	0	2	ml	2.7.3	lorasick	sub-06_ses-02_task-ml_proj-lorasick_2020-12-11-14-04-56.373516
198	6	2	4	199	stable	1	200	199	sv	red	blue	red	blue	left	right	0.7	0.30000000000000004	6	2	4.199999999999998	0.6000000000000001	1	0	0.7	0.30000000000000004	6	2	4.199999999999998	0.6000000000000001	valid	0.566524746000141	51200	0	0	1	51200	1	51200	1	51200	1	0.7	51200	red	blue	1	6	ml	2.7.3	lorasick	sub-06_ses-02_task-ml_proj-lorasick_2020-12-11-14-04-56.373516
199	6	2	4	200	stable	1	200	200	sv	blue	red	red	blue	right	left	0.7	0.30000000000000004	4	6	2.8	1.8000000000000005	1	0	0.30000000000000004	0.7	6	4	1.8000000000000005	2.8	valid	0.4998918940000294	53248	0	1	1	53248	1	53248	1	51200	0	0.7	53248	red	blue	0	4	ml	2.7.3	lorasick	sub-06_ses-02_task-ml_proj-lorasick_2020-12-11-14-04-56.373516
200	6	2	5	201	volatile	2	40	1	sv	red	blue	red	blue	left	right	0.30000000000000004	0.7	6	2	1.8000000000000005	1.4	0	1	0.30000000000000004	0.7	6	2	1.8000000000000005	1.4	valid	0.7164795499993488	51200	0	0	1	51200	1	53248	0	51200	1	0.7	53248	blue	red	0	0	ml	2.7.3	lorasick	sub-06_ses-02_task-ml_proj-lorasick_2020-12-11-14-04-56.373516
201	6	2	5	202	volatile	2	40	2	sv	blue	red	red	blue	right	left	0.30000000000000004	0.7	10	2	3.0000000000000004	1.4	1	0	0.7	0.30000000000000004	2	10	1.4	3.0000000000000004	invalid	0.2999503899991396	53248	0	1	1	53248	1	51200	0	53248	1	0.7	51200	blue	red	0	10	ml	2.7.3	lorasick	sub-06_ses-02_task-ml_proj-lorasick_2020-12-11-14-04-56.373516
202	6	2	5	203	volatile	2	40	3	sv	blue	red	red	blue	right	left	0.30000000000000004	0.7	6	6	1.8000000000000005	4.199999999999998	0	1	0.7	0.30000000000000004	6	6	4.199999999999998	1.8000000000000005	valid	0.4499096119998285	53248	0	1	1	51200	0	51200	0	53248	1	0.7	51200	blue	red	1	0	ml	2.7.3	lorasick	sub-06_ses-02_task-ml_proj-lorasick_2020-12-11-14-04-56.373516
203	6	2	5	204	volatile	2	40	4	sv	blue	red	red	blue	right	left	0.30000000000000004	0.7	2	2	0.6000000000000001	1.4	0	1	0.7	0.30000000000000004	2	2	1.4	0.6000000000000001	valid	0.5332171240006573	53248	0	1	1	51200	0	51200	0	53248	1	0.7	51200	blue	red	1	0	ml	2.7.3	lorasick	sub-06_ses-02_task-ml_proj-lorasick_2020-12-11-14-04-56.373516
204	6	2	5	205	volatile	2	40	5	sv	blue	red	red	blue	right	left	0.30000000000000004	0.7	2	10	0.6000000000000001	7.0	0	1	0.7	0.30000000000000004	10	2	7.0	0.6000000000000001	valid	0.3499275709982612	51200	0	0	2	51200	1	51200	1	51200	1	0.7	51200	blue	red	1	10	ml	2.7.3	lorasick	sub-06_ses-02_task-ml_proj-lorasick_2020-12-11-14-04-56.373516
205	6	2	5	206	volatile	2	40	6	sv	blue	red	red	blue	right	left	0.30000000000000004	0.7	2	4	0.6000000000000001	2.8	1	0	0.7	0.30000000000000004	4	2	2.8	0.6000000000000001	invalid	0.3665870770000765	51200	0	0	2	51200	1	51200	1	51200	1	0.7	51200	blue	red	1	0	ml	2.7.3	lorasick	sub-06_ses-02_task-ml_proj-lorasick_2020-12-11-14-04-56.373516
206	6	2	5	207	volatile	2	40	7	sv	red	blue	red	blue	left	right	0.30000000000000004	0.7	2	6	0.6000000000000001	4.199999999999998	1	0	0.30000000000000004	0.7	2	6	0.6000000000000001	4.199999999999998	invalid	0.4165847690001101	53248	0	1	2	53248	1	53248	1	53248	1	0.7	53248	blue	red	1	0	ml	2.7.3	lorasick	sub-06_ses-02_task-ml_proj-lorasick_2020-12-11-14-04-56.373516
207	6	2	5	208	volatile	2	40	8	sv	red	blue	red	blue	left	right	0.30000000000000004	0.7	4	2	1.2000000000000002	1.4	1	0	0.30000000000000004	0.7	4	2	1.2000000000000002	1.4	invalid	0.8497786659991107	51200	0	0	1	53248	0	53248	0	51200	1	0.7	53248	blue	red	0	4	ml	2.7.3	lorasick	sub-06_ses-02_task-ml_proj-lorasick_2020-12-11-14-04-56.373516
208	6	2	5	209	volatile	2	40	9	sv	blue	red	red	blue	right	left	0.30000000000000004	0.7	2	2	0.6000000000000001	1.4	0	1	0.7	0.30000000000000004	2	2	1.4	0.6000000000000001	valid	0.5998629400000937	53248	0	1	1	51200	0	51200	0	53248	1	0.7	51200	blue	red	1	0	ml	2.7.3	lorasick	sub-06_ses-02_task-ml_proj-lorasick_2020-12-11-14-04-56.373516
209	6	2	5	210	volatile	2	40	10	sv	blue	red	red	blue	right	left	0.30000000000000004	0.7	10	2	3.0000000000000004	1.4	0	1	0.7	0.30000000000000004	2	10	1.4	3.0000000000000004	valid	0.5998597249999875	53248	0	1	1	53248	1	51200	0	53248	1	0.7	51200	blue	red	0	0	ml	2.7.3	lorasick	sub-06_ses-02_task-ml_proj-lorasick_2020-12-11-14-04-56.373516
210	6	2	5	211	volatile	2	40	11	sv	blue	red	red	blue	right	left	0.30000000000000004	0.7	4	6	1.2000000000000002	4.199999999999998	0	1	0.7	0.30000000000000004	6	4	4.199999999999998	1.2000000000000002	valid	0.3999070199988637	51200	0	0	2	51200	1	51200	1	51200	1	0.7	51200	blue	red	1	6	ml	2.7.3	lorasick	sub-06_ses-02_task-ml_proj-lorasick_2020-12-11-14-04-56.373516
211	6	2	5	212	volatile	2	40	12	sv	red	blue	red	blue	left	right	0.30000000000000004	0.7	2	6	0.6000000000000001	4.199999999999998	0	1	0.30000000000000004	0.7	2	6	0.6000000000000001	4.199999999999998	valid	0.5165571680008725	53248	0	1	2	53248	1	53248	1	53248	1	0.7	53248	blue	red	1	6	ml	2.7.3	lorasick	sub-06_ses-02_task-ml_proj-lorasick_2020-12-11-14-04-56.373516
212	6	2	5	213	volatile	2	40	13	sv	red	blue	red	blue	left	right	0.30000000000000004	0.7	10	2	3.0000000000000004	1.4	0	1	0.30000000000000004	0.7	10	2	3.0000000000000004	1.4	valid	0.4998959210006433	53248	0	1	2	51200	0	53248	1	51200	0	0.7	53248	blue	red	0	2	ml	2.7.3	lorasick	sub-06_ses-02_task-ml_proj-lorasick_2020-12-11-14-04-56.373516
213	6	2	5	214	volatile	2	40	14	sv	blue	red	red	blue	right	left	0.30000000000000004	0.7	2	10	0.6000000000000001	7.0	1	0	0.7	0.30000000000000004	10	2	7.0	0.6000000000000001	invalid	0.399914109000747	51200	0	0	2	51200	1	51200	1	51200	1	0.7	51200	blue	red	1	0	ml	2.7.3	lorasick	sub-06_ses-02_task-ml_proj-lorasick_2020-12-11-14-04-56.373516
214	6	2	5	215	volatile	2	40	15	sv	blue	red	red	blue	right	left	0.30000000000000004	0.7	10	2	3.0000000000000004	1.4	0	1	0.7	0.30000000000000004	2	10	1.4	3.0000000000000004	valid	0.4832209480009624	51200	0	0	2	53248	0	51200	1	53248	0	0.7	51200	blue	red	0	2	ml	2.7.3	lorasick	sub-06_ses-02_task-ml_proj-lorasick_2020-12-11-14-04-56.373516
215	6	2	5	216	volatile	2	40	16	sv	blue	red	red	blue	right	left	0.30000000000000004	0.7	4	2	1.2000000000000002	1.4	0	1	0.7	0.30000000000000004	2	4	1.4	1.2000000000000002	valid	0.4498987369988754	51200	0	0	2	51200	1	51200	1	53248	0	0.7	51200	blue	red	0	2	ml	2.7.3	lorasick	sub-06_ses-02_task-ml_proj-lorasick_2020-12-11-14-04-56.373516
216	6	2	5	217	volatile	2	40	17	sv	blue	red	red	blue	right	left	0.30000000000000004	0.7	6	4	1.8000000000000005	2.8	0	1	0.7	0.30000000000000004	4	6	2.8	1.8000000000000005	valid	0.5998519619988656	51200	0	0	2	51200	1	51200	1	53248	0	0.7	51200	blue	red	0	4	ml	2.7.3	lorasick	sub-06_ses-02_task-ml_proj-lorasick_2020-12-11-14-04-56.373516
217	6	2	5	218	volatile	2	40	18	sv	red	blue	red	blue	left	right	0.30000000000000004	0.7	10	2	3.0000000000000004	1.4	0	1	0.30000000000000004	0.7	10	2	3.0000000000000004	1.4	valid	0.0001063190011336701	51200	0	0	1	51200	1	53248	0	51200	1	0.7	53248	blue	red	0	0	ml	2.7.3	lorasick	sub-06_ses-02_task-ml_proj-lorasick_2020-12-11-14-04-56.373516
218	6	2	5	219	volatile	2	40	19	sv	red	blue	red	blue	left	right	0.30000000000000004	0.7	6	2	1.8000000000000005	1.4	1	0	0.30000000000000004	0.7	6	2	1.8000000000000005	1.4	invalid	1.0997169900001609	53248	0	1	2	51200	0	53248	1	51200	0	0.7	53248	blue	red	0	0	ml	2.7.3	lorasick	sub-06_ses-02_task-ml_proj-lorasick_2020-12-11-14-04-56.373516
219	6	2	5	220	volatile	2	40	20	sv	blue	red	red	blue	right	left	0.30000000000000004	0.7	4	2	1.2000000000000002	1.4	0	1	0.7	0.30000000000000004	2	4	1.4	1.2000000000000002	valid	0.4998925800009602	53248	0	1	1	51200	0	51200	0	53248	1	0.7	51200	blue	red	0	0	ml	2.7.3	lorasick	sub-06_ses-02_task-ml_proj-lorasick_2020-12-11-14-04-56.373516
220	6	2	5	221	volatile	2	40	21	sv	red	blue	red	blue	left	right	0.30000000000000004	0.7	2	10	0.6000000000000001	7.0	1	0	0.30000000000000004	0.7	2	10	0.6000000000000001	7.0	invalid	0.5832026010011759	53248	0	1	2	53248	1	53248	1	53248	1	0.7	53248	blue	red	1	0	ml	2.7.3	lorasick	sub-06_ses-02_task-ml_proj-lorasick_2020-12-11-14-04-56.373516
221	6	2	5	222	volatile	2	40	22	sv	red	blue	red	blue	left	right	0.30000000000000004	0.7	6	4	1.8000000000000005	2.8	0	1	0.30000000000000004	0.7	6	4	1.8000000000000005	2.8	valid	0.4832294120005826	53248	0	1	2	53248	1	53248	1	51200	0	0.7	53248	blue	red	0	4	ml	2.7.3	lorasick	sub-06_ses-02_task-ml_proj-lorasick_2020-12-11-14-04-56.373516
222	6	2	5	223	volatile	2	40	23	sv	red	blue	red	blue	left	right	0.30000000000000004	0.7	4	2	1.2000000000000002	1.4	0	1	0.30000000000000004	0.7	4	2	1.2000000000000002	1.4	valid	0.3999150389990973	53248	0	1	2	53248	1	53248	1	51200	0	0.7	53248	blue	red	0	2	ml	2.7.3	lorasick	sub-06_ses-02_task-ml_proj-lorasick_2020-12-11-14-04-56.373516
223	6	2	5	224	volatile	2	40	24	sv	blue	red	red	blue	right	left	0.30000000000000004	0.7	4	6	1.2000000000000002	4.199999999999998	1	0	0.7	0.30000000000000004	6	4	4.199999999999998	1.2000000000000002	invalid	0.5332124330016086	51200	0	0	2	51200	1	51200	1	51200	1	0.7	51200	blue	red	1	0	ml	2.7.3	lorasick	sub-06_ses-02_task-ml_proj-lorasick_2020-12-11-14-04-56.373516
224	6	2	5	225	volatile	2	40	25	sv	red	blue	red	blue	left	right	0.30000000000000004	0.7	6	2	1.8000000000000005	1.4	0	1	0.30000000000000004	0.7	6	2	1.8000000000000005	1.4	valid	0.4499049500009278	53248	0	1	2	51200	0	53248	1	51200	0	0.7	53248	blue	red	0	2	ml	2.7.3	lorasick	sub-06_ses-02_task-ml_proj-lorasick_2020-12-11-14-04-56.373516
225	6	2	5	226	volatile	2	40	26	sv	red	blue	red	blue	left	right	0.30000000000000004	0.7	2	6	0.6000000000000001	4.199999999999998	0	1	0.30000000000000004	0.7	2	6	0.6000000000000001	4.199999999999998	valid	0.4998917889988661	53248	0	1	2	53248	1	53248	1	53248	1	0.7	53248	blue	red	1	6	ml	2.7.3	lorasick	sub-06_ses-02_task-ml_proj-lorasick_2020-12-11-14-04-56.373516
226	6	2	5	227	volatile	2	40	27	sv	blue	red	red	blue	right	left	0.30000000000000004	0.7	4	6	1.2000000000000002	4.199999999999998	1	0	0.7	0.30000000000000004	6	4	4.199999999999998	1.2000000000000002	invalid	0.6998284630008129	51200	0	0	2	51200	1	51200	1	51200	1	0.7	51200	blue	red	1	0	ml	2.7.3	lorasick	sub-06_ses-02_task-ml_proj-lorasick_2020-12-11-14-04-56.373516
227	6	2	5	228	volatile	2	40	28	sv	red	blue	red	blue	left	right	0.30000000000000004	0.7	2	2	0.6000000000000001	1.4	1	0	0.30000000000000004	0.7	2	2	0.6000000000000001	1.4	invalid	0.5332163399998535	53248	0	1	2	53248	1	53248	1	53248	1	0.7	53248	blue	red	0	0	ml	2.7.3	lorasick	sub-06_ses-02_task-ml_proj-lorasick_2020-12-11-14-04-56.373516
228	6	2	5	229	volatile	2	40	29	sv	red	blue	red	blue	left	right	0.30000000000000004	0.7	4	6	1.2000000000000002	4.199999999999998	0	1	0.30000000000000004	0.7	4	6	1.2000000000000002	4.199999999999998	valid	0.4998810069992032	51200	0	0	1	53248	0	53248	0	53248	0	0.7	53248	blue	red	1	0	ml	2.7.3	lorasick	sub-06_ses-02_task-ml_proj-lorasick_2020-12-11-14-04-56.373516
229	6	2	5	230	volatile	2	40	30	sv	blue	red	red	blue	right	left	0.30000000000000004	0.7	2	6	0.6000000000000001	4.199999999999998	0	1	0.7	0.30000000000000004	6	2	4.199999999999998	0.6000000000000001	valid	0.43325600099888106	51200	0	0	2	51200	1	51200	1	51200	1	0.7	51200	blue	red	1	6	ml	2.7.3	lorasick	sub-06_ses-02_task-ml_proj-lorasick_2020-12-11-14-04-56.373516
230	6	2	5	231	volatile	2	40	31	sv	red	blue	red	blue	left	right	0.30000000000000004	0.7	2	2	0.6000000000000001	1.4	1	0	0.30000000000000004	0.7	2	2	0.6000000000000001	1.4	invalid	0.4832294530006038	53248	0	1	2	53248	1	53248	1	53248	1	0.7	53248	blue	red	0	0	ml	2.7.3	lorasick	sub-06_ses-02_task-ml_proj-lorasick_2020-12-11-14-04-56.373516
231	6	2	5	232	volatile	2	40	32	sv	blue	red	red	blue	right	left	0.30000000000000004	0.7	4	2	1.2000000000000002	1.4	1	0	0.7	0.30000000000000004	2	4	1.4	1.2000000000000002	invalid	0.8497783439997875	51200	0	0	2	51200	1	51200	1	53248	0	0.7	51200	blue	red	0	0	ml	2.7.3	lorasick	sub-06_ses-02_task-ml_proj-lorasick_2020-12-11-14-04-56.373516
232	6	2	5	233	volatile	2	40	33	sv	blue	red	red	blue	right	left	0.30000000000000004	0.7	2	4	0.6000000000000001	2.8	0	1	0.7	0.30000000000000004	4	2	2.8	0.6000000000000001	valid	1.1996798800009856	51200	0	0	2	51200	1	51200	1	51200	1	0.7	51200	blue	red	1	4	ml	2.7.3	lorasick	sub-06_ses-02_task-ml_proj-lorasick_2020-12-11-14-04-56.373516
233	6	2	5	234	volatile	2	40	34	sv	red	blue	red	blue	left	right	0.30000000000000004	0.7	2	4	0.6000000000000001	2.8	0	1	0.30000000000000004	0.7	2	4	0.6000000000000001	2.8	valid	0.5832027119995473	53248	0	1	2	53248	1	53248	1	53248	1	0.7	53248	blue	red	1	4	ml	2.7.3	lorasick	sub-06_ses-02_task-ml_proj-lorasick_2020-12-11-14-04-56.373516
234	6	2	5	235	volatile	2	40	35	sv	red	blue	red	blue	left	right	0.30000000000000004	0.7	4	6	1.2000000000000002	4.199999999999998	0	1	0.30000000000000004	0.7	4	6	1.2000000000000002	4.199999999999998	valid	0.6998350399990159	53248	0	1	2	53248	1	53248	1	53248	1	0.7	53248	blue	red	1	6	ml	2.7.3	lorasick	sub-06_ses-02_task-ml_proj-lorasick_2020-12-11-14-04-56.373516
235	6	2	5	236	volatile	2	40	36	sv	blue	red	red	blue	right	left	0.30000000000000004	0.7	6	2	1.8000000000000005	1.4	0	1	0.7	0.30000000000000004	2	6	1.4	1.8000000000000005	valid	0.8664534429990454	53248	0	1	1	53248	1	51200	0	53248	1	0.7	51200	blue	red	0	0	ml	2.7.3	lorasick	sub-06_ses-02_task-ml_proj-lorasick_2020-12-11-14-04-56.373516
236	6	2	5	237	volatile	2	40	37	sv	blue	red	red	blue	right	left	0.30000000000000004	0.7	6	4	1.8000000000000005	2.8	0	1	0.7	0.30000000000000004	4	6	2.8	1.8000000000000005	valid	0.4665585909988295	51200	0	0	2	51200	1	51200	1	53248	0	0.7	51200	blue	red	0	4	ml	2.7.3	lorasick	sub-06_ses-02_task-ml_proj-lorasick_2020-12-11-14-04-56.373516
237	6	2	5	238	volatile	2	40	38	sv	red	blue	red	blue	left	right	0.30000000000000004	0.7	6	6	1.8000000000000005	4.199999999999998	0	1	0.30000000000000004	0.7	6	6	1.8000000000000005	4.199999999999998	valid	0.6331864619987755	53248	0	1	2	53248	1	53248	1	53248	1	0.7	53248	blue	red	0	6	ml	2.7.3	lorasick	sub-06_ses-02_task-ml_proj-lorasick_2020-12-11-14-04-56.373516
238	6	2	5	239	volatile	2	40	39	sv	red	blue	red	blue	left	right	0.30000000000000004	0.7	6	6	1.8000000000000005	4.199999999999998	0	1	0.30000000000000004	0.7	6	6	1.8000000000000005	4.199999999999998	valid	0.3832599539982766	53248	0	1	2	53248	1	53248	1	53248	1	0.7	53248	blue	red	0	6	ml	2.7.3	lorasick	sub-06_ses-02_task-ml_proj-lorasick_2020-12-11-14-04-56.373516
239	6	2	5	240	volatile	2	40	40	sv	red	blue	red	blue	left	right	0.30000000000000004	0.7	6	6	1.8000000000000005	4.199999999999998	0	1	0.30000000000000004	0.7	6	6	1.8000000000000005	4.199999999999998	valid	0.6331873800008907	53248	0	1	2	53248	1	53248	1	53248	1	0.7	53248	blue	red	0	6	ml	2.7.3	lorasick	sub-06_ses-02_task-ml_proj-lorasick_2020-12-11-14-04-56.373516
240	6	2	5	241	volatile	3	20	1	sv	blue	red	red	blue	right	left	0.7	0.30000000000000004	6	2	4.199999999999998	0.6000000000000001	0	1	0.30000000000000004	0.7	2	6	0.6000000000000001	4.199999999999998	invalid	1.083044360000713	51200	0	0	2	53248	0	53248	0	53248	0	0.7	53248	red	blue	1	2	ml	2.7.3	lorasick	sub-06_ses-02_task-ml_proj-lorasick_2020-12-11-14-04-56.373516
241	6	2	5	242	volatile	3	20	2	sv	red	blue	red	blue	left	right	0.7	0.30000000000000004	10	2	7.0	0.6000000000000001	1	0	0.7	0.30000000000000004	10	2	7.0	0.6000000000000001	valid	0.5665429929995298	53248	0	1	2	51200	0	51200	0	51200	0	0.7	51200	red	blue	1	0	ml	2.7.3	lorasick	sub-06_ses-02_task-ml_proj-lorasick_2020-12-11-14-04-56.373516
242	6	2	5	243	volatile	3	20	3	sv	blue	red	red	blue	right	left	0.7	0.30000000000000004	2	6	1.4	1.8000000000000005	0	1	0.30000000000000004	0.7	6	2	1.8000000000000005	1.4	invalid	0.666502109999783	51200	0	0	2	51200	1	53248	0	51200	1	0.7	53248	red	blue	0	6	ml	2.7.3	lorasick	sub-06_ses-02_task-ml_proj-lorasick_2020-12-11-14-04-56.373516
243	6	2	5	244	volatile	3	20	4	sv	red	blue	red	blue	left	right	0.7	0.30000000000000004	6	6	4.199999999999998	1.8000000000000005	0	1	0.7	0.30000000000000004	6	6	4.199999999999998	1.8000000000000005	invalid	0.6664976499996556	53248	0	1	2	51200	0	51200	0	53248	1	0.7	51200	red	blue	1	6	ml	2.7.3	lorasick	sub-06_ses-02_task-ml_proj-lorasick_2020-12-11-14-04-56.373516
244	6	2	5	245	volatile	3	20	5	sv	red	blue	red	blue	left	right	0.7	0.30000000000000004	4	2	2.8	0.6000000000000001	0	1	0.7	0.30000000000000004	4	2	2.8	0.6000000000000001	invalid	0.9664146570012236	51200	0	0	1	51200	1	51200	1	51200	1	0.7	51200	red	blue	1	0	ml	2.7.3	lorasick	sub-06_ses-02_task-ml_proj-lorasick_2020-12-11-14-04-56.373516
245	6	2	5	246	volatile	3	20	6	sv	red	blue	red	blue	left	right	0.7	0.30000000000000004	2	10	1.4	3.0000000000000004	1	0	0.7	0.30000000000000004	2	10	1.4	3.0000000000000004	valid	0.6665096600008837	53248	0	1	2	53248	1	51200	0	53248	1	0.7	51200	red	blue	0	0	ml	2.7.3	lorasick	sub-06_ses-02_task-ml_proj-lorasick_2020-12-11-14-04-56.373516
246	6	2	5	247	volatile	3	20	7	sv	blue	red	red	blue	right	left	0.7	0.30000000000000004	6	2	4.199999999999998	0.6000000000000001	1	0	0.30000000000000004	0.7	2	6	0.6000000000000001	4.199999999999998	valid	1.0997089840002443	51200	0	0	2	53248	0	53248	0	53248	0	0.7	53248	red	blue	1	0	ml	2.7.3	lorasick	sub-06_ses-02_task-ml_proj-lorasick_2020-12-11-14-04-56.373516
247	6	2	5	248	volatile	3	20	8	sv	red	blue	red	blue	left	right	0.7	0.30000000000000004	4	2	2.8	0.6000000000000001	1	0	0.7	0.30000000000000004	4	2	2.8	0.6000000000000001	valid	0.583189881999715	51200	0	0	1	51200	1	51200	1	51200	1	0.7	51200	red	blue	1	4	ml	2.7.3	lorasick	sub-06_ses-02_task-ml_proj-lorasick_2020-12-11-14-04-56.373516
248	6	2	5	249	volatile	3	20	9	sv	blue	red	red	blue	right	left	0.7	0.30000000000000004	2	2	1.4	0.6000000000000001	1	0	0.30000000000000004	0.7	2	2	0.6000000000000001	1.4	valid	0.4665691779991903	53248	0	1	1	53248	1	53248	1	53248	1	0.7	53248	red	blue	0	2	ml	2.7.3	lorasick	sub-06_ses-02_task-ml_proj-lorasick_2020-12-11-14-04-56.373516
249	6	2	5	250	volatile	3	20	10	sv	red	blue	red	blue	left	right	0.7	0.30000000000000004	10	2	7.0	0.6000000000000001	0	1	0.7	0.30000000000000004	10	2	7.0	0.6000000000000001	invalid	0.4665579089996754	51200	0	0	1	51200	1	51200	1	51200	1	0.7	51200	red	blue	1	0	ml	2.7.3	lorasick	sub-06_ses-02_task-ml_proj-lorasick_2020-12-11-14-04-56.373516
250	6	2	6	251	volatile	3	20	11	sv	blue	red	red	blue	right	left	0.7	0.30000000000000004	4	2	2.8	0.6000000000000001	1	0	0.30000000000000004	0.7	2	4	0.6000000000000001	2.8	valid	0.6331956469985016	53248	0	1	1	53248	1	53248	1	53248	1	0.7	53248	red	blue	1	4	ml	2.7.3	lorasick	sub-06_ses-02_task-ml_proj-lorasick_2020-12-11-14-04-56.373516
251	6	2	6	252	volatile	3	20	12	sv	blue	red	red	blue	right	left	0.7	0.30000000000000004	6	4	4.199999999999998	1.2000000000000002	1	0	0.30000000000000004	0.7	4	6	1.2000000000000002	4.199999999999998	valid	0.5498774089992366	53248	0	1	1	53248	1	53248	1	53248	1	0.7	53248	red	blue	1	6	ml	2.7.3	lorasick	sub-06_ses-02_task-ml_proj-lorasick_2020-12-11-14-04-56.373516
252	6	2	6	253	volatile	3	20	13	sv	red	blue	red	blue	left	right	0.7	0.30000000000000004	6	4	4.199999999999998	1.2000000000000002	1	0	0.7	0.30000000000000004	6	4	4.199999999999998	1.2000000000000002	valid	0.3332637410003372	51200	0	0	1	51200	1	51200	1	51200	1	0.7	51200	red	blue	1	6	ml	2.7.3	lorasick	sub-06_ses-02_task-ml_proj-lorasick_2020-12-11-14-04-56.373516
253	6	2	6	254	volatile	3	20	14	sv	blue	red	red	blue	right	left	0.7	0.30000000000000004	6	6	4.199999999999998	1.8000000000000005	1	0	0.30000000000000004	0.7	6	6	1.8000000000000005	4.199999999999998	valid	0.383272955999928	53248	0	1	1	53248	1	53248	1	53248	1	0.7	53248	red	blue	0	6	ml	2.7.3	lorasick	sub-06_ses-02_task-ml_proj-lorasick_2020-12-11-14-04-56.373516
254	6	2	6	255	volatile	3	20	15	sv	red	blue	red	blue	left	right	0.7	0.30000000000000004	4	6	2.8	1.8000000000000005	1	0	0.7	0.30000000000000004	4	6	2.8	1.8000000000000005	valid	0.3165940999988379	51200	0	0	1	51200	1	51200	1	53248	0	0.7	51200	red	blue	0	4	ml	2.7.3	lorasick	sub-06_ses-02_task-ml_proj-lorasick_2020-12-11-14-04-56.373516
255	6	2	6	256	volatile	3	20	16	sv	blue	red	red	blue	right	left	0.7	0.30000000000000004	2	2	1.4	0.6000000000000001	1	0	0.30000000000000004	0.7	2	2	0.6000000000000001	1.4	valid	0.5165552430007665	53248	0	1	1	53248	1	53248	1	53248	1	0.7	53248	red	blue	0	2	ml	2.7.3	lorasick	sub-06_ses-02_task-ml_proj-lorasick_2020-12-11-14-04-56.373516
256	6	2	6	257	volatile	3	20	17	sv	red	blue	red	blue	left	right	0.7	0.30000000000000004	6	4	4.199999999999998	1.2000000000000002	1	0	0.7	0.30000000000000004	6	4	4.199999999999998	1.2000000000000002	valid	0.3832484020003904	51200	0	0	1	51200	1	51200	1	51200	1	0.7	51200	red	blue	1	6	ml	2.7.3	lorasick	sub-06_ses-02_task-ml_proj-lorasick_2020-12-11-14-04-56.373516
257	6	2	6	258	volatile	3	20	18	sv	red	blue	red	blue	left	right	0.7	0.30000000000000004	2	4	1.4	1.2000000000000002	1	0	0.7	0.30000000000000004	2	4	1.4	1.2000000000000002	valid	0.7664721459987051	51200	0	0	1	51200	1	51200	1	53248	0	0.7	51200	red	blue	0	2	ml	2.7.3	lorasick	sub-06_ses-02_task-ml_proj-lorasick_2020-12-11-14-04-56.373516
258	6	2	6	259	volatile	3	20	19	sv	blue	red	red	blue	right	left	0.7	0.30000000000000004	2	6	1.4	1.8000000000000005	1	0	0.30000000000000004	0.7	6	2	1.8000000000000005	1.4	valid	0.6165309440002602	53248	0	1	1	51200	0	53248	1	51200	0	0.7	53248	red	blue	0	2	ml	2.7.3	lorasick	sub-06_ses-02_task-ml_proj-lorasick_2020-12-11-14-04-56.373516
259	6	2	6	260	volatile	3	20	20	sv	blue	red	red	blue	right	left	0.7	0.30000000000000004	10	2	7.0	0.6000000000000001	0	1	0.30000000000000004	0.7	2	10	0.6000000000000001	7.0	invalid	0.6331857549994311	53248	0	1	1	53248	1	53248	1	53248	1	0.7	53248	red	blue	1	0	ml	2.7.3	lorasick	sub-06_ses-02_task-ml_proj-lorasick_2020-12-11-14-04-56.373516
260	6	2	6	261	volatile	4	40	1	sv	blue	red	red	blue	right	left	0.30000000000000004	0.7	2	4	0.6000000000000001	2.8	0	1	0.7	0.30000000000000004	4	2	2.8	0.6000000000000001	valid	0.4165835869989678	53248	0	1	1	51200	0	51200	0	51200	0	0.7	51200	blue	red	1	0	ml	2.7.3	lorasick	sub-06_ses-02_task-ml_proj-lorasick_2020-12-11-14-04-56.373516
261	6	2	6	262	volatile	4	40	2	sv	blue	red	red	blue	right	left	0.30000000000000004	0.7	4	6	1.2000000000000002	4.199999999999998	0	1	0.7	0.30000000000000004	6	4	4.199999999999998	1.2000000000000002	valid	0.4332332070007397	51200	0	0	2	51200	1	51200	1	51200	1	0.7	51200	blue	red	1	6	ml	2.7.3	lorasick	sub-06_ses-02_task-ml_proj-lorasick_2020-12-11-14-04-56.373516
262	6	2	6	263	volatile	4	40	3	sv	red	blue	red	blue	left	right	0.30000000000000004	0.7	2	10	0.6000000000000001	7.0	1	0	0.30000000000000004	0.7	2	10	0.6000000000000001	7.0	invalid	0.7664889789994049	53248	0	1	2	53248	1	53248	1	53248	1	0.7	53248	blue	red	1	0	ml	2.7.3	lorasick	sub-06_ses-02_task-ml_proj-lorasick_2020-12-11-14-04-56.373516
263	6	2	6	264	volatile	4	40	4	sv	red	blue	red	blue	left	right	0.30000000000000004	0.7	2	4	0.6000000000000001	2.8	0	1	0.30000000000000004	0.7	2	4	0.6000000000000001	2.8	valid	0.6831562770003075	51200	0	0	1	53248	0	53248	0	53248	0	0.7	53248	blue	red	1	0	ml	2.7.3	lorasick	sub-06_ses-02_task-ml_proj-lorasick_2020-12-11-14-04-56.373516
264	6	2	6	265	volatile	4	40	5	sv	red	blue	red	blue	left	right	0.30000000000000004	0.7	6	2	1.8000000000000005	1.4	0	1	0.30000000000000004	0.7	6	2	1.8000000000000005	1.4	valid	0.4998858849994576	53248	0	1	2	51200	0	53248	1	51200	0	0.7	53248	blue	red	0	2	ml	2.7.3	lorasick	sub-06_ses-02_task-ml_proj-lorasick_2020-12-11-14-04-56.373516
265	6	2	6	266	volatile	4	40	6	sv	red	blue	red	blue	left	right	0.30000000000000004	0.7	2	4	0.6000000000000001	2.8	0	1	0.30000000000000004	0.7	2	4	0.6000000000000001	2.8	valid	0.4832167140011734	53248	0	1	2	53248	1	53248	1	53248	1	0.7	53248	blue	red	1	4	ml	2.7.3	lorasick	sub-06_ses-02_task-ml_proj-lorasick_2020-12-11-14-04-56.373516
266	6	2	6	267	volatile	4	40	7	sv	blue	red	red	blue	right	left	0.30000000000000004	0.7	6	4	1.8000000000000005	2.8	0	1	0.7	0.30000000000000004	4	6	2.8	1.8000000000000005	valid	0.4832218720002857	51200	0	0	2	51200	1	51200	1	53248	0	0.7	51200	blue	red	0	4	ml	2.7.3	lorasick	sub-06_ses-02_task-ml_proj-lorasick_2020-12-11-14-04-56.373516
267	6	2	6	268	volatile	4	40	8	sv	blue	red	red	blue	right	left	0.30000000000000004	0.7	6	6	1.8000000000000005	4.199999999999998	0	1	0.7	0.30000000000000004	6	6	4.199999999999998	1.8000000000000005	valid	0.3665880609987653	51200	0	0	2	51200	1	51200	1	53248	0	0.7	51200	blue	red	1	6	ml	2.7.3	lorasick	sub-06_ses-02_task-ml_proj-lorasick_2020-12-11-14-04-56.373516
268	6	2	6	269	volatile	4	40	9	sv	blue	red	red	blue	right	left	0.30000000000000004	0.7	6	4	1.8000000000000005	2.8	0	1	0.7	0.30000000000000004	4	6	2.8	1.8000000000000005	valid	0.4332571380000445	51200	0	0	2	51200	1	51200	1	53248	0	0.7	51200	blue	red	0	4	ml	2.7.3	lorasick	sub-06_ses-02_task-ml_proj-lorasick_2020-12-11-14-04-56.373516
269	6	2	6	270	volatile	4	40	10	sv	red	blue	red	blue	left	right	0.30000000000000004	0.7	2	2	0.6000000000000001	1.4	0	1	0.30000000000000004	0.7	2	2	0.6000000000000001	1.4	valid	0.3832593009992705	53248	0	1	2	53248	1	53248	1	53248	1	0.7	53248	blue	red	0	2	ml	2.7.3	lorasick	sub-06_ses-02_task-ml_proj-lorasick_2020-12-11-14-04-56.373516
270	6	2	6	271	volatile	4	40	11	sv	red	blue	red	blue	left	right	0.30000000000000004	0.7	6	6	1.8000000000000005	4.199999999999998	0	1	0.30000000000000004	0.7	6	6	1.8000000000000005	4.199999999999998	valid	0.5998652920006862	53248	0	1	2	53248	1	53248	1	53248	1	0.7	53248	blue	red	0	6	ml	2.7.3	lorasick	sub-06_ses-02_task-ml_proj-lorasick_2020-12-11-14-04-56.373516
271	6	2	6	272	volatile	4	40	12	sv	blue	red	red	blue	right	left	0.30000000000000004	0.7	2	4	0.6000000000000001	2.8	1	0	0.7	0.30000000000000004	4	2	2.8	0.6000000000000001	invalid	0.4165791000013997	51200	0	0	2	51200	1	51200	1	51200	1	0.7	51200	blue	red	1	0	ml	2.7.3	lorasick	sub-06_ses-02_task-ml_proj-lorasick_2020-12-11-14-04-56.373516
272	6	2	6	273	volatile	4	40	13	sv	red	blue	red	blue	left	right	0.30000000000000004	0.7	10	2	3.0000000000000004	1.4	0	1	0.30000000000000004	0.7	10	2	3.0000000000000004	1.4	valid	0.9497991150001326	53248	0	1	2	51200	0	53248	1	51200	0	0.7	53248	blue	red	0	2	ml	2.7.3	lorasick	sub-06_ses-02_task-ml_proj-lorasick_2020-12-11-14-04-56.373516
273	6	2	6	274	volatile	4	40	14	sv	blue	red	red	blue	right	left	0.30000000000000004	0.7	6	4	1.8000000000000005	2.8	0	1	0.7	0.30000000000000004	4	6	2.8	1.8000000000000005	valid	0.5165688280012546	51200	0	0	2	51200	1	51200	1	53248	0	0.7	51200	blue	red	0	4	ml	2.7.3	lorasick	sub-06_ses-02_task-ml_proj-lorasick_2020-12-11-14-04-56.373516
274	6	2	6	275	volatile	4	40	15	sv	red	blue	red	blue	left	right	0.30000000000000004	0.7	2	4	0.6000000000000001	2.8	0	1	0.30000000000000004	0.7	2	4	0.6000000000000001	2.8	valid	0.4998924960000295	53248	0	1	2	53248	1	53248	1	53248	1	0.7	53248	blue	red	1	4	ml	2.7.3	lorasick	sub-06_ses-02_task-ml_proj-lorasick_2020-12-11-14-04-56.373516
275	6	2	6	276	volatile	4	40	16	sv	red	blue	red	blue	left	right	0.30000000000000004	0.7	2	6	0.6000000000000001	4.199999999999998	1	0	0.30000000000000004	0.7	2	6	0.6000000000000001	4.199999999999998	invalid	0.5165550870005973	53248	0	1	2	53248	1	53248	1	53248	1	0.7	53248	blue	red	1	0	ml	2.7.3	lorasick	sub-06_ses-02_task-ml_proj-lorasick_2020-12-11-14-04-56.373516
276	6	2	6	277	volatile	4	40	17	sv	blue	red	red	blue	right	left	0.30000000000000004	0.7	10	2	3.0000000000000004	1.4	1	0	0.7	0.30000000000000004	2	10	1.4	3.0000000000000004	invalid	0.7498177789984766	53248	0	1	1	53248	1	51200	0	53248	1	0.7	51200	blue	red	0	10	ml	2.7.3	lorasick	sub-06_ses-02_task-ml_proj-lorasick_2020-12-11-14-04-56.373516
277	6	2	6	278	volatile	4	40	18	sv	red	blue	red	blue	left	right	0.30000000000000004	0.7	2	2	0.6000000000000001	1.4	0	1	0.30000000000000004	0.7	2	2	0.6000000000000001	1.4	valid	0.633190344000468	53248	0	1	2	53248	1	53248	1	53248	1	0.7	53248	blue	red	0	2	ml	2.7.3	lorasick	sub-06_ses-02_task-ml_proj-lorasick_2020-12-11-14-04-56.373516
278	6	2	6	279	volatile	4	40	19	sv	red	blue	red	blue	left	right	0.30000000000000004	0.7	6	6	1.8000000000000005	4.199999999999998	1	0	0.30000000000000004	0.7	6	6	1.8000000000000005	4.199999999999998	invalid	1.1330440759993508	53248	0	1	2	53248	1	53248	1	53248	1	0.7	53248	blue	red	0	0	ml	2.7.3	lorasick	sub-06_ses-02_task-ml_proj-lorasick_2020-12-11-14-04-56.373516
279	6	2	6	280	volatile	4	40	20	sv	blue	red	red	blue	right	left	0.30000000000000004	0.7	6	2	1.8000000000000005	1.4	0	1	0.7	0.30000000000000004	2	6	1.4	1.8000000000000005	valid	0.6165264749997732	53248	0	1	1	53248	1	51200	0	53248	1	0.7	51200	blue	red	0	0	ml	2.7.3	lorasick	sub-06_ses-02_task-ml_proj-lorasick_2020-12-11-14-04-56.373516
280	6	2	6	281	volatile	4	40	21	sv	blue	red	red	blue	right	left	0.30000000000000004	0.7	4	6	1.2000000000000002	4.199999999999998	0	1	0.7	0.30000000000000004	6	4	4.199999999999998	1.2000000000000002	valid	0.4165720290002355	51200	0	0	2	51200	1	51200	1	51200	1	0.7	51200	blue	red	1	6	ml	2.7.3	lorasick	sub-06_ses-02_task-ml_proj-lorasick_2020-12-11-14-04-56.373516
281	6	2	6	282	volatile	4	40	22	sv	red	blue	red	blue	left	right	0.30000000000000004	0.7	2	10	0.6000000000000001	7.0	0	1	0.30000000000000004	0.7	2	10	0.6000000000000001	7.0	valid	0.3832601550002437	53248	0	1	2	53248	1	53248	1	53248	1	0.7	53248	blue	red	1	10	ml	2.7.3	lorasick	sub-06_ses-02_task-ml_proj-lorasick_2020-12-11-14-04-56.373516
282	6	2	6	283	volatile	4	40	23	sv	red	blue	red	blue	left	right	0.30000000000000004	0.7	6	6	1.8000000000000005	4.199999999999998	0	1	0.30000000000000004	0.7	6	6	1.8000000000000005	4.199999999999998	valid	0.3832599539982766	53248	0	1	2	53248	1	53248	1	53248	1	0.7	53248	blue	red	0	6	ml	2.7.3	lorasick	sub-06_ses-02_task-ml_proj-lorasick_2020-12-11-14-04-56.373516
283	6	2	6	284	volatile	4	40	24	sv	blue	red	red	blue	right	left	0.30000000000000004	0.7	4	6	1.2000000000000002	4.199999999999998	1	0	0.7	0.30000000000000004	6	4	4.199999999999998	1.2000000000000002	invalid	0.34991893699952925	51200	0	0	2	51200	1	51200	1	51200	1	0.7	51200	blue	red	1	0	ml	2.7.3	lorasick	sub-06_ses-02_task-ml_proj-lorasick_2020-12-11-14-04-56.373516
284	6	2	6	285	volatile	4	40	25	sv	blue	red	red	blue	right	left	0.30000000000000004	0.7	2	2	0.6000000000000001	1.4	0	1	0.7	0.30000000000000004	2	2	1.4	0.6000000000000001	valid	0.483225952999419	51200	0	0	2	51200	1	51200	1	53248	0	0.7	51200	blue	red	1	2	ml	2.7.3	lorasick	sub-06_ses-02_task-ml_proj-lorasick_2020-12-11-14-04-56.373516
285	6	2	6	286	volatile	4	40	26	sv	blue	red	red	blue	right	left	0.30000000000000004	0.7	10	2	3.0000000000000004	1.4	0	1	0.7	0.30000000000000004	2	10	1.4	3.0000000000000004	valid	0.5498702210006741	51200	0	0	2	53248	0	51200	1	53248	0	0.7	51200	blue	red	0	2	ml	2.7.3	lorasick	sub-06_ses-02_task-ml_proj-lorasick_2020-12-11-14-04-56.373516
286	6	2	6	287	volatile	4	40	27	sv	red	blue	red	blue	left	right	0.30000000000000004	0.7	4	2	1.2000000000000002	1.4	1	0	0.30000000000000004	0.7	4	2	1.2000000000000002	1.4	invalid	0.3999233009999443	53248	0	1	2	53248	1	53248	1	51200	0	0.7	53248	blue	red	0	0	ml	2.7.3	lorasick	sub-06_ses-02_task-ml_proj-lorasick_2020-12-11-14-04-56.373516
287	6	2	6	288	volatile	4	40	28	sv	red	blue	red	blue	left	right	0.30000000000000004	0.7	2	6	0.6000000000000001	4.199999999999998	0	1	0.30000000000000004	0.7	2	6	0.6000000000000001	4.199999999999998	valid	0.4332403799999156	53248	0	1	2	53248	1	53248	1	53248	1	0.7	53248	blue	red	1	6	ml	2.7.3	lorasick	sub-06_ses-02_task-ml_proj-lorasick_2020-12-11-14-04-56.373516
288	6	2	6	289	volatile	4	40	29	sv	blue	red	red	blue	right	left	0.30000000000000004	0.7	2	6	0.6000000000000001	4.199999999999998	1	0	0.7	0.30000000000000004	6	2	4.199999999999998	0.6000000000000001	invalid	0.8164590020005562	51200	0	0	2	51200	1	51200	1	51200	1	0.7	51200	blue	red	1	0	ml	2.7.3	lorasick	sub-06_ses-02_task-ml_proj-lorasick_2020-12-11-14-04-56.373516
289	6	2	6	290	volatile	4	40	30	sv	red	blue	red	blue	left	right	0.30000000000000004	0.7	10	2	3.0000000000000004	1.4	0	1	0.30000000000000004	0.7	10	2	3.0000000000000004	1.4	valid	0.449906096999257	53248	0	1	2	51200	0	53248	1	51200	0	0.7	53248	blue	red	0	2	ml	2.7.3	lorasick	sub-06_ses-02_task-ml_proj-lorasick_2020-12-11-14-04-56.373516
