Unnamed: 0	sub_id	ses_id	block_no	trial_no	phase_type	phase_no	phase_length	trialInPhase_no	phase_type_order	color_left	color_right	color1	color2	position1	position2	prob1	prob2	mag1	mag2	ev1	ev2	outcome1	outcome2	prob_left	prob_right	mag_left	mag_right	ev_left	ev_right	reward_validity	resp_time	resp_key	timeout	choice_side	choice	ev_corr_resp	ev_correct	prob_corr_resp	prob_correct	mag_corr_resp	mag_correct	high_prob	high_prob_side	high_prob_color	low_prob_color	no_brain	reward	name	version	proj_id	logFileID
0	11	1	1	1	stable	1	200	1	sv	blue	red	blue	red	left	right	0.7	0.30000000000000004	6	4	4.199999999999998	1.2000000000000002	0	1	0.7	0.30000000000000004	6	4	4.199999999999998	1.2000000000000002	invalid	1.149702505001187	51200.0	0	0.0	1.0	51200	1	51200	1	51200	1	0.7	51200	blue	red	1	0	ml	2.7.3	bip	sub-11_ses-01_task-ml_proj-bip_2021-01-26-10-31-55.098950
1	11	1	1	2	stable	1	200	2	sv	blue	red	blue	red	left	right	0.7	0.30000000000000004	2	10	1.4	3.0000000000000004	1	0	0.7	0.30000000000000004	2	10	1.4	3.0000000000000004	valid	0.5498792739999772	53248.0	0	1.0	2.0	53248	1	51200	0	53248	1	0.7	51200	blue	red	0	0	ml	2.7.3	bip	sub-11_ses-01_task-ml_proj-bip_2021-01-26-10-31-55.098950
2	11	1	1	3	stable	1	200	3	sv	blue	red	blue	red	left	right	0.7	0.30000000000000004	4	6	2.8	1.8000000000000005	1	0	0.7	0.30000000000000004	4	6	2.8	1.8000000000000005	valid	0.4665597979983431	51200.0	0	0.0	1.0	51200	1	51200	1	53248	0	0.7	51200	blue	red	0	4	ml	2.7.3	bip	sub-11_ses-01_task-ml_proj-bip_2021-01-26-10-31-55.098950
3	11	1	1	4	stable	1	200	4	sv	red	blue	blue	red	right	left	0.7	0.30000000000000004	6	4	4.199999999999998	1.2000000000000002	1	0	0.30000000000000004	0.7	4	6	1.2000000000000002	4.199999999999998	valid	1.0663885770009074	53248.0	0	1.0	1.0	53248	1	53248	1	53248	1	0.7	53248	blue	red	1	6	ml	2.7.3	bip	sub-11_ses-01_task-ml_proj-bip_2021-01-26-10-31-55.098950
4	11	1	1	5	stable	1	200	5	sv	red	blue	blue	red	right	left	0.7	0.30000000000000004	2	6	1.4	1.8000000000000005	1	0	0.30000000000000004	0.7	6	2	1.8000000000000005	1.4	valid	0.7831692569998268	53248.0	0	1.0	1.0	51200	0	53248	1	51200	0	0.7	53248	blue	red	0	2	ml	2.7.3	bip	sub-11_ses-01_task-ml_proj-bip_2021-01-26-10-31-55.098950
5	11	1	1	6	stable	1	200	6	sv	blue	red	blue	red	left	right	0.7	0.30000000000000004	4	2	2.8	0.6000000000000001	1	0	0.7	0.30000000000000004	4	2	2.8	0.6000000000000001	valid	0.5665331250002055	51200.0	0	0.0	1.0	51200	1	51200	1	51200	1	0.7	51200	blue	red	1	4	ml	2.7.3	bip	sub-11_ses-01_task-ml_proj-bip_2021-01-26-10-31-55.098950
6	11	1	1	7	stable	1	200	7	sv	blue	red	blue	red	left	right	0.7	0.30000000000000004	2	10	1.4	3.0000000000000004	1	0	0.7	0.30000000000000004	2	10	1.4	3.0000000000000004	valid	0.8164492429987149	51200.0	0	0.0	1.0	53248	0	51200	1	53248	0	0.7	51200	blue	red	0	2	ml	2.7.3	bip	sub-11_ses-01_task-ml_proj-bip_2021-01-26-10-31-55.098950
7	11	1	1	8	stable	1	200	8	sv	blue	red	blue	red	left	right	0.7	0.30000000000000004	4	6	2.8	1.8000000000000005	1	0	0.7	0.30000000000000004	4	6	2.8	1.8000000000000005	valid	0.6331767659994512	51200.0	0	0.0	1.0	51200	1	51200	1	53248	0	0.7	51200	blue	red	0	4	ml	2.7.3	bip	sub-11_ses-01_task-ml_proj-bip_2021-01-26-10-31-55.098950
8	11	1	1	9	stable	1	200	9	sv	blue	red	blue	red	left	right	0.7	0.30000000000000004	6	4	4.199999999999998	1.2000000000000002	1	0	0.7	0.30000000000000004	6	4	4.199999999999998	1.2000000000000002	valid	0.5665266619998874	51200.0	0	0.0	1.0	51200	1	51200	1	51200	1	0.7	51200	blue	red	1	6	ml	2.7.3	bip	sub-11_ses-01_task-ml_proj-bip_2021-01-26-10-31-55.098950
9	11	1	1	10	stable	1	200	10	sv	blue	red	blue	red	left	right	0.7	0.30000000000000004	4	2	2.8	0.6000000000000001	0	1	0.7	0.30000000000000004	4	2	2.8	0.6000000000000001	invalid	0.8664436260005459	51200.0	0	0.0	1.0	51200	1	51200	1	51200	1	0.7	51200	blue	red	1	0	ml	2.7.3	bip	sub-11_ses-01_task-ml_proj-bip_2021-01-26-10-31-55.098950
10	11	1	1	11	stable	1	200	11	sv	blue	red	blue	red	left	right	0.7	0.30000000000000004	6	6	4.199999999999998	1.8000000000000005	0	1	0.7	0.30000000000000004	6	6	4.199999999999998	1.8000000000000005	invalid	0.7331469750006363	51200.0	0	0.0	1.0	51200	1	51200	1	53248	0	0.7	51200	blue	red	1	0	ml	2.7.3	bip	sub-11_ses-01_task-ml_proj-bip_2021-01-26-10-31-55.098950
11	11	1	1	12	stable	1	200	12	sv	blue	red	blue	red	left	right	0.7	0.30000000000000004	2	2	1.4	0.6000000000000001	1	0	0.7	0.30000000000000004	2	2	1.4	0.6000000000000001	valid	0.4998896689994581	53248.0	0	1.0	2.0	51200	0	51200	0	53248	1	0.7	51200	blue	red	1	0	ml	2.7.3	bip	sub-11_ses-01_task-ml_proj-bip_2021-01-26-10-31-55.098950
12	11	1	1	13	stable	1	200	13	sv	red	blue	blue	red	right	left	0.7	0.30000000000000004	4	6	2.8	1.8000000000000005	1	0	0.30000000000000004	0.7	6	4	1.8000000000000005	2.8	valid	0.4832198690000951	51200.0	0	0.0	2.0	53248	0	53248	0	51200	1	0.7	53248	blue	red	0	0	ml	2.7.3	bip	sub-11_ses-01_task-ml_proj-bip_2021-01-26-10-31-55.098950
13	11	1	1	14	stable	1	200	14	sv	blue	red	blue	red	left	right	0.7	0.30000000000000004	6	2	4.199999999999998	0.6000000000000001	1	0	0.7	0.30000000000000004	6	2	4.199999999999998	0.6000000000000001	valid	0.8497709069997654	51200.0	0	0.0	1.0	51200	1	51200	1	51200	1	0.7	51200	blue	red	1	6	ml	2.7.3	bip	sub-11_ses-01_task-ml_proj-bip_2021-01-26-10-31-55.098950
14	11	1	1	15	stable	1	200	15	sv	blue	red	blue	red	left	right	0.7	0.30000000000000004	6	2	4.199999999999998	0.6000000000000001	1	0	0.7	0.30000000000000004	6	2	4.199999999999998	0.6000000000000001	valid	0.6831538180013013	51200.0	0	0.0	1.0	51200	1	51200	1	51200	1	0.7	51200	blue	red	1	6	ml	2.7.3	bip	sub-11_ses-01_task-ml_proj-bip_2021-01-26-10-31-55.098950
15	11	1	1	16	stable	1	200	16	sv	red	blue	blue	red	right	left	0.7	0.30000000000000004	6	4	4.199999999999998	1.2000000000000002	1	0	0.30000000000000004	0.7	4	6	1.2000000000000002	4.199999999999998	valid	0.766481577000377	53248.0	0	1.0	1.0	53248	1	53248	1	53248	1	0.7	53248	blue	red	1	6	ml	2.7.3	bip	sub-11_ses-01_task-ml_proj-bip_2021-01-26-10-31-55.098950
16	11	1	1	17	stable	1	200	17	sv	blue	red	blue	red	left	right	0.7	0.30000000000000004	2	4	1.4	1.2000000000000002	0	1	0.7	0.30000000000000004	2	4	1.4	1.2000000000000002	invalid	0.6498383649995958	51200.0	0	0.0	1.0	51200	1	51200	1	53248	0	0.7	51200	blue	red	0	0	ml	2.7.3	bip	sub-11_ses-01_task-ml_proj-bip_2021-01-26-10-31-55.098950
17	11	1	1	18	stable	1	200	18	sv	red	blue	blue	red	right	left	0.7	0.30000000000000004	6	2	4.199999999999998	0.6000000000000001	1	0	0.30000000000000004	0.7	2	6	0.6000000000000001	4.199999999999998	valid	0.6665071930001432	51200.0	0	0.0	2.0	53248	0	53248	0	53248	0	0.7	53248	blue	red	1	0	ml	2.7.3	bip	sub-11_ses-01_task-ml_proj-bip_2021-01-26-10-31-55.098950
18	11	1	1	19	stable	1	200	19	sv	red	blue	blue	red	right	left	0.7	0.30000000000000004	2	2	1.4	0.6000000000000001	1	0	0.30000000000000004	0.7	2	2	0.6000000000000001	1.4	valid	0.5998632259997976	53248.0	0	1.0	1.0	53248	1	53248	1	53248	1	0.7	53248	blue	red	0	2	ml	2.7.3	bip	sub-11_ses-01_task-ml_proj-bip_2021-01-26-10-31-55.098950
19	11	1	1	20	stable	1	200	20	sv	red	blue	blue	red	right	left	0.7	0.30000000000000004	10	2	7.0	0.6000000000000001	1	0	0.30000000000000004	0.7	2	10	0.6000000000000001	7.0	valid	0.7165015259997745	53248.0	0	1.0	1.0	53248	1	53248	1	53248	1	0.7	53248	blue	red	1	10	ml	2.7.3	bip	sub-11_ses-01_task-ml_proj-bip_2021-01-26-10-31-55.098950
20	11	1	1	21	stable	1	200	21	sv	blue	red	blue	red	left	right	0.7	0.30000000000000004	2	10	1.4	3.0000000000000004	0	1	0.7	0.30000000000000004	2	10	1.4	3.0000000000000004	invalid	0.5998535620001348	51200.0	0	0.0	1.0	53248	0	51200	1	53248	0	0.7	51200	blue	red	0	0	ml	2.7.3	bip	sub-11_ses-01_task-ml_proj-bip_2021-01-26-10-31-55.098950
21	11	1	1	22	stable	1	200	22	sv	red	blue	blue	red	right	left	0.7	0.30000000000000004	6	2	4.199999999999998	0.6000000000000001	1	0	0.30000000000000004	0.7	2	6	0.6000000000000001	4.199999999999998	valid	1.216351435999968	53248.0	0	1.0	1.0	53248	1	53248	1	53248	1	0.7	53248	blue	red	1	6	ml	2.7.3	bip	sub-11_ses-01_task-ml_proj-bip_2021-01-26-10-31-55.098950
22	11	1	1	23	stable	1	200	23	sv	blue	red	blue	red	left	right	0.7	0.30000000000000004	4	6	2.8	1.8000000000000005	0	1	0.7	0.30000000000000004	4	6	2.8	1.8000000000000005	invalid	0.5998542480010656	51200.0	0	0.0	1.0	51200	1	51200	1	53248	0	0.7	51200	blue	red	0	0	ml	2.7.3	bip	sub-11_ses-01_task-ml_proj-bip_2021-01-26-10-31-55.098950
23	11	1	1	24	stable	1	200	24	sv	blue	red	blue	red	left	right	0.7	0.30000000000000004	6	4	4.199999999999998	1.2000000000000002	1	0	0.7	0.30000000000000004	6	4	4.199999999999998	1.2000000000000002	valid	0.9164285860006204	51200.0	0	0.0	1.0	51200	1	51200	1	51200	1	0.7	51200	blue	red	1	6	ml	2.7.3	bip	sub-11_ses-01_task-ml_proj-bip_2021-01-26-10-31-55.098950
24	11	1	1	25	stable	1	200	25	sv	blue	red	blue	red	left	right	0.7	0.30000000000000004	6	6	4.199999999999998	1.8000000000000005	1	0	0.7	0.30000000000000004	6	6	4.199999999999998	1.8000000000000005	valid	0.7998027539997565	51200.0	0	0.0	1.0	51200	1	51200	1	53248	0	0.7	51200	blue	red	1	6	ml	2.7.3	bip	sub-11_ses-01_task-ml_proj-bip_2021-01-26-10-31-55.098950
25	11	1	1	26	stable	1	200	26	sv	red	blue	blue	red	right	left	0.7	0.30000000000000004	2	4	1.4	1.2000000000000002	1	0	0.30000000000000004	0.7	4	2	1.2000000000000002	1.4	valid	0.5165492409996659	53248.0	0	1.0	1.0	53248	1	53248	1	51200	0	0.7	53248	blue	red	0	2	ml	2.7.3	bip	sub-11_ses-01_task-ml_proj-bip_2021-01-26-10-31-55.098950
26	11	1	1	27	stable	1	200	27	sv	blue	red	blue	red	left	right	0.7	0.30000000000000004	4	2	2.8	0.6000000000000001	1	0	0.7	0.30000000000000004	4	2	2.8	0.6000000000000001	valid	0.4498970049990021	51200.0	0	0.0	1.0	51200	1	51200	1	51200	1	0.7	51200	blue	red	1	4	ml	2.7.3	bip	sub-11_ses-01_task-ml_proj-bip_2021-01-26-10-31-55.098950
27	11	1	1	28	stable	1	200	28	sv	blue	red	blue	red	left	right	0.7	0.30000000000000004	2	10	1.4	3.0000000000000004	1	0	0.7	0.30000000000000004	2	10	1.4	3.0000000000000004	valid	0.6498392239991517	51200.0	0	0.0	1.0	53248	0	51200	1	53248	0	0.7	51200	blue	red	0	2	ml	2.7.3	bip	sub-11_ses-01_task-ml_proj-bip_2021-01-26-10-31-55.098950
28	11	1	1	29	stable	1	200	29	sv	red	blue	blue	red	right	left	0.7	0.30000000000000004	2	2	1.4	0.6000000000000001	0	1	0.30000000000000004	0.7	2	2	0.6000000000000001	1.4	invalid	0.5498777969987714	53248.0	0	1.0	1.0	53248	1	53248	1	53248	1	0.7	53248	blue	red	0	0	ml	2.7.3	bip	sub-11_ses-01_task-ml_proj-bip_2021-01-26-10-31-55.098950
29	11	1	1	30	stable	1	200	30	sv	red	blue	blue	red	right	left	0.7	0.30000000000000004	6	2	4.199999999999998	0.6000000000000001	1	0	0.30000000000000004	0.7	2	6	0.6000000000000001	4.199999999999998	valid	0.6331866450000234	53248.0	0	1.0	1.0	53248	1	53248	1	53248	1	0.7	53248	blue	red	1	6	ml	2.7.3	bip	sub-11_ses-01_task-ml_proj-bip_2021-01-26-10-31-55.098950
30	11	1	1	31	stable	1	200	31	sv	red	blue	blue	red	right	left	0.7	0.30000000000000004	2	6	1.4	1.8000000000000005	0	1	0.30000000000000004	0.7	6	2	1.8000000000000005	1.4	invalid	0.5498773160015844	53248.0	0	1.0	1.0	51200	0	53248	1	51200	0	0.7	53248	blue	red	0	0	ml	2.7.3	bip	sub-11_ses-01_task-ml_proj-bip_2021-01-26-10-31-55.098950
31	11	1	1	32	stable	1	200	32	sv	red	blue	blue	red	right	left	0.7	0.30000000000000004	6	4	4.199999999999998	1.2000000000000002	1	0	0.30000000000000004	0.7	4	6	1.2000000000000002	4.199999999999998	valid	0.4832236130005185	53248.0	0	1.0	1.0	53248	1	53248	1	53248	1	0.7	53248	blue	red	1	6	ml	2.7.3	bip	sub-11_ses-01_task-ml_proj-bip_2021-01-26-10-31-55.098950
32	11	1	1	33	stable	1	200	33	sv	red	blue	blue	red	right	left	0.7	0.30000000000000004	2	10	1.4	3.0000000000000004	0	1	0.30000000000000004	0.7	10	2	3.0000000000000004	1.4	invalid	0.5165530269987357	53248.0	0	1.0	1.0	51200	0	53248	1	51200	0	0.7	53248	blue	red	0	0	ml	2.7.3	bip	sub-11_ses-01_task-ml_proj-bip_2021-01-26-10-31-55.098950
33	11	1	1	34	stable	1	200	34	sv	red	blue	blue	red	right	left	0.7	0.30000000000000004	6	2	4.199999999999998	0.6000000000000001	1	0	0.30000000000000004	0.7	2	6	0.6000000000000001	4.199999999999998	valid	0.7831445499996335	53248.0	0	1.0	1.0	53248	1	53248	1	53248	1	0.7	53248	blue	red	1	6	ml	2.7.3	bip	sub-11_ses-01_task-ml_proj-bip_2021-01-26-10-31-55.098950
34	11	1	1	35	stable	1	200	35	sv	red	blue	blue	red	right	left	0.7	0.30000000000000004	4	6	2.8	1.8000000000000005	0	1	0.30000000000000004	0.7	6	4	1.8000000000000005	2.8	invalid	0.7164852009991591	51200.0	0	0.0	2.0	53248	0	53248	0	51200	1	0.7	53248	blue	red	0	6	ml	2.7.3	bip	sub-11_ses-01_task-ml_proj-bip_2021-01-26-10-31-55.098950
35	11	1	1	36	stable	1	200	36	sv	blue	red	blue	red	left	right	0.7	0.30000000000000004	4	2	2.8	0.6000000000000001	1	0	0.7	0.30000000000000004	4	2	2.8	0.6000000000000001	valid	1.2163399380006013	51200.0	0	0.0	1.0	51200	1	51200	1	51200	1	0.7	51200	blue	red	1	4	ml	2.7.3	bip	sub-11_ses-01_task-ml_proj-bip_2021-01-26-10-31-55.098950
36	11	1	1	37	stable	1	200	37	sv	blue	red	blue	red	left	right	0.7	0.30000000000000004	6	6	4.199999999999998	1.8000000000000005	1	0	0.7	0.30000000000000004	6	6	4.199999999999998	1.8000000000000005	valid	0.4165836060001311	53248.0	0	1.0	2.0	51200	0	51200	0	53248	1	0.7	51200	blue	red	1	0	ml	2.7.3	bip	sub-11_ses-01_task-ml_proj-bip_2021-01-26-10-31-55.098950
37	11	1	1	38	stable	1	200	38	sv	blue	red	blue	red	left	right	0.7	0.30000000000000004	2	10	1.4	3.0000000000000004	1	0	0.7	0.30000000000000004	2	10	1.4	3.0000000000000004	valid	0.4165736169998127	51200.0	0	0.0	1.0	53248	0	51200	1	53248	0	0.7	51200	blue	red	0	2	ml	2.7.3	bip	sub-11_ses-01_task-ml_proj-bip_2021-01-26-10-31-55.098950
38	11	1	1	39	stable	1	200	39	sv	blue	red	blue	red	left	right	0.7	0.30000000000000004	2	6	1.4	1.8000000000000005	0	1	0.7	0.30000000000000004	2	6	1.4	1.8000000000000005	invalid	0.5665276969994011	51200.0	0	0.0	1.0	53248	0	51200	1	53248	0	0.7	51200	blue	red	0	0	ml	2.7.3	bip	sub-11_ses-01_task-ml_proj-bip_2021-01-26-10-31-55.098950
39	11	1	1	40	stable	1	200	40	sv	blue	red	blue	red	left	right	0.7	0.30000000000000004	6	2	4.199999999999998	0.6000000000000001	1	0	0.7	0.30000000000000004	6	2	4.199999999999998	0.6000000000000001	valid	0.31660278600065794	51200.0	0	0.0	1.0	51200	1	51200	1	51200	1	0.7	51200	blue	red	1	6	ml	2.7.3	bip	sub-11_ses-01_task-ml_proj-bip_2021-01-26-10-31-55.098950
40	11	1	1	41	stable	1	200	41	sv	red	blue	blue	red	right	left	0.7	0.30000000000000004	2	6	1.4	1.8000000000000005	1	0	0.30000000000000004	0.7	6	2	1.8000000000000005	1.4	valid	0.6831618719988909	51200.0	0	0.0	2.0	51200	1	53248	0	51200	1	0.7	53248	blue	red	0	0	ml	2.7.3	bip	sub-11_ses-01_task-ml_proj-bip_2021-01-26-10-31-55.098950
41	11	1	1	42	stable	1	200	42	sv	red	blue	blue	red	right	left	0.7	0.30000000000000004	4	6	2.8	1.8000000000000005	1	0	0.30000000000000004	0.7	6	4	1.8000000000000005	2.8	valid	0.3999196999993728	53248.0	0	1.0	1.0	53248	1	53248	1	51200	0	0.7	53248	blue	red	0	4	ml	2.7.3	bip	sub-11_ses-01_task-ml_proj-bip_2021-01-26-10-31-55.098950
42	11	1	1	43	stable	1	200	43	sv	blue	red	blue	red	left	right	0.7	0.30000000000000004	6	2	4.199999999999998	0.6000000000000001	1	0	0.7	0.30000000000000004	6	2	4.199999999999998	0.6000000000000001	valid	0.4498937989992555	51200.0	0	0.0	1.0	51200	1	51200	1	51200	1	0.7	51200	blue	red	1	6	ml	2.7.3	bip	sub-11_ses-01_task-ml_proj-bip_2021-01-26-10-31-55.098950
43	11	1	1	44	stable	1	200	44	sv	red	blue	blue	red	right	left	0.7	0.30000000000000004	6	6	4.199999999999998	1.8000000000000005	1	0	0.30000000000000004	0.7	6	6	1.8000000000000005	4.199999999999998	valid	0.5998621540002205	53248.0	0	1.0	1.0	53248	1	53248	1	53248	1	0.7	53248	blue	red	0	6	ml	2.7.3	bip	sub-11_ses-01_task-ml_proj-bip_2021-01-26-10-31-55.098950
44	11	1	1	45	stable	1	200	45	sv	blue	red	blue	red	left	right	0.7	0.30000000000000004	2	10	1.4	3.0000000000000004	1	0	0.7	0.30000000000000004	2	10	1.4	3.0000000000000004	valid	0.61651450500176	51200.0	0	0.0	1.0	53248	0	51200	1	53248	0	0.7	51200	blue	red	0	2	ml	2.7.3	bip	sub-11_ses-01_task-ml_proj-bip_2021-01-26-10-31-55.098950
45	11	1	1	46	stable	1	200	46	sv	blue	red	blue	red	left	right	0.7	0.30000000000000004	10	2	7.0	0.6000000000000001	1	0	0.7	0.30000000000000004	10	2	7.0	0.6000000000000001	valid	0.4998753260006197	51200.0	0	0.0	1.0	51200	1	51200	1	51200	1	0.7	51200	blue	red	1	10	ml	2.7.3	bip	sub-11_ses-01_task-ml_proj-bip_2021-01-26-10-31-55.098950
46	11	1	1	47	stable	1	200	47	sv	blue	red	blue	red	left	right	0.7	0.30000000000000004	6	6	4.199999999999998	1.8000000000000005	1	0	0.7	0.30000000000000004	6	6	4.199999999999998	1.8000000000000005	valid	0.6665070369999739	51200.0	0	0.0	1.0	51200	1	51200	1	53248	0	0.7	51200	blue	red	1	6	ml	2.7.3	bip	sub-11_ses-01_task-ml_proj-bip_2021-01-26-10-31-55.098950
47	11	1	1	48	stable	1	200	48	sv	red	blue	blue	red	right	left	0.7	0.30000000000000004	4	2	2.8	0.6000000000000001	1	0	0.30000000000000004	0.7	2	4	0.6000000000000001	2.8	valid	0.5665471280008205	53248.0	0	1.0	1.0	53248	1	53248	1	53248	1	0.7	53248	blue	red	1	4	ml	2.7.3	bip	sub-11_ses-01_task-ml_proj-bip_2021-01-26-10-31-55.098950
48	11	1	1	49	stable	1	200	49	sv	blue	red	blue	red	left	right	0.7	0.30000000000000004	2	10	1.4	3.0000000000000004	0	1	0.7	0.30000000000000004	2	10	1.4	3.0000000000000004	invalid	0.5998455290009588	51200.0	0	0.0	1.0	53248	0	51200	1	53248	0	0.7	51200	blue	red	0	0	ml	2.7.3	bip	sub-11_ses-01_task-ml_proj-bip_2021-01-26-10-31-55.098950
49	11	1	1	50	stable	1	200	50	sv	red	blue	blue	red	right	left	0.7	0.30000000000000004	2	6	1.4	1.8000000000000005	1	0	0.30000000000000004	0.7	6	2	1.8000000000000005	1.4	valid	0.4665710690005653	53248.0	0	1.0	1.0	51200	0	53248	1	51200	0	0.7	53248	blue	red	0	2	ml	2.7.3	bip	sub-11_ses-01_task-ml_proj-bip_2021-01-26-10-31-55.098950
50	11	1	2	51	stable	1	200	51	sv	blue	red	blue	red	left	right	0.7	0.30000000000000004	2	2	1.4	0.6000000000000001	0	1	0.7	0.30000000000000004	2	2	1.4	0.6000000000000001	invalid	1.3163208169989955	53248.0	0	1.0	2.0	51200	0	51200	0	53248	1	0.7	51200	blue	red	1	2	ml	2.7.3	bip	sub-11_ses-01_task-ml_proj-bip_2021-01-26-10-31-55.098950
51	11	1	2	52	stable	1	200	52	sv	red	blue	blue	red	right	left	0.7	0.30000000000000004	10	2	7.0	0.6000000000000001	1	0	0.30000000000000004	0.7	2	10	0.6000000000000001	7.0	valid	1.2496629769993888	51200.0	0	0.0	2.0	53248	0	53248	0	53248	0	0.7	53248	blue	red	1	0	ml	2.7.3	bip	sub-11_ses-01_task-ml_proj-bip_2021-01-26-10-31-55.098950
52	11	1	2	53	stable	1	200	53	sv	red	blue	blue	red	right	left	0.7	0.30000000000000004	10	2	7.0	0.6000000000000001	0	1	0.30000000000000004	0.7	2	10	0.6000000000000001	7.0	invalid	0.4499086169998918	53248.0	0	1.0	1.0	53248	1	53248	1	53248	1	0.7	53248	blue	red	1	0	ml	2.7.3	bip	sub-11_ses-01_task-ml_proj-bip_2021-01-26-10-31-55.098950
53	11	1	2	54	stable	1	200	54	sv	red	blue	blue	red	right	left	0.7	0.30000000000000004	2	4	1.4	1.2000000000000002	1	0	0.30000000000000004	0.7	4	2	1.2000000000000002	1.4	valid	0.4665578999993159	51200.0	0	0.0	2.0	53248	0	53248	0	51200	1	0.7	53248	blue	red	0	0	ml	2.7.3	bip	sub-11_ses-01_task-ml_proj-bip_2021-01-26-10-31-55.098950
54	11	1	2	55	stable	1	200	55	sv	blue	red	blue	red	left	right	0.7	0.30000000000000004	2	6	1.4	1.8000000000000005	0	1	0.7	0.30000000000000004	2	6	1.4	1.8000000000000005	invalid	0.3999236489999021	53248.0	0	1.0	2.0	53248	1	51200	0	53248	1	0.7	51200	blue	red	0	6	ml	2.7.3	bip	sub-11_ses-01_task-ml_proj-bip_2021-01-26-10-31-55.098950
55	11	1	2	56	stable	1	200	56	sv	blue	red	blue	red	left	right	0.7	0.30000000000000004	6	6	4.199999999999998	1.8000000000000005	1	0	0.7	0.30000000000000004	6	6	4.199999999999998	1.8000000000000005	valid	0.3832486690007499	51200.0	0	0.0	1.0	51200	1	51200	1	53248	0	0.7	51200	blue	red	1	6	ml	2.7.3	bip	sub-11_ses-01_task-ml_proj-bip_2021-01-26-10-31-55.098950
56	11	1	2	57	stable	1	200	57	sv	red	blue	blue	red	right	left	0.7	0.30000000000000004	4	2	2.8	0.6000000000000001	1	0	0.30000000000000004	0.7	2	4	0.6000000000000001	2.8	valid	1.3829582020007365	51200.0	0	0.0	2.0	53248	0	53248	0	53248	0	0.7	53248	blue	red	1	0	ml	2.7.3	bip	sub-11_ses-01_task-ml_proj-bip_2021-01-26-10-31-55.098950
57	11	1	2	58	stable	1	200	58	sv	blue	red	blue	red	left	right	0.7	0.30000000000000004	6	6	4.199999999999998	1.8000000000000005	1	0	0.7	0.30000000000000004	6	6	4.199999999999998	1.8000000000000005	valid	0.6498398139992787	51200.0	0	0.0	1.0	51200	1	51200	1	53248	0	0.7	51200	blue	red	1	6	ml	2.7.3	bip	sub-11_ses-01_task-ml_proj-bip_2021-01-26-10-31-55.098950
58	11	1	2	59	stable	1	200	59	sv	red	blue	blue	red	right	left	0.7	0.30000000000000004	6	2	4.199999999999998	0.6000000000000001	1	0	0.30000000000000004	0.7	2	6	0.6000000000000001	4.199999999999998	valid	0.5332166499993036	53248.0	0	1.0	1.0	53248	1	53248	1	53248	1	0.7	53248	blue	red	1	6	ml	2.7.3	bip	sub-11_ses-01_task-ml_proj-bip_2021-01-26-10-31-55.098950
59	11	1	2	60	stable	1	200	60	sv	blue	red	blue	red	left	right	0.7	0.30000000000000004	10	2	7.0	0.6000000000000001	1	0	0.7	0.30000000000000004	10	2	7.0	0.6000000000000001	valid	0.3332667730010144	51200.0	0	0.0	1.0	51200	1	51200	1	51200	1	0.7	51200	blue	red	1	10	ml	2.7.3	bip	sub-11_ses-01_task-ml_proj-bip_2021-01-26-10-31-55.098950
60	11	1	2	61	stable	1	200	61	sv	blue	red	blue	red	left	right	0.7	0.30000000000000004	4	6	2.8	1.8000000000000005	0	1	0.7	0.30000000000000004	4	6	2.8	1.8000000000000005	invalid	0.4665582779998658	51200.0	0	0.0	1.0	51200	1	51200	1	53248	0	0.7	51200	blue	red	0	0	ml	2.7.3	bip	sub-11_ses-01_task-ml_proj-bip_2021-01-26-10-31-55.098950
61	11	1	2	62	stable	1	200	62	sv	red	blue	blue	red	right	left	0.7	0.30000000000000004	4	6	2.8	1.8000000000000005	1	0	0.30000000000000004	0.7	6	4	1.8000000000000005	2.8	valid	0.5665401569985988	53248.0	0	1.0	1.0	53248	1	53248	1	51200	0	0.7	53248	blue	red	0	4	ml	2.7.3	bip	sub-11_ses-01_task-ml_proj-bip_2021-01-26-10-31-55.098950
62	11	1	2	63	stable	1	200	63	sv	red	blue	blue	red	right	left	0.7	0.30000000000000004	6	6	4.199999999999998	1.8000000000000005	0	1	0.30000000000000004	0.7	6	6	1.8000000000000005	4.199999999999998	invalid	0.5165549359990109	53248.0	0	1.0	1.0	53248	1	53248	1	53248	1	0.7	53248	blue	red	0	0	ml	2.7.3	bip	sub-11_ses-01_task-ml_proj-bip_2021-01-26-10-31-55.098950
63	11	1	2	64	stable	1	200	64	sv	blue	red	blue	red	left	right	0.7	0.30000000000000004	2	2	1.4	0.6000000000000001	1	0	0.7	0.30000000000000004	2	2	1.4	0.6000000000000001	valid	0.4665571030000138	51200.0	0	0.0	1.0	51200	1	51200	1	53248	0	0.7	51200	blue	red	1	2	ml	2.7.3	bip	sub-11_ses-01_task-ml_proj-bip_2021-01-26-10-31-55.098950
64	11	1	2	65	stable	1	200	65	sv	blue	red	blue	red	left	right	0.7	0.30000000000000004	4	6	2.8	1.8000000000000005	1	0	0.7	0.30000000000000004	4	6	2.8	1.8000000000000005	valid	0.6831709270009014	53248.0	0	1.0	2.0	51200	0	51200	0	53248	1	0.7	51200	blue	red	0	0	ml	2.7.3	bip	sub-11_ses-01_task-ml_proj-bip_2021-01-26-10-31-55.098950
65	11	1	2	66	stable	1	200	66	sv	red	blue	blue	red	right	left	0.7	0.30000000000000004	2	10	1.4	3.0000000000000004	1	0	0.30000000000000004	0.7	10	2	3.0000000000000004	1.4	valid	0.4665889940006309	53248.0	0	1.0	1.0	51200	0	53248	1	51200	0	0.7	53248	blue	red	0	2	ml	2.7.3	bip	sub-11_ses-01_task-ml_proj-bip_2021-01-26-10-31-55.098950
66	11	1	2	67	stable	1	200	67	sv	red	blue	blue	red	right	left	0.7	0.30000000000000004	6	2	4.199999999999998	0.6000000000000001	1	0	0.30000000000000004	0.7	2	6	0.6000000000000001	4.199999999999998	valid	0.34994455199921504	53248.0	0	1.0	1.0	53248	1	53248	1	53248	1	0.7	53248	blue	red	1	6	ml	2.7.3	bip	sub-11_ses-01_task-ml_proj-bip_2021-01-26-10-31-55.098950
67	11	1	2	68	stable	1	200	68	sv	red	blue	blue	red	right	left	0.7	0.30000000000000004	6	2	4.199999999999998	0.6000000000000001	1	0	0.30000000000000004	0.7	2	6	0.6000000000000001	4.199999999999998	valid	0.38325718399937614	53248.0	0	1.0	1.0	53248	1	53248	1	53248	1	0.7	53248	blue	red	1	6	ml	2.7.3	bip	sub-11_ses-01_task-ml_proj-bip_2021-01-26-10-31-55.098950
68	11	1	2	69	stable	1	200	69	sv	red	blue	blue	red	right	left	0.7	0.30000000000000004	4	2	2.8	0.6000000000000001	0	1	0.30000000000000004	0.7	2	4	0.6000000000000001	2.8	invalid	0.5165494630000467	53248.0	0	1.0	1.0	53248	1	53248	1	53248	1	0.7	53248	blue	red	1	0	ml	2.7.3	bip	sub-11_ses-01_task-ml_proj-bip_2021-01-26-10-31-55.098950
69	11	1	2	70	stable	1	200	70	sv	red	blue	blue	red	right	left	0.7	0.30000000000000004	4	2	2.8	0.6000000000000001	1	0	0.30000000000000004	0.7	2	4	0.6000000000000001	2.8	valid	0.4665750570002274	53248.0	0	1.0	1.0	53248	1	53248	1	53248	1	0.7	53248	blue	red	1	4	ml	2.7.3	bip	sub-11_ses-01_task-ml_proj-bip_2021-01-26-10-31-55.098950
70	11	1	2	71	stable	1	200	71	sv	red	blue	blue	red	right	left	0.7	0.30000000000000004	2	4	1.4	1.2000000000000002	1	0	0.30000000000000004	0.7	4	2	1.2000000000000002	1.4	valid	0.3665962559989566	53248.0	0	1.0	1.0	53248	1	53248	1	51200	0	0.7	53248	blue	red	0	2	ml	2.7.3	bip	sub-11_ses-01_task-ml_proj-bip_2021-01-26-10-31-55.098950
71	11	1	2	72	stable	1	200	72	sv	blue	red	blue	red	left	right	0.7	0.30000000000000004	2	4	1.4	1.2000000000000002	0	1	0.7	0.30000000000000004	2	4	1.4	1.2000000000000002	invalid	0.483216660000835	51200.0	0	0.0	1.0	51200	1	51200	1	53248	0	0.7	51200	blue	red	0	0	ml	2.7.3	bip	sub-11_ses-01_task-ml_proj-bip_2021-01-26-10-31-55.098950
72	11	1	2	73	stable	1	200	73	sv	blue	red	blue	red	left	right	0.7	0.30000000000000004	6	4	4.199999999999998	1.2000000000000002	0	1	0.7	0.30000000000000004	6	4	4.199999999999998	1.2000000000000002	invalid	0.4498952599988115	51200.0	0	0.0	1.0	51200	1	51200	1	51200	1	0.7	51200	blue	red	1	0	ml	2.7.3	bip	sub-11_ses-01_task-ml_proj-bip_2021-01-26-10-31-55.098950
73	11	1	2	74	stable	1	200	74	sv	red	blue	blue	red	right	left	0.7	0.30000000000000004	2	10	1.4	3.0000000000000004	1	0	0.30000000000000004	0.7	10	2	3.0000000000000004	1.4	valid	0.6498373780013935	51200.0	0	0.0	2.0	51200	1	53248	0	51200	1	0.7	53248	blue	red	0	0	ml	2.7.3	bip	sub-11_ses-01_task-ml_proj-bip_2021-01-26-10-31-55.098950
74	11	1	2	75	stable	1	200	75	sv	blue	red	blue	red	left	right	0.7	0.30000000000000004	2	6	1.4	1.8000000000000005	1	0	0.7	0.30000000000000004	2	6	1.4	1.8000000000000005	valid	0.38325033000000985	51200.0	0	0.0	1.0	53248	0	51200	1	53248	0	0.7	51200	blue	red	0	2	ml	2.7.3	bip	sub-11_ses-01_task-ml_proj-bip_2021-01-26-10-31-55.098950
75	11	1	2	76	stable	1	200	76	sv	red	blue	blue	red	right	left	0.7	0.30000000000000004	10	2	7.0	0.6000000000000001	0	1	0.30000000000000004	0.7	2	10	0.6000000000000001	7.0	invalid	0.6165240959999211	53248.0	0	1.0	1.0	53248	1	53248	1	53248	1	0.7	53248	blue	red	1	0	ml	2.7.3	bip	sub-11_ses-01_task-ml_proj-bip_2021-01-26-10-31-55.098950
76	11	1	2	77	stable	1	200	77	sv	blue	red	blue	red	left	right	0.7	0.30000000000000004	4	2	2.8	0.6000000000000001	1	0	0.7	0.30000000000000004	4	2	2.8	0.6000000000000001	valid	0.6998411549993762	53248.0	0	1.0	2.0	51200	0	51200	0	51200	0	0.7	51200	blue	red	1	0	ml	2.7.3	bip	sub-11_ses-01_task-ml_proj-bip_2021-01-26-10-31-55.098950
77	11	1	2	78	stable	1	200	78	sv	red	blue	blue	red	right	left	0.7	0.30000000000000004	6	2	4.199999999999998	0.6000000000000001	1	0	0.30000000000000004	0.7	2	6	0.6000000000000001	4.199999999999998	valid	0.5165547139986302	53248.0	0	1.0	1.0	53248	1	53248	1	53248	1	0.7	53248	blue	red	1	6	ml	2.7.3	bip	sub-11_ses-01_task-ml_proj-bip_2021-01-26-10-31-55.098950
78	11	1	2	79	stable	1	200	79	sv	blue	red	blue	red	left	right	0.7	0.30000000000000004	6	6	4.199999999999998	1.8000000000000005	1	0	0.7	0.30000000000000004	6	6	4.199999999999998	1.8000000000000005	valid	0.4165724300000875	51200.0	0	0.0	1.0	51200	1	51200	1	53248	0	0.7	51200	blue	red	1	6	ml	2.7.3	bip	sub-11_ses-01_task-ml_proj-bip_2021-01-26-10-31-55.098950
79	11	1	2	80	stable	1	200	80	sv	blue	red	blue	red	left	right	0.7	0.30000000000000004	2	2	1.4	0.6000000000000001	1	0	0.7	0.30000000000000004	2	2	1.4	0.6000000000000001	valid	0.6331795090009109	51200.0	0	0.0	1.0	51200	1	51200	1	53248	0	0.7	51200	blue	red	1	2	ml	2.7.3	bip	sub-11_ses-01_task-ml_proj-bip_2021-01-26-10-31-55.098950
80	11	1	2	81	stable	1	200	81	sv	red	blue	blue	red	right	left	0.7	0.30000000000000004	4	6	2.8	1.8000000000000005	0	1	0.30000000000000004	0.7	6	4	1.8000000000000005	2.8	invalid	0.8831156469987036	53248.0	0	1.0	1.0	53248	1	53248	1	51200	0	0.7	53248	blue	red	0	0	ml	2.7.3	bip	sub-11_ses-01_task-ml_proj-bip_2021-01-26-10-31-55.098950
81	11	1	2	82	stable	1	200	82	sv	blue	red	blue	red	left	right	0.7	0.30000000000000004	6	2	4.199999999999998	0.6000000000000001	0	1	0.7	0.30000000000000004	6	2	4.199999999999998	0.6000000000000001	invalid	0.4332342389989208	51200.0	0	0.0	1.0	51200	1	51200	1	51200	1	0.7	51200	blue	red	1	0	ml	2.7.3	bip	sub-11_ses-01_task-ml_proj-bip_2021-01-26-10-31-55.098950
82	11	1	2	83	stable	1	200	83	sv	blue	red	blue	red	left	right	0.7	0.30000000000000004	4	2	2.8	0.6000000000000001	1	0	0.7	0.30000000000000004	4	2	2.8	0.6000000000000001	valid	0.2999393320005765	51200.0	0	0.0	1.0	51200	1	51200	1	51200	1	0.7	51200	blue	red	1	4	ml	2.7.3	bip	sub-11_ses-01_task-ml_proj-bip_2021-01-26-10-31-55.098950
83	11	1	2	84	stable	1	200	84	sv	blue	red	blue	red	left	right	0.7	0.30000000000000004	4	6	2.8	1.8000000000000005	1	0	0.7	0.30000000000000004	4	6	2.8	1.8000000000000005	valid	0.4332351209995977	51200.0	0	0.0	1.0	51200	1	51200	1	53248	0	0.7	51200	blue	red	0	4	ml	2.7.3	bip	sub-11_ses-01_task-ml_proj-bip_2021-01-26-10-31-55.098950
84	11	1	2	85	stable	1	200	85	sv	blue	red	blue	red	left	right	0.7	0.30000000000000004	2	6	1.4	1.8000000000000005	1	0	0.7	0.30000000000000004	2	6	1.4	1.8000000000000005	valid	0.3332620689998293	51200.0	0	0.0	1.0	53248	0	51200	1	53248	0	0.7	51200	blue	red	0	2	ml	2.7.3	bip	sub-11_ses-01_task-ml_proj-bip_2021-01-26-10-31-55.098950
85	11	1	2	86	stable	1	200	86	sv	red	blue	blue	red	right	left	0.7	0.30000000000000004	6	4	4.199999999999998	1.2000000000000002	1	0	0.30000000000000004	0.7	4	6	1.2000000000000002	4.199999999999998	valid	0.8331300560003001	53248.0	0	1.0	1.0	53248	1	53248	1	53248	1	0.7	53248	blue	red	1	6	ml	2.7.3	bip	sub-11_ses-01_task-ml_proj-bip_2021-01-26-10-31-55.098950
86	11	1	2	87	stable	1	200	87	sv	red	blue	blue	red	right	left	0.7	0.30000000000000004	2	4	1.4	1.2000000000000002	0	1	0.30000000000000004	0.7	4	2	1.2000000000000002	1.4	invalid	0.5832016260010278	53248.0	0	1.0	1.0	53248	1	53248	1	51200	0	0.7	53248	blue	red	0	0	ml	2.7.3	bip	sub-11_ses-01_task-ml_proj-bip_2021-01-26-10-31-55.098950
87	11	1	2	88	stable	1	200	88	sv	red	blue	blue	red	right	left	0.7	0.30000000000000004	4	2	2.8	0.6000000000000001	1	0	0.30000000000000004	0.7	2	4	0.6000000000000001	2.8	valid	0.349913062998894	51200.0	0	0.0	2.0	53248	0	53248	0	53248	0	0.7	53248	blue	red	1	0	ml	2.7.3	bip	sub-11_ses-01_task-ml_proj-bip_2021-01-26-10-31-55.098950
88	11	1	2	89	stable	1	200	89	sv	red	blue	blue	red	right	left	0.7	0.30000000000000004	2	6	1.4	1.8000000000000005	0	1	0.30000000000000004	0.7	6	2	1.8000000000000005	1.4	invalid	0.5332132839994301	53248.0	0	1.0	1.0	51200	0	53248	1	51200	0	0.7	53248	blue	red	0	0	ml	2.7.3	bip	sub-11_ses-01_task-ml_proj-bip_2021-01-26-10-31-55.098950
89	11	1	2	90	stable	1	200	90	sv	red	blue	blue	red	right	left	0.7	0.30000000000000004	10	2	7.0	0.6000000000000001	1	0	0.30000000000000004	0.7	2	10	0.6000000000000001	7.0	valid	0.9497553439996408	53248.0	0	1.0	1.0	53248	1	53248	1	53248	1	0.7	53248	blue	red	1	10	ml	2.7.3	bip	sub-11_ses-01_task-ml_proj-bip_2021-01-26-10-31-55.098950
90	11	1	2	91	stable	1	200	91	sv	blue	red	blue	red	left	right	0.7	0.30000000000000004	6	6	4.199999999999998	1.8000000000000005	0	1	0.7	0.30000000000000004	6	6	4.199999999999998	1.8000000000000005	invalid	0.4832196930001373	51200.0	0	0.0	1.0	51200	1	51200	1	53248	0	0.7	51200	blue	red	1	0	ml	2.7.3	bip	sub-11_ses-01_task-ml_proj-bip_2021-01-26-10-31-55.098950
91	11	1	2	92	stable	1	200	92	sv	red	blue	blue	red	right	left	0.7	0.30000000000000004	2	2	1.4	0.6000000000000001	1	0	0.30000000000000004	0.7	2	2	0.6000000000000001	1.4	valid	1.816179072999148	53248.0	0	1.0	1.0	53248	1	53248	1	53248	1	0.7	53248	blue	red	0	2	ml	2.7.3	bip	sub-11_ses-01_task-ml_proj-bip_2021-01-26-10-31-55.098950
92	11	1	2	93	stable	1	200	93	sv	blue	red	blue	red	left	right	0.7	0.30000000000000004	2	6	1.4	1.8000000000000005	0	1	0.7	0.30000000000000004	2	6	1.4	1.8000000000000005	invalid	0.6331854599993676	53248.0	0	1.0	2.0	53248	1	51200	0	53248	1	0.7	51200	blue	red	0	6	ml	2.7.3	bip	sub-11_ses-01_task-ml_proj-bip_2021-01-26-10-31-55.098950
93	11	1	2	94	stable	1	200	94	sv	blue	red	blue	red	left	right	0.7	0.30000000000000004	2	6	1.4	1.8000000000000005	1	0	0.7	0.30000000000000004	2	6	1.4	1.8000000000000005	valid	0.4998735600001965	51200.0	0	0.0	1.0	53248	0	51200	1	53248	0	0.7	51200	blue	red	0	2	ml	2.7.3	bip	sub-11_ses-01_task-ml_proj-bip_2021-01-26-10-31-55.098950
94	11	1	2	95	stable	1	200	95	sv	red	blue	blue	red	right	left	0.7	0.30000000000000004	2	6	1.4	1.8000000000000005	1	0	0.30000000000000004	0.7	6	2	1.8000000000000005	1.4	valid	0.6331763149992184	51200.0	0	0.0	2.0	51200	1	53248	0	51200	1	0.7	53248	blue	red	0	0	ml	2.7.3	bip	sub-11_ses-01_task-ml_proj-bip_2021-01-26-10-31-55.098950
95	11	1	2	96	stable	1	200	96	sv	blue	red	blue	red	left	right	0.7	0.30000000000000004	2	2	1.4	0.6000000000000001	1	0	0.7	0.30000000000000004	2	2	1.4	0.6000000000000001	valid	0.8831098240007123	51200.0	0	0.0	1.0	51200	1	51200	1	53248	0	0.7	51200	blue	red	1	2	ml	2.7.3	bip	sub-11_ses-01_task-ml_proj-bip_2021-01-26-10-31-55.098950
96	11	1	2	97	stable	1	200	97	sv	blue	red	blue	red	left	right	0.7	0.30000000000000004	6	4	4.199999999999998	1.2000000000000002	1	0	0.7	0.30000000000000004	6	4	4.199999999999998	1.2000000000000002	valid	0.5165374569987762	51200.0	0	0.0	1.0	51200	1	51200	1	51200	1	0.7	51200	blue	red	1	6	ml	2.7.3	bip	sub-11_ses-01_task-ml_proj-bip_2021-01-26-10-31-55.098950
97	11	1	2	98	stable	1	200	98	sv	blue	red	blue	red	left	right	0.7	0.30000000000000004	6	2	4.199999999999998	0.6000000000000001	1	0	0.7	0.30000000000000004	6	2	4.199999999999998	0.6000000000000001	valid	0.5498669190001237	51200.0	0	0.0	1.0	51200	1	51200	1	51200	1	0.7	51200	blue	red	1	6	ml	2.7.3	bip	sub-11_ses-01_task-ml_proj-bip_2021-01-26-10-31-55.098950
98	11	1	2	99	stable	1	200	99	sv	blue	red	blue	red	left	right	0.7	0.30000000000000004	2	4	1.4	1.2000000000000002	1	0	0.7	0.30000000000000004	2	4	1.4	1.2000000000000002	valid	0.4498962859997846	51200.0	0	0.0	1.0	51200	1	51200	1	53248	0	0.7	51200	blue	red	0	2	ml	2.7.3	bip	sub-11_ses-01_task-ml_proj-bip_2021-01-26-10-31-55.098950
99	11	1	2	100	stable	1	200	100	sv	red	blue	blue	red	right	left	0.7	0.30000000000000004	6	6	4.199999999999998	1.8000000000000005	1	0	0.30000000000000004	0.7	6	6	1.8000000000000005	4.199999999999998	valid	0.5832092649998231	53248.0	0	1.0	1.0	53248	1	53248	1	53248	1	0.7	53248	blue	red	0	6	ml	2.7.3	bip	sub-11_ses-01_task-ml_proj-bip_2021-01-26-10-31-55.098950
100	11	1	3	101	stable	1	200	101	sv	blue	red	blue	red	left	right	0.7	0.30000000000000004	2	2	1.4	0.6000000000000001	0	1	0.7	0.30000000000000004	2	2	1.4	0.6000000000000001	invalid	1.3996187930006272	51200.0	0	0.0	1.0	51200	1	51200	1	53248	0	0.7	51200	blue	red	1	0	ml	2.7.3	bip	sub-11_ses-01_task-ml_proj-bip_2021-01-26-10-31-55.098950
101	11	1	3	102	stable	1	200	102	sv	red	blue	blue	red	right	left	0.7	0.30000000000000004	4	6	2.8	1.8000000000000005	0	1	0.30000000000000004	0.7	6	4	1.8000000000000005	2.8	invalid	0.6165266709995194	53248.0	0	1.0	1.0	53248	1	53248	1	51200	0	0.7	53248	blue	red	0	0	ml	2.7.3	bip	sub-11_ses-01_task-ml_proj-bip_2021-01-26-10-31-55.098950
102	11	1	3	103	stable	1	200	103	sv	blue	red	blue	red	left	right	0.7	0.30000000000000004	10	2	7.0	0.6000000000000001	1	0	0.7	0.30000000000000004	10	2	7.0	0.6000000000000001	valid	0.43324555000072	53248.0	0	1.0	2.0	51200	0	51200	0	51200	0	0.7	51200	blue	red	1	0	ml	2.7.3	bip	sub-11_ses-01_task-ml_proj-bip_2021-01-26-10-31-55.098950
103	11	1	3	104	stable	1	200	104	sv	blue	red	blue	red	left	right	0.7	0.30000000000000004	4	6	2.8	1.8000000000000005	1	0	0.7	0.30000000000000004	4	6	2.8	1.8000000000000005	valid	1.2330145390005782	53248.0	0	1.0	2.0	51200	0	51200	0	53248	1	0.7	51200	blue	red	0	0	ml	2.7.3	bip	sub-11_ses-01_task-ml_proj-bip_2021-01-26-10-31-55.098950
104	11	1	3	105	stable	1	200	105	sv	red	blue	blue	red	right	left	0.7	0.30000000000000004	6	6	4.199999999999998	1.8000000000000005	0	1	0.30000000000000004	0.7	6	6	1.8000000000000005	4.199999999999998	invalid	0.4832432700004574	53248.0	0	1.0	1.0	53248	1	53248	1	53248	1	0.7	53248	blue	red	0	0	ml	2.7.3	bip	sub-11_ses-01_task-ml_proj-bip_2021-01-26-10-31-55.098950
105	11	1	3	106	stable	1	200	106	sv	blue	red	blue	red	left	right	0.7	0.30000000000000004	2	4	1.4	1.2000000000000002	0	1	0.7	0.30000000000000004	2	4	1.4	1.2000000000000002	invalid	1.6495592150004086	53248.0	0	1.0	2.0	51200	0	51200	0	53248	1	0.7	51200	blue	red	0	4	ml	2.7.3	bip	sub-11_ses-01_task-ml_proj-bip_2021-01-26-10-31-55.098950
106	11	1	3	107	stable	1	200	107	sv	red	blue	blue	red	right	left	0.7	0.30000000000000004	6	4	4.199999999999998	1.2000000000000002	1	0	0.30000000000000004	0.7	4	6	1.2000000000000002	4.199999999999998	valid	0.9997405190006248	53248.0	0	1.0	1.0	53248	1	53248	1	53248	1	0.7	53248	blue	red	1	6	ml	2.7.3	bip	sub-11_ses-01_task-ml_proj-bip_2021-01-26-10-31-55.098950
107	11	1	3	108	stable	1	200	108	sv	red	blue	blue	red	right	left	0.7	0.30000000000000004	2	10	1.4	3.0000000000000004	1	0	0.30000000000000004	0.7	10	2	3.0000000000000004	1.4	valid	0.39991252699837787	53248.0	0	1.0	1.0	51200	0	53248	1	51200	0	0.7	53248	blue	red	0	2	ml	2.7.3	bip	sub-11_ses-01_task-ml_proj-bip_2021-01-26-10-31-55.098950
108	11	1	3	109	stable	1	200	109	sv	red	blue	blue	red	right	left	0.7	0.30000000000000004	10	2	7.0	0.6000000000000001	1	0	0.30000000000000004	0.7	2	10	0.6000000000000001	7.0	valid	0.3665814739997586	51200.0	0	0.0	2.0	53248	0	53248	0	53248	0	0.7	53248	blue	red	1	0	ml	2.7.3	bip	sub-11_ses-01_task-ml_proj-bip_2021-01-26-10-31-55.098950
109	11	1	3	110	stable	1	200	110	sv	red	blue	blue	red	right	left	0.7	0.30000000000000004	2	6	1.4	1.8000000000000005	0	1	0.30000000000000004	0.7	6	2	1.8000000000000005	1.4	invalid	1.1330387170000904	51200.0	0	0.0	2.0	51200	1	53248	0	51200	1	0.7	53248	blue	red	0	6	ml	2.7.3	bip	sub-11_ses-01_task-ml_proj-bip_2021-01-26-10-31-55.098950
110	11	1	3	111	stable	1	200	111	sv	blue	red	blue	red	left	right	0.7	0.30000000000000004	10	2	7.0	0.6000000000000001	1	0	0.7	0.30000000000000004	10	2	7.0	0.6000000000000001	valid	1.266325765998772	51200.0	0	0.0	1.0	51200	1	51200	1	51200	1	0.7	51200	blue	red	1	10	ml	2.7.3	bip	sub-11_ses-01_task-ml_proj-bip_2021-01-26-10-31-55.098950
111	11	1	3	112	stable	1	200	112	sv	blue	red	blue	red	left	right	0.7	0.30000000000000004	2	2	1.4	0.6000000000000001	1	0	0.7	0.30000000000000004	2	2	1.4	0.6000000000000001	valid	0.28327777100093954	51200.0	0	0.0	1.0	51200	1	51200	1	53248	0	0.7	51200	blue	red	1	2	ml	2.7.3	bip	sub-11_ses-01_task-ml_proj-bip_2021-01-26-10-31-55.098950
112	11	1	3	113	stable	1	200	113	sv	red	blue	blue	red	right	left	0.7	0.30000000000000004	2	10	1.4	3.0000000000000004	1	0	0.30000000000000004	0.7	10	2	3.0000000000000004	1.4	valid	0.2332913450009073	51200.0	0	0.0	2.0	51200	1	53248	0	51200	1	0.7	53248	blue	red	0	0	ml	2.7.3	bip	sub-11_ses-01_task-ml_proj-bip_2021-01-26-10-31-55.098950
113	11	1	3	114	stable	1	200	114	sv	blue	red	blue	red	left	right	0.7	0.30000000000000004	4	2	2.8	0.6000000000000001	0	1	0.7	0.30000000000000004	4	2	2.8	0.6000000000000001	invalid	0.3499377159987489	53248.0	0	1.0	2.0	51200	0	51200	0	51200	0	0.7	51200	blue	red	1	2	ml	2.7.3	bip	sub-11_ses-01_task-ml_proj-bip_2021-01-26-10-31-55.098950
114	11	1	3	115	stable	1	200	115	sv	blue	red	blue	red	left	right	0.7	0.30000000000000004	10	2	7.0	0.6000000000000001	1	0	0.7	0.30000000000000004	10	2	7.0	0.6000000000000001	valid	0.7498098790001677	51200.0	0	0.0	1.0	51200	1	51200	1	51200	1	0.7	51200	blue	red	1	10	ml	2.7.3	bip	sub-11_ses-01_task-ml_proj-bip_2021-01-26-10-31-55.098950
115	11	1	3	116	stable	1	200	116	sv	red	blue	blue	red	right	left	0.7	0.30000000000000004	10	2	7.0	0.6000000000000001	0	1	0.30000000000000004	0.7	2	10	0.6000000000000001	7.0	invalid	0.6831765120005002	53248.0	0	1.0	1.0	53248	1	53248	1	53248	1	0.7	53248	blue	red	1	0	ml	2.7.3	bip	sub-11_ses-01_task-ml_proj-bip_2021-01-26-10-31-55.098950
116	11	1	3	117	stable	1	200	117	sv	blue	red	blue	red	left	right	0.7	0.30000000000000004	4	2	2.8	0.6000000000000001	0	1	0.7	0.30000000000000004	4	2	2.8	0.6000000000000001	invalid	0.9830709979996756	51200.0	0	0.0	1.0	51200	1	51200	1	51200	1	0.7	51200	blue	red	1	0	ml	2.7.3	bip	sub-11_ses-01_task-ml_proj-bip_2021-01-26-10-31-55.098950
117	11	1	3	118	stable	1	200	118	sv	blue	red	blue	red	left	right	0.7	0.30000000000000004	10	2	7.0	0.6000000000000001	1	0	0.7	0.30000000000000004	10	2	7.0	0.6000000000000001	valid	0.33326618899991445	53248.0	0	1.0	2.0	51200	0	51200	0	51200	0	0.7	51200	blue	red	1	0	ml	2.7.3	bip	sub-11_ses-01_task-ml_proj-bip_2021-01-26-10-31-55.098950
118	11	1	3	119	stable	1	200	119	sv	blue	red	blue	red	left	right	0.7	0.30000000000000004	4	2	2.8	0.6000000000000001	1	0	0.7	0.30000000000000004	4	2	2.8	0.6000000000000001	valid	0.3499415019996377	53248.0	0	1.0	2.0	51200	0	51200	0	51200	0	0.7	51200	blue	red	1	0	ml	2.7.3	bip	sub-11_ses-01_task-ml_proj-bip_2021-01-26-10-31-55.098950
119	11	1	3	120	stable	1	200	120	sv	blue	red	blue	red	left	right	0.7	0.30000000000000004	10	2	7.0	0.6000000000000001	1	0	0.7	0.30000000000000004	10	2	7.0	0.6000000000000001	valid	0.6498416359991097	53248.0	0	1.0	2.0	51200	0	51200	0	51200	0	0.7	51200	blue	red	1	0	ml	2.7.3	bip	sub-11_ses-01_task-ml_proj-bip_2021-01-26-10-31-55.098950
120	11	1	3	121	stable	1	200	121	sv	red	blue	blue	red	right	left	0.7	0.30000000000000004	2	6	1.4	1.8000000000000005	1	0	0.30000000000000004	0.7	6	2	1.8000000000000005	1.4	valid	0.7997945579991209	51200.0	0	0.0	2.0	51200	1	53248	0	51200	1	0.7	53248	blue	red	0	0	ml	2.7.3	bip	sub-11_ses-01_task-ml_proj-bip_2021-01-26-10-31-55.098950
121	11	1	3	122	stable	1	200	122	sv	blue	red	blue	red	left	right	0.7	0.30000000000000004	6	4	4.199999999999998	1.2000000000000002	1	0	0.7	0.30000000000000004	6	4	4.199999999999998	1.2000000000000002	valid	0.4332414629989216	51200.0	0	0.0	1.0	51200	1	51200	1	51200	1	0.7	51200	blue	red	1	6	ml	2.7.3	bip	sub-11_ses-01_task-ml_proj-bip_2021-01-26-10-31-55.098950
122	11	1	3	123	stable	1	200	123	sv	red	blue	blue	red	right	left	0.7	0.30000000000000004	4	2	2.8	0.6000000000000001	0	1	0.30000000000000004	0.7	2	4	0.6000000000000001	2.8	invalid	0.6664993949998461	51200.0	0	0.0	2.0	53248	0	53248	0	53248	0	0.7	53248	blue	red	1	2	ml	2.7.3	bip	sub-11_ses-01_task-ml_proj-bip_2021-01-26-10-31-55.098950
123	11	1	3	124	stable	1	200	124	sv	blue	red	blue	red	left	right	0.7	0.30000000000000004	6	2	4.199999999999998	0.6000000000000001	1	0	0.7	0.30000000000000004	6	2	4.199999999999998	0.6000000000000001	valid	0.5665287699994224	51200.0	0	0.0	1.0	51200	1	51200	1	51200	1	0.7	51200	blue	red	1	6	ml	2.7.3	bip	sub-11_ses-01_task-ml_proj-bip_2021-01-26-10-31-55.098950
124	11	1	3	125	stable	1	200	125	sv	red	blue	blue	red	right	left	0.7	0.30000000000000004	6	2	4.199999999999998	0.6000000000000001	0	1	0.30000000000000004	0.7	2	6	0.6000000000000001	4.199999999999998	invalid	0.3999094199989486	51200.0	0	0.0	2.0	53248	0	53248	0	53248	0	0.7	53248	blue	red	1	2	ml	2.7.3	bip	sub-11_ses-01_task-ml_proj-bip_2021-01-26-10-31-55.098950
125	11	1	3	126	stable	1	200	126	sv	red	blue	blue	red	right	left	0.7	0.30000000000000004	4	6	2.8	1.8000000000000005	0	1	0.30000000000000004	0.7	6	4	1.8000000000000005	2.8	invalid	1.2496761639995384	53248.0	0	1.0	1.0	53248	1	53248	1	51200	0	0.7	53248	blue	red	0	0	ml	2.7.3	bip	sub-11_ses-01_task-ml_proj-bip_2021-01-26-10-31-55.098950
126	11	1	3	127	stable	1	200	127	sv	blue	red	blue	red	left	right	0.7	0.30000000000000004	6	4	4.199999999999998	1.2000000000000002	1	0	0.7	0.30000000000000004	6	4	4.199999999999998	1.2000000000000002	valid	0.5332128369991551	51200.0	0	0.0	1.0	51200	1	51200	1	51200	1	0.7	51200	blue	red	1	6	ml	2.7.3	bip	sub-11_ses-01_task-ml_proj-bip_2021-01-26-10-31-55.098950
127	11	1	3	128	stable	1	200	128	sv	red	blue	blue	red	right	left	0.7	0.30000000000000004	2	2	1.4	0.6000000000000001	1	0	0.30000000000000004	0.7	2	2	0.6000000000000001	1.4	valid	0.5498670249999122	51200.0	0	0.0	2.0	53248	0	53248	0	53248	0	0.7	53248	blue	red	0	0	ml	2.7.3	bip	sub-11_ses-01_task-ml_proj-bip_2021-01-26-10-31-55.098950
128	11	1	3	129	stable	1	200	129	sv	blue	red	blue	red	left	right	0.7	0.30000000000000004	2	4	1.4	1.2000000000000002	1	0	0.7	0.30000000000000004	2	4	1.4	1.2000000000000002	valid	0.499873798000408	51200.0	0	0.0	1.0	51200	1	51200	1	53248	0	0.7	51200	blue	red	0	2	ml	2.7.3	bip	sub-11_ses-01_task-ml_proj-bip_2021-01-26-10-31-55.098950
129	11	1	3	130	stable	1	200	130	sv	red	blue	blue	red	right	left	0.7	0.30000000000000004	2	6	1.4	1.8000000000000005	1	0	0.30000000000000004	0.7	6	2	1.8000000000000005	1.4	valid	0.8164634770000703	53248.0	0	1.0	1.0	51200	0	53248	1	51200	0	0.7	53248	blue	red	0	2	ml	2.7.3	bip	sub-11_ses-01_task-ml_proj-bip_2021-01-26-10-31-55.098950
130	11	1	3	131	stable	1	200	131	sv	red	blue	blue	red	right	left	0.7	0.30000000000000004	2	10	1.4	3.0000000000000004	1	0	0.30000000000000004	0.7	10	2	3.0000000000000004	1.4	valid	0.3332634910002525	51200.0	0	0.0	2.0	51200	1	53248	0	51200	1	0.7	53248	blue	red	0	0	ml	2.7.3	bip	sub-11_ses-01_task-ml_proj-bip_2021-01-26-10-31-55.098950
131	11	1	3	132	stable	1	200	132	sv	red	blue	blue	red	right	left	0.7	0.30000000000000004	4	2	2.8	0.6000000000000001	1	0	0.30000000000000004	0.7	2	4	0.6000000000000001	2.8	valid	0.3832584920000954	53248.0	0	1.0	1.0	53248	1	53248	1	53248	1	0.7	53248	blue	red	1	4	ml	2.7.3	bip	sub-11_ses-01_task-ml_proj-bip_2021-01-26-10-31-55.098950
132	11	1	3	133	stable	1	200	133	sv	blue	red	blue	red	left	right	0.7	0.30000000000000004	2	6	1.4	1.8000000000000005	0	1	0.7	0.30000000000000004	2	6	1.4	1.8000000000000005	invalid	0.36658419300147216	51200.0	0	0.0	1.0	53248	0	51200	1	53248	0	0.7	51200	blue	red	0	0	ml	2.7.3	bip	sub-11_ses-01_task-ml_proj-bip_2021-01-26-10-31-55.098950
133	11	1	3	134	stable	1	200	134	sv	red	blue	blue	red	right	left	0.7	0.30000000000000004	2	2	1.4	0.6000000000000001	1	0	0.30000000000000004	0.7	2	2	0.6000000000000001	1.4	valid	0.6165249290006614	53248.0	0	1.0	1.0	53248	1	53248	1	53248	1	0.7	53248	blue	red	0	2	ml	2.7.3	bip	sub-11_ses-01_task-ml_proj-bip_2021-01-26-10-31-55.098950
134	11	1	3	135	stable	1	200	135	sv	red	blue	blue	red	right	left	0.7	0.30000000000000004	2	2	1.4	0.6000000000000001	1	0	0.30000000000000004	0.7	2	2	0.6000000000000001	1.4	valid	0.43324421500074095	53248.0	0	1.0	1.0	53248	1	53248	1	53248	1	0.7	53248	blue	red	0	2	ml	2.7.3	bip	sub-11_ses-01_task-ml_proj-bip_2021-01-26-10-31-55.098950
135	11	1	3	136	stable	1	200	136	sv	red	blue	blue	red	right	left	0.7	0.30000000000000004	2	6	1.4	1.8000000000000005	0	1	0.30000000000000004	0.7	6	2	1.8000000000000005	1.4	invalid	0.4999002399999881	53248.0	0	1.0	1.0	51200	0	53248	1	51200	0	0.7	53248	blue	red	0	0	ml	2.7.3	bip	sub-11_ses-01_task-ml_proj-bip_2021-01-26-10-31-55.098950
136	11	1	3	137	stable	1	200	137	sv	blue	red	blue	red	left	right	0.7	0.30000000000000004	6	6	4.199999999999998	1.8000000000000005	1	0	0.7	0.30000000000000004	6	6	4.199999999999998	1.8000000000000005	valid	0.549867843001266	51200.0	0	0.0	1.0	51200	1	51200	1	53248	0	0.7	51200	blue	red	1	6	ml	2.7.3	bip	sub-11_ses-01_task-ml_proj-bip_2021-01-26-10-31-55.098950
137	11	1	3	138	stable	1	200	138	sv	red	blue	blue	red	right	left	0.7	0.30000000000000004	6	2	4.199999999999998	0.6000000000000001	1	0	0.30000000000000004	0.7	2	6	0.6000000000000001	4.199999999999998	valid	0.6331931870008702	53248.0	0	1.0	1.0	53248	1	53248	1	53248	1	0.7	53248	blue	red	1	6	ml	2.7.3	bip	sub-11_ses-01_task-ml_proj-bip_2021-01-26-10-31-55.098950
138	11	1	3	139	stable	1	200	139	sv	red	blue	blue	red	right	left	0.7	0.30000000000000004	4	6	2.8	1.8000000000000005	1	0	0.30000000000000004	0.7	6	4	1.8000000000000005	2.8	valid	0.39992011199865374	53248.0	0	1.0	1.0	53248	1	53248	1	51200	0	0.7	53248	blue	red	0	4	ml	2.7.3	bip	sub-11_ses-01_task-ml_proj-bip_2021-01-26-10-31-55.098950
139	11	1	3	140	stable	1	200	140	sv	red	blue	blue	red	right	left	0.7	0.30000000000000004	2	4	1.4	1.2000000000000002	0	1	0.30000000000000004	0.7	4	2	1.2000000000000002	1.4	invalid	0.34992392400090466	51200.0	0	0.0	2.0	53248	0	53248	0	51200	1	0.7	53248	blue	red	0	4	ml	2.7.3	bip	sub-11_ses-01_task-ml_proj-bip_2021-01-26-10-31-55.098950
140	11	1	3	141	stable	1	200	141	sv	blue	red	blue	red	left	right	0.7	0.30000000000000004	2	4	1.4	1.2000000000000002	1	0	0.7	0.30000000000000004	2	4	1.4	1.2000000000000002	valid	0.7331474349994096	51200.0	0	0.0	1.0	51200	1	51200	1	53248	0	0.7	51200	blue	red	0	2	ml	2.7.3	bip	sub-11_ses-01_task-ml_proj-bip_2021-01-26-10-31-55.098950
141	11	1	3	142	stable	1	200	142	sv	red	blue	blue	red	right	left	0.7	0.30000000000000004	4	2	2.8	0.6000000000000001	1	0	0.30000000000000004	0.7	2	4	0.6000000000000001	2.8	valid	0.39992268599962705	53248.0	0	1.0	1.0	53248	1	53248	1	53248	1	0.7	53248	blue	red	1	4	ml	2.7.3	bip	sub-11_ses-01_task-ml_proj-bip_2021-01-26-10-31-55.098950
142	11	1	3	143	stable	1	200	143	sv	red	blue	blue	red	right	left	0.7	0.30000000000000004	6	6	4.199999999999998	1.8000000000000005	0	1	0.30000000000000004	0.7	6	6	1.8000000000000005	4.199999999999998	invalid	0.5165553879996878	53248.0	0	1.0	1.0	53248	1	53248	1	53248	1	0.7	53248	blue	red	0	0	ml	2.7.3	bip	sub-11_ses-01_task-ml_proj-bip_2021-01-26-10-31-55.098950
143	11	1	3	144	stable	1	200	144	sv	blue	red	blue	red	left	right	0.7	0.30000000000000004	10	2	7.0	0.6000000000000001	0	1	0.7	0.30000000000000004	10	2	7.0	0.6000000000000001	invalid	0.5831995190001179	53248.0	0	1.0	2.0	51200	0	51200	0	51200	0	0.7	51200	blue	red	1	2	ml	2.7.3	bip	sub-11_ses-01_task-ml_proj-bip_2021-01-26-10-31-55.098950
144	11	1	3	145	stable	1	200	145	sv	red	blue	blue	red	right	left	0.7	0.30000000000000004	4	6	2.8	1.8000000000000005	1	0	0.30000000000000004	0.7	6	4	1.8000000000000005	2.8	valid	1.3829706420001455	53248.0	0	1.0	1.0	53248	1	53248	1	51200	0	0.7	53248	blue	red	0	4	ml	2.7.3	bip	sub-11_ses-01_task-ml_proj-bip_2021-01-26-10-31-55.098950
145	11	1	3	146	stable	1	200	146	sv	blue	red	blue	red	left	right	0.7	0.30000000000000004	2	6	1.4	1.8000000000000005	0	1	0.7	0.30000000000000004	2	6	1.4	1.8000000000000005	invalid	0.6664986880005017	51200.0	0	0.0	1.0	53248	0	51200	1	53248	0	0.7	51200	blue	red	0	0	ml	2.7.3	bip	sub-11_ses-01_task-ml_proj-bip_2021-01-26-10-31-55.098950
146	11	1	3	147	stable	1	200	147	sv	blue	red	blue	red	left	right	0.7	0.30000000000000004	6	6	4.199999999999998	1.8000000000000005	1	0	0.7	0.30000000000000004	6	6	4.199999999999998	1.8000000000000005	valid	1.849493068000811	51200.0	0	0.0	1.0	51200	1	51200	1	53248	0	0.7	51200	blue	red	1	6	ml	2.7.3	bip	sub-11_ses-01_task-ml_proj-bip_2021-01-26-10-31-55.098950
147	11	1	3	148	stable	1	200	148	sv	blue	red	blue	red	left	right	0.7	0.30000000000000004	4	2	2.8	0.6000000000000001	0	1	0.7	0.30000000000000004	4	2	2.8	0.6000000000000001	invalid	0.399922010001319	53248.0	0	1.0	2.0	51200	0	51200	0	51200	0	0.7	51200	blue	red	1	2	ml	2.7.3	bip	sub-11_ses-01_task-ml_proj-bip_2021-01-26-10-31-55.098950
148	11	1	3	149	stable	1	200	149	sv	red	blue	blue	red	right	left	0.7	0.30000000000000004	2	10	1.4	3.0000000000000004	1	0	0.30000000000000004	0.7	10	2	3.0000000000000004	1.4	valid	0.9164387840010022	53248.0	0	1.0	1.0	51200	0	53248	1	51200	0	0.7	53248	blue	red	0	2	ml	2.7.3	bip	sub-11_ses-01_task-ml_proj-bip_2021-01-26-10-31-55.098950
149	11	1	3	150	stable	1	200	150	sv	red	blue	blue	red	right	left	0.7	0.30000000000000004	2	2	1.4	0.6000000000000001	0	1	0.30000000000000004	0.7	2	2	0.6000000000000001	1.4	invalid	0.31660247600120783	51200.0	0	0.0	2.0	53248	0	53248	0	53248	0	0.7	53248	blue	red	0	2	ml	2.7.3	bip	sub-11_ses-01_task-ml_proj-bip_2021-01-26-10-31-55.098950
150	11	1	4	151	stable	1	200	151	sv	blue	red	blue	red	left	right	0.7	0.30000000000000004	4	6	2.8	1.8000000000000005	1	0	0.7	0.30000000000000004	4	6	2.8	1.8000000000000005	valid	1.499610669001413	53248.0	0	1.0	2.0	51200	0	51200	0	53248	1	0.7	51200	blue	red	0	0	ml	2.7.3	bip	sub-11_ses-01_task-ml_proj-bip_2021-01-26-10-31-55.098950
151	11	1	4	152	stable	1	200	152	sv	blue	red	blue	red	left	right	0.7	0.30000000000000004	2	4	1.4	1.2000000000000002	1	0	0.7	0.30000000000000004	2	4	1.4	1.2000000000000002	valid	0.4332442260001699	53248.0	0	1.0	2.0	51200	0	51200	0	53248	1	0.7	51200	blue	red	0	0	ml	2.7.3	bip	sub-11_ses-01_task-ml_proj-bip_2021-01-26-10-31-55.098950
152	11	1	4	153	stable	1	200	153	sv	red	blue	blue	red	right	left	0.7	0.30000000000000004	6	6	4.199999999999998	1.8000000000000005	1	0	0.30000000000000004	0.7	6	6	1.8000000000000005	4.199999999999998	valid	0.5831908769996517	51200.0	0	0.0	2.0	53248	0	53248	0	53248	0	0.7	53248	blue	red	0	0	ml	2.7.3	bip	sub-11_ses-01_task-ml_proj-bip_2021-01-26-10-31-55.098950
153	11	1	4	154	stable	1	200	154	sv	red	blue	blue	red	right	left	0.7	0.30000000000000004	6	2	4.199999999999998	0.6000000000000001	0	1	0.30000000000000004	0.7	2	6	0.6000000000000001	4.199999999999998	invalid	0.4499115250000614	53248.0	0	1.0	1.0	53248	1	53248	1	53248	1	0.7	53248	blue	red	1	0	ml	2.7.3	bip	sub-11_ses-01_task-ml_proj-bip_2021-01-26-10-31-55.098950
154	11	1	4	155	stable	1	200	155	sv	blue	red	blue	red	left	right	0.7	0.30000000000000004	2	6	1.4	1.8000000000000005	1	0	0.7	0.30000000000000004	2	6	1.4	1.8000000000000005	valid	0.366585990999738	51200.0	0	0.0	1.0	53248	0	51200	1	53248	0	0.7	51200	blue	red	0	2	ml	2.7.3	bip	sub-11_ses-01_task-ml_proj-bip_2021-01-26-10-31-55.098950
155	11	1	4	156	stable	1	200	156	sv	blue	red	blue	red	left	right	0.7	0.30000000000000004	10	2	7.0	0.6000000000000001	0	1	0.7	0.30000000000000004	10	2	7.0	0.6000000000000001	invalid	0.4165714579994528	51200.0	0	0.0	1.0	51200	1	51200	1	51200	1	0.7	51200	blue	red	1	0	ml	2.7.3	bip	sub-11_ses-01_task-ml_proj-bip_2021-01-26-10-31-55.098950
156	11	1	4	157	stable	1	200	157	sv	red	blue	blue	red	right	left	0.7	0.30000000000000004	2	2	1.4	0.6000000000000001	1	0	0.30000000000000004	0.7	2	2	0.6000000000000001	1.4	valid	0.5165551080008299	53248.0	0	1.0	1.0	53248	1	53248	1	53248	1	0.7	53248	blue	red	0	2	ml	2.7.3	bip	sub-11_ses-01_task-ml_proj-bip_2021-01-26-10-31-55.098950
157	11	1	4	158	stable	1	200	158	sv	red	blue	blue	red	right	left	0.7	0.30000000000000004	4	2	2.8	0.6000000000000001	1	0	0.30000000000000004	0.7	2	4	0.6000000000000001	2.8	valid	0.5498841279986664	53248.0	0	1.0	1.0	53248	1	53248	1	53248	1	0.7	53248	blue	red	1	4	ml	2.7.3	bip	sub-11_ses-01_task-ml_proj-bip_2021-01-26-10-31-55.098950
158	11	1	4	159	stable	1	200	159	sv	blue	red	blue	red	left	right	0.7	0.30000000000000004	10	2	7.0	0.6000000000000001	1	0	0.7	0.30000000000000004	10	2	7.0	0.6000000000000001	valid	0.4998811959994782	51200.0	0	0.0	1.0	51200	1	51200	1	51200	1	0.7	51200	blue	red	1	10	ml	2.7.3	bip	sub-11_ses-01_task-ml_proj-bip_2021-01-26-10-31-55.098950
159	11	1	4	160	stable	1	200	160	sv	blue	red	blue	red	left	right	0.7	0.30000000000000004	6	4	4.199999999999998	1.2000000000000002	1	0	0.7	0.30000000000000004	6	4	4.199999999999998	1.2000000000000002	valid	0.4499125269994693	53248.0	0	1.0	2.0	51200	0	51200	0	51200	0	0.7	51200	blue	red	1	0	ml	2.7.3	bip	sub-11_ses-01_task-ml_proj-bip_2021-01-26-10-31-55.098950
160	11	1	4	161	stable	1	200	161	sv	blue	red	blue	red	left	right	0.7	0.30000000000000004	4	6	2.8	1.8000000000000005	1	0	0.7	0.30000000000000004	4	6	2.8	1.8000000000000005	valid	0.33326436999959697	51200.0	0	0.0	1.0	51200	1	51200	1	53248	0	0.7	51200	blue	red	0	4	ml	2.7.3	bip	sub-11_ses-01_task-ml_proj-bip_2021-01-26-10-31-55.098950
161	11	1	4	162	stable	1	200	162	sv	blue	red	blue	red	left	right	0.7	0.30000000000000004	2	10	1.4	3.0000000000000004	1	0	0.7	0.30000000000000004	2	10	1.4	3.0000000000000004	valid	0.5332220330001292	53248.0	0	1.0	2.0	53248	1	51200	0	53248	1	0.7	51200	blue	red	0	0	ml	2.7.3	bip	sub-11_ses-01_task-ml_proj-bip_2021-01-26-10-31-55.098950
162	11	1	4	163	stable	1	200	163	sv	red	blue	blue	red	right	left	0.7	0.30000000000000004	6	4	4.199999999999998	1.2000000000000002	1	0	0.30000000000000004	0.7	4	6	1.2000000000000002	4.199999999999998	valid	0.3999217669988866	53248.0	0	1.0	1.0	53248	1	53248	1	53248	1	0.7	53248	blue	red	1	6	ml	2.7.3	bip	sub-11_ses-01_task-ml_proj-bip_2021-01-26-10-31-55.098950
163	11	1	4	164	stable	1	200	164	sv	blue	red	blue	red	left	right	0.7	0.30000000000000004	4	2	2.8	0.6000000000000001	1	0	0.7	0.30000000000000004	4	2	2.8	0.6000000000000001	valid	0.5498685490001662	51200.0	0	0.0	1.0	51200	1	51200	1	51200	1	0.7	51200	blue	red	1	4	ml	2.7.3	bip	sub-11_ses-01_task-ml_proj-bip_2021-01-26-10-31-55.098950
164	11	1	4	165	stable	1	200	165	sv	red	blue	blue	red	right	left	0.7	0.30000000000000004	6	6	4.199999999999998	1.8000000000000005	1	0	0.30000000000000004	0.7	6	6	1.8000000000000005	4.199999999999998	valid	0.5332165869986056	53248.0	0	1.0	1.0	53248	1	53248	1	53248	1	0.7	53248	blue	red	0	6	ml	2.7.3	bip	sub-11_ses-01_task-ml_proj-bip_2021-01-26-10-31-55.098950
165	11	1	4	166	stable	1	200	166	sv	red	blue	blue	red	right	left	0.7	0.30000000000000004	2	2	1.4	0.6000000000000001	1	0	0.30000000000000004	0.7	2	2	0.6000000000000001	1.4	valid	0.5498765249994904	53248.0	0	1.0	1.0	53248	1	53248	1	53248	1	0.7	53248	blue	red	0	2	ml	2.7.3	bip	sub-11_ses-01_task-ml_proj-bip_2021-01-26-10-31-55.098950
166	11	1	4	167	stable	1	200	167	sv	blue	red	blue	red	left	right	0.7	0.30000000000000004	4	2	2.8	0.6000000000000001	1	0	0.7	0.30000000000000004	4	2	2.8	0.6000000000000001	valid	0.34992991400031315	51200.0	0	0.0	1.0	51200	1	51200	1	51200	1	0.7	51200	blue	red	1	4	ml	2.7.3	bip	sub-11_ses-01_task-ml_proj-bip_2021-01-26-10-31-55.098950
167	11	1	4	168	stable	1	200	168	sv	red	blue	blue	red	right	left	0.7	0.30000000000000004	4	6	2.8	1.8000000000000005	0	1	0.30000000000000004	0.7	6	4	1.8000000000000005	2.8	invalid	0.3665965420004795	53248.0	0	1.0	1.0	53248	1	53248	1	51200	0	0.7	53248	blue	red	0	0	ml	2.7.3	bip	sub-11_ses-01_task-ml_proj-bip_2021-01-26-10-31-55.098950
168	11	1	4	169	stable	1	200	169	sv	red	blue	blue	red	right	left	0.7	0.30000000000000004	4	2	2.8	0.6000000000000001	1	0	0.30000000000000004	0.7	2	4	0.6000000000000001	2.8	valid	0.3665980780006066	53248.0	0	1.0	1.0	53248	1	53248	1	53248	1	0.7	53248	blue	red	1	4	ml	2.7.3	bip	sub-11_ses-01_task-ml_proj-bip_2021-01-26-10-31-55.098950
169	11	1	4	170	stable	1	200	170	sv	red	blue	blue	red	right	left	0.7	0.30000000000000004	10	2	7.0	0.6000000000000001	1	0	0.30000000000000004	0.7	2	10	0.6000000000000001	7.0	valid	0.3332729649991961	53248.0	0	1.0	1.0	53248	1	53248	1	53248	1	0.7	53248	blue	red	1	10	ml	2.7.3	bip	sub-11_ses-01_task-ml_proj-bip_2021-01-26-10-31-55.098950
170	11	1	4	171	stable	1	200	171	sv	blue	red	blue	red	left	right	0.7	0.30000000000000004	2	10	1.4	3.0000000000000004	0	1	0.7	0.30000000000000004	2	10	1.4	3.0000000000000004	invalid	0.6498378439991939	51200.0	0	0.0	1.0	53248	0	51200	1	53248	0	0.7	51200	blue	red	0	0	ml	2.7.3	bip	sub-11_ses-01_task-ml_proj-bip_2021-01-26-10-31-55.098950
171	11	1	4	172	stable	1	200	172	sv	red	blue	blue	red	right	left	0.7	0.30000000000000004	6	6	4.199999999999998	1.8000000000000005	0	1	0.30000000000000004	0.7	6	6	1.8000000000000005	4.199999999999998	invalid	0.38325931699910143	53248.0	0	1.0	1.0	53248	1	53248	1	53248	1	0.7	53248	blue	red	0	0	ml	2.7.3	bip	sub-11_ses-01_task-ml_proj-bip_2021-01-26-10-31-55.098950
172	11	1	4	173	stable	1	200	173	sv	red	blue	blue	red	right	left	0.7	0.30000000000000004	6	4	4.199999999999998	1.2000000000000002	1	0	0.30000000000000004	0.7	4	6	1.2000000000000002	4.199999999999998	valid	0.6165242189999844	53248.0	0	1.0	1.0	53248	1	53248	1	53248	1	0.7	53248	blue	red	1	6	ml	2.7.3	bip	sub-11_ses-01_task-ml_proj-bip_2021-01-26-10-31-55.098950
173	11	1	4	174	stable	1	200	174	sv	red	blue	blue	red	right	left	0.7	0.30000000000000004	6	6	4.199999999999998	1.8000000000000005	1	0	0.30000000000000004	0.7	6	6	1.8000000000000005	4.199999999999998	valid	0.5332150350004667	53248.0	0	1.0	1.0	53248	1	53248	1	53248	1	0.7	53248	blue	red	0	6	ml	2.7.3	bip	sub-11_ses-01_task-ml_proj-bip_2021-01-26-10-31-55.098950
174	11	1	4	175	stable	1	200	175	sv	red	blue	blue	red	right	left	0.7	0.30000000000000004	2	6	1.4	1.8000000000000005	0	1	0.30000000000000004	0.7	6	2	1.8000000000000005	1.4	invalid	0.5498749289999978	53248.0	0	1.0	1.0	51200	0	53248	1	51200	0	0.7	53248	blue	red	0	0	ml	2.7.3	bip	sub-11_ses-01_task-ml_proj-bip_2021-01-26-10-31-55.098950
175	11	1	4	176	stable	1	200	176	sv	blue	red	blue	red	left	right	0.7	0.30000000000000004	4	2	2.8	0.6000000000000001	0	1	0.7	0.30000000000000004	4	2	2.8	0.6000000000000001	invalid	0.9497624089999591	53248.0	0	1.0	2.0	51200	0	51200	0	51200	0	0.7	51200	blue	red	1	2	ml	2.7.3	bip	sub-11_ses-01_task-ml_proj-bip_2021-01-26-10-31-55.098950
176	11	1	4	177	stable	1	200	177	sv	red	blue	blue	red	right	left	0.7	0.30000000000000004	4	2	2.8	0.6000000000000001	1	0	0.30000000000000004	0.7	2	4	0.6000000000000001	2.8	valid	0.3832920439999725	53248.0	0	1.0	1.0	53248	1	53248	1	53248	1	0.7	53248	blue	red	1	4	ml	2.7.3	bip	sub-11_ses-01_task-ml_proj-bip_2021-01-26-10-31-55.098950
177	11	1	4	178	stable	1	200	178	sv	red	blue	blue	red	right	left	0.7	0.30000000000000004	6	4	4.199999999999998	1.2000000000000002	0	1	0.30000000000000004	0.7	4	6	1.2000000000000002	4.199999999999998	invalid	0.4499074439991091	53248.0	0	1.0	1.0	53248	1	53248	1	53248	1	0.7	53248	blue	red	1	0	ml	2.7.3	bip	sub-11_ses-01_task-ml_proj-bip_2021-01-26-10-31-55.098950
178	11	1	4	179	stable	1	200	179	sv	blue	red	blue	red	left	right	0.7	0.30000000000000004	6	4	4.199999999999998	1.2000000000000002	0	1	0.7	0.30000000000000004	6	4	4.199999999999998	1.2000000000000002	invalid	0.7664730950000376	51200.0	0	0.0	1.0	51200	1	51200	1	51200	1	0.7	51200	blue	red	1	0	ml	2.7.3	bip	sub-11_ses-01_task-ml_proj-bip_2021-01-26-10-31-55.098950
179	11	1	4	180	stable	1	200	180	sv	blue	red	blue	red	left	right	0.7	0.30000000000000004	4	2	2.8	0.6000000000000001	1	0	0.7	0.30000000000000004	4	2	2.8	0.6000000000000001	valid	0.5165551449990744	53248.0	0	1.0	2.0	51200	0	51200	0	51200	0	0.7	51200	blue	red	1	0	ml	2.7.3	bip	sub-11_ses-01_task-ml_proj-bip_2021-01-26-10-31-55.098950
180	11	1	4	181	stable	1	200	181	sv	red	blue	blue	red	right	left	0.7	0.30000000000000004	6	6	4.199999999999998	1.8000000000000005	1	0	0.30000000000000004	0.7	6	6	1.8000000000000005	4.199999999999998	valid	0.3499260249991494	51200.0	0	0.0	2.0	53248	0	53248	0	53248	0	0.7	53248	blue	red	0	0	ml	2.7.3	bip	sub-11_ses-01_task-ml_proj-bip_2021-01-26-10-31-55.098950
181	11	1	4	182	stable	1	200	182	sv	blue	red	blue	red	left	right	0.7	0.30000000000000004	2	2	1.4	0.6000000000000001	1	0	0.7	0.30000000000000004	2	2	1.4	0.6000000000000001	valid	0.3332610189991101	51200.0	0	0.0	1.0	51200	1	51200	1	53248	0	0.7	51200	blue	red	1	2	ml	2.7.3	bip	sub-11_ses-01_task-ml_proj-bip_2021-01-26-10-31-55.098950
182	11	1	4	183	stable	1	200	183	sv	blue	red	blue	red	left	right	0.7	0.30000000000000004	2	10	1.4	3.0000000000000004	1	0	0.7	0.30000000000000004	2	10	1.4	3.0000000000000004	valid	0.3999120909993508	51200.0	0	0.0	1.0	53248	0	51200	1	53248	0	0.7	51200	blue	red	0	2	ml	2.7.3	bip	sub-11_ses-01_task-ml_proj-bip_2021-01-26-10-31-55.098950
183	11	1	4	184	stable	1	200	184	sv	red	blue	blue	red	right	left	0.7	0.30000000000000004	6	4	4.199999999999998	1.2000000000000002	1	0	0.30000000000000004	0.7	4	6	1.2000000000000002	4.199999999999998	valid	0.7331598350010609	53248.0	0	1.0	1.0	53248	1	53248	1	53248	1	0.7	53248	blue	red	1	6	ml	2.7.3	bip	sub-11_ses-01_task-ml_proj-bip_2021-01-26-10-31-55.098950
184	11	1	4	185	stable	1	200	185	sv	red	blue	blue	red	right	left	0.7	0.30000000000000004	4	2	2.8	0.6000000000000001	0	1	0.30000000000000004	0.7	2	4	0.6000000000000001	2.8	invalid	0.3832593309998629	53248.0	0	1.0	1.0	53248	1	53248	1	53248	1	0.7	53248	blue	red	1	0	ml	2.7.3	bip	sub-11_ses-01_task-ml_proj-bip_2021-01-26-10-31-55.098950
185	11	1	4	186	stable	1	200	186	sv	blue	red	blue	red	left	right	0.7	0.30000000000000004	2	10	1.4	3.0000000000000004	1	0	0.7	0.30000000000000004	2	10	1.4	3.0000000000000004	valid	0.5165414330003841	51200.0	0	0.0	1.0	53248	0	51200	1	53248	0	0.7	51200	blue	red	0	2	ml	2.7.3	bip	sub-11_ses-01_task-ml_proj-bip_2021-01-26-10-31-55.098950
186	11	1	4	187	stable	1	200	187	sv	red	blue	blue	red	right	left	0.7	0.30000000000000004	2	6	1.4	1.8000000000000005	0	1	0.30000000000000004	0.7	6	2	1.8000000000000005	1.4	invalid	0.5665412339985778	53248.0	0	1.0	1.0	51200	0	53248	1	51200	0	0.7	53248	blue	red	0	0	ml	2.7.3	bip	sub-11_ses-01_task-ml_proj-bip_2021-01-26-10-31-55.098950
187	11	1	4	188	stable	1	200	188	sv	red	blue	blue	red	right	left	0.7	0.30000000000000004	2	4	1.4	1.2000000000000002	1	0	0.30000000000000004	0.7	4	2	1.2000000000000002	1.4	valid	0.5331988600009936	51200.0	0	0.0	2.0	53248	0	53248	0	51200	1	0.7	53248	blue	red	0	0	ml	2.7.3	bip	sub-11_ses-01_task-ml_proj-bip_2021-01-26-10-31-55.098950
188	11	1	4	189	stable	1	200	189	sv	red	blue	blue	red	right	left	0.7	0.30000000000000004	2	2	1.4	0.6000000000000001	1	0	0.30000000000000004	0.7	2	2	0.6000000000000001	1.4	valid	0.4832292000010057	53248.0	0	1.0	1.0	53248	1	53248	1	53248	1	0.7	53248	blue	red	0	2	ml	2.7.3	bip	sub-11_ses-01_task-ml_proj-bip_2021-01-26-10-31-55.098950
189	11	1	4	190	stable	1	200	190	sv	blue	red	blue	red	left	right	0.7	0.30000000000000004	10	2	7.0	0.6000000000000001	1	0	0.7	0.30000000000000004	10	2	7.0	0.6000000000000001	valid	0.3499233179991279	51200.0	0	0.0	1.0	51200	1	51200	1	51200	1	0.7	51200	blue	red	1	10	ml	2.7.3	bip	sub-11_ses-01_task-ml_proj-bip_2021-01-26-10-31-55.098950
190	11	1	4	191	stable	1	200	191	sv	red	blue	blue	red	right	left	0.7	0.30000000000000004	4	2	2.8	0.6000000000000001	1	0	0.30000000000000004	0.7	2	4	0.6000000000000001	2.8	valid	0.5331974290002108	51200.0	0	0.0	2.0	53248	0	53248	0	53248	0	0.7	53248	blue	red	1	0	ml	2.7.3	bip	sub-11_ses-01_task-ml_proj-bip_2021-01-26-10-31-55.098950
191	11	1	4	192	stable	1	200	192	sv	red	blue	blue	red	right	left	0.7	0.30000000000000004	2	2	1.4	0.6000000000000001	0	1	0.30000000000000004	0.7	2	2	0.6000000000000001	1.4	invalid	0.4332292310009507	51200.0	0	0.0	2.0	53248	0	53248	0	53248	0	0.7	53248	blue	red	0	2	ml	2.7.3	bip	sub-11_ses-01_task-ml_proj-bip_2021-01-26-10-31-55.098950
192	11	1	4	193	stable	1	200	193	sv	red	blue	blue	red	right	left	0.7	0.30000000000000004	2	10	1.4	3.0000000000000004	1	0	0.30000000000000004	0.7	10	2	3.0000000000000004	1.4	valid	0.6331861849994311	51200.0	0	0.0	2.0	51200	1	53248	0	51200	1	0.7	53248	blue	red	0	0	ml	2.7.3	bip	sub-11_ses-01_task-ml_proj-bip_2021-01-26-10-31-55.098950
193	11	1	4	194	stable	1	200	194	sv	blue	red	blue	red	left	right	0.7	0.30000000000000004	6	2	4.199999999999998	0.6000000000000001	0	1	0.7	0.30000000000000004	6	2	4.199999999999998	0.6000000000000001	invalid	0.4332296949996817	51200.0	0	0.0	1.0	51200	1	51200	1	51200	1	0.7	51200	blue	red	1	0	ml	2.7.3	bip	sub-11_ses-01_task-ml_proj-bip_2021-01-26-10-31-55.098950
194	11	1	4	195	stable	1	200	195	sv	blue	red	blue	red	left	right	0.7	0.30000000000000004	2	10	1.4	3.0000000000000004	1	0	0.7	0.30000000000000004	2	10	1.4	3.0000000000000004	valid	0.9164373709991196	51200.0	0	0.0	1.0	53248	0	51200	1	53248	0	0.7	51200	blue	red	0	2	ml	2.7.3	bip	sub-11_ses-01_task-ml_proj-bip_2021-01-26-10-31-55.098950
195	11	1	4	196	stable	1	200	196	sv	red	blue	blue	red	right	left	0.7	0.30000000000000004	2	10	1.4	3.0000000000000004	1	0	0.30000000000000004	0.7	10	2	3.0000000000000004	1.4	valid	0.3499359439992986	53248.0	0	1.0	1.0	51200	0	53248	1	51200	0	0.7	53248	blue	red	0	2	ml	2.7.3	bip	sub-11_ses-01_task-ml_proj-bip_2021-01-26-10-31-55.098950
196	11	1	4	197	stable	1	200	197	sv	red	blue	blue	red	right	left	0.7	0.30000000000000004	4	6	2.8	1.8000000000000005	1	0	0.30000000000000004	0.7	6	4	1.8000000000000005	2.8	valid	0.5498770249996596	53248.0	0	1.0	1.0	53248	1	53248	1	51200	0	0.7	53248	blue	red	0	4	ml	2.7.3	bip	sub-11_ses-01_task-ml_proj-bip_2021-01-26-10-31-55.098950
197	11	1	4	198	stable	1	200	198	sv	blue	red	blue	red	left	right	0.7	0.30000000000000004	4	6	2.8	1.8000000000000005	1	0	0.7	0.30000000000000004	4	6	2.8	1.8000000000000005	valid	0.5165418600008707	51200.0	0	0.0	1.0	51200	1	51200	1	53248	0	0.7	51200	blue	red	0	4	ml	2.7.3	bip	sub-11_ses-01_task-ml_proj-bip_2021-01-26-10-31-55.098950
198	11	1	4	199	stable	1	200	199	sv	blue	red	blue	red	left	right	0.7	0.30000000000000004	4	6	2.8	1.8000000000000005	1	0	0.7	0.30000000000000004	4	6	2.8	1.8000000000000005	valid	0.4165720599994529	51200.0	0	0.0	1.0	51200	1	51200	1	53248	0	0.7	51200	blue	red	0	4	ml	2.7.3	bip	sub-11_ses-01_task-ml_proj-bip_2021-01-26-10-31-55.098950
199	11	1	4	200	stable	1	200	200	sv	blue	red	blue	red	left	right	0.7	0.30000000000000004	2	2	1.4	0.6000000000000001	0	1	0.7	0.30000000000000004	2	2	1.4	0.6000000000000001	invalid	0.3999116849990969	51200.0	0	0.0	1.0	51200	1	51200	1	53248	0	0.7	51200	blue	red	1	0	ml	2.7.3	bip	sub-11_ses-01_task-ml_proj-bip_2021-01-26-10-31-55.098950
200	11	1	5	201	volatile	2	20	1	sv	blue	red	blue	red	left	right	0.30000000000000004	0.7	2	4	0.6000000000000001	2.8	1	0	0.30000000000000004	0.7	2	4	0.6000000000000001	2.8	invalid	1.7661851970005955	53248.0	0	1.0	2.0	53248	1	53248	1	53248	1	0.7	53248	red	blue	1	0	ml	2.7.3	bip	sub-11_ses-01_task-ml_proj-bip_2021-01-26-10-31-55.098950
201	11	1	5	202	volatile	2	20	2	sv	red	blue	blue	red	right	left	0.30000000000000004	0.7	6	6	1.8000000000000005	4.199999999999998	0	1	0.7	0.30000000000000004	6	6	4.199999999999998	1.8000000000000005	valid	0.4998821290009801	51200.0	0	0.0	2.0	51200	1	51200	1	53248	0	0.7	51200	red	blue	1	6	ml	2.7.3	bip	sub-11_ses-01_task-ml_proj-bip_2021-01-26-10-31-55.098950
202	11	1	5	203	volatile	2	20	3	sv	red	blue	blue	red	right	left	0.30000000000000004	0.7	2	6	0.6000000000000001	4.199999999999998	0	1	0.7	0.30000000000000004	6	2	4.199999999999998	0.6000000000000001	valid	0.5332270380004047	53248.0	0	1.0	1.0	51200	0	51200	0	51200	0	0.7	51200	red	blue	1	0	ml	2.7.3	bip	sub-11_ses-01_task-ml_proj-bip_2021-01-26-10-31-55.098950
203	11	1	5	204	volatile	2	20	4	sv	blue	red	blue	red	left	right	0.30000000000000004	0.7	2	10	0.6000000000000001	7.0	0	1	0.30000000000000004	0.7	2	10	0.6000000000000001	7.0	valid	0.5998626750006224	53248.0	0	1.0	2.0	53248	1	53248	1	53248	1	0.7	53248	red	blue	1	10	ml	2.7.3	bip	sub-11_ses-01_task-ml_proj-bip_2021-01-26-10-31-55.098950
204	11	1	5	205	volatile	2	20	5	sv	red	blue	blue	red	right	left	0.30000000000000004	0.7	2	2	0.6000000000000001	1.4	1	0	0.7	0.30000000000000004	2	2	1.4	0.6000000000000001	invalid	0.3832527870017657	51200.0	0	0.0	2.0	51200	1	51200	1	53248	0	0.7	51200	red	blue	1	0	ml	2.7.3	bip	sub-11_ses-01_task-ml_proj-bip_2021-01-26-10-31-55.098950
205	11	1	5	206	volatile	2	20	6	sv	blue	red	blue	red	left	right	0.30000000000000004	0.7	4	2	1.2000000000000002	1.4	0	1	0.30000000000000004	0.7	4	2	1.2000000000000002	1.4	valid	0.5998725659992488	53248.0	0	1.0	2.0	53248	1	53248	1	51200	0	0.7	53248	red	blue	0	2	ml	2.7.3	bip	sub-11_ses-01_task-ml_proj-bip_2021-01-26-10-31-55.098950
206	11	1	5	207	volatile	2	20	7	sv	blue	red	blue	red	left	right	0.30000000000000004	0.7	2	6	0.6000000000000001	4.199999999999998	1	0	0.30000000000000004	0.7	2	6	0.6000000000000001	4.199999999999998	invalid	0.39992066500053625	53248.0	0	1.0	2.0	53248	1	53248	1	53248	1	0.7	53248	red	blue	1	0	ml	2.7.3	bip	sub-11_ses-01_task-ml_proj-bip_2021-01-26-10-31-55.098950
207	11	1	5	208	volatile	2	20	8	sv	red	blue	blue	red	right	left	0.30000000000000004	0.7	2	6	0.6000000000000001	4.199999999999998	0	1	0.7	0.30000000000000004	6	2	4.199999999999998	0.6000000000000001	valid	0.5665318470000784	51200.0	0	0.0	2.0	51200	1	51200	1	51200	1	0.7	51200	red	blue	1	6	ml	2.7.3	bip	sub-11_ses-01_task-ml_proj-bip_2021-01-26-10-31-55.098950
208	11	1	5	209	volatile	2	20	9	sv	red	blue	blue	red	right	left	0.30000000000000004	0.7	6	6	1.8000000000000005	4.199999999999998	0	1	0.7	0.30000000000000004	6	6	4.199999999999998	1.8000000000000005	valid	0.44989449700005935	51200.0	0	0.0	2.0	51200	1	51200	1	53248	0	0.7	51200	red	blue	1	6	ml	2.7.3	bip	sub-11_ses-01_task-ml_proj-bip_2021-01-26-10-31-55.098950
209	11	1	5	210	volatile	2	20	10	sv	blue	red	blue	red	left	right	0.30000000000000004	0.7	6	4	1.8000000000000005	2.8	0	1	0.30000000000000004	0.7	6	4	1.8000000000000005	2.8	valid	0.4165852890000679	53248.0	0	1.0	2.0	53248	1	53248	1	51200	0	0.7	53248	red	blue	0	4	ml	2.7.3	bip	sub-11_ses-01_task-ml_proj-bip_2021-01-26-10-31-55.098950
210	11	1	5	211	volatile	2	20	11	sv	red	blue	blue	red	right	left	0.30000000000000004	0.7	2	2	0.6000000000000001	1.4	1	0	0.7	0.30000000000000004	2	2	1.4	0.6000000000000001	invalid	0.5832007359986164	53248.0	0	1.0	1.0	51200	0	51200	0	53248	1	0.7	51200	red	blue	1	2	ml	2.7.3	bip	sub-11_ses-01_task-ml_proj-bip_2021-01-26-10-31-55.098950
211	11	1	5	212	volatile	2	20	12	sv	red	blue	blue	red	right	left	0.30000000000000004	0.7	6	4	1.8000000000000005	2.8	1	0	0.7	0.30000000000000004	4	6	2.8	1.8000000000000005	invalid	0.6331774460013548	51200.0	0	0.0	2.0	51200	1	51200	1	53248	0	0.7	51200	red	blue	0	0	ml	2.7.3	bip	sub-11_ses-01_task-ml_proj-bip_2021-01-26-10-31-55.098950
212	11	1	5	213	volatile	2	20	13	sv	blue	red	blue	red	left	right	0.30000000000000004	0.7	4	2	1.2000000000000002	1.4	0	1	0.30000000000000004	0.7	4	2	1.2000000000000002	1.4	valid	0.9497645899991768	53248.0	0	1.0	2.0	53248	1	53248	1	51200	0	0.7	53248	red	blue	0	2	ml	2.7.3	bip	sub-11_ses-01_task-ml_proj-bip_2021-01-26-10-31-55.098950
213	11	1	5	214	volatile	2	20	14	sv	blue	red	blue	red	left	right	0.30000000000000004	0.7	10	2	3.0000000000000004	1.4	0	1	0.30000000000000004	0.7	10	2	3.0000000000000004	1.4	valid	0.5831990709993988	53248.0	0	1.0	2.0	51200	0	53248	1	51200	0	0.7	53248	red	blue	0	2	ml	2.7.3	bip	sub-11_ses-01_task-ml_proj-bip_2021-01-26-10-31-55.098950
214	11	1	5	215	volatile	2	20	15	sv	blue	red	blue	red	left	right	0.30000000000000004	0.7	2	4	0.6000000000000001	2.8	0	1	0.30000000000000004	0.7	2	4	0.6000000000000001	2.8	valid	0.6831759709984908	53248.0	0	1.0	2.0	53248	1	53248	1	53248	1	0.7	53248	red	blue	1	4	ml	2.7.3	bip	sub-11_ses-01_task-ml_proj-bip_2021-01-26-10-31-55.098950
215	11	1	5	216	volatile	2	20	16	sv	blue	red	blue	red	left	right	0.30000000000000004	0.7	10	2	3.0000000000000004	1.4	1	0	0.30000000000000004	0.7	10	2	3.0000000000000004	1.4	invalid	0.58318844400128	51200.0	0	0.0	1.0	51200	1	53248	0	51200	1	0.7	53248	red	blue	0	10	ml	2.7.3	bip	sub-11_ses-01_task-ml_proj-bip_2021-01-26-10-31-55.098950
216	11	1	5	217	volatile	2	20	17	sv	red	blue	blue	red	right	left	0.30000000000000004	0.7	6	2	1.8000000000000005	1.4	0	1	0.7	0.30000000000000004	2	6	1.4	1.8000000000000005	valid	0.8164653690000705	53248.0	0	1.0	1.0	53248	1	51200	0	53248	1	0.7	51200	red	blue	0	0	ml	2.7.3	bip	sub-11_ses-01_task-ml_proj-bip_2021-01-26-10-31-55.098950
217	11	1	5	218	volatile	2	20	18	sv	red	blue	blue	red	right	left	0.30000000000000004	0.7	4	6	1.2000000000000002	4.199999999999998	0	1	0.7	0.30000000000000004	6	4	4.199999999999998	1.2000000000000002	valid	0.7831517139984498	53248.0	0	1.0	1.0	51200	0	51200	0	51200	0	0.7	51200	red	blue	1	0	ml	2.7.3	bip	sub-11_ses-01_task-ml_proj-bip_2021-01-26-10-31-55.098950
218	11	1	5	219	volatile	2	20	19	sv	red	blue	blue	red	right	left	0.30000000000000004	0.7	6	4	1.8000000000000005	2.8	0	1	0.7	0.30000000000000004	4	6	2.8	1.8000000000000005	valid	0.7997868140009814	51200.0	0	0.0	2.0	51200	1	51200	1	53248	0	0.7	51200	red	blue	0	4	ml	2.7.3	bip	sub-11_ses-01_task-ml_proj-bip_2021-01-26-10-31-55.098950
219	11	1	5	220	volatile	2	20	20	sv	blue	red	blue	red	left	right	0.30000000000000004	0.7	2	10	0.6000000000000001	7.0	0	1	0.30000000000000004	0.7	2	10	0.6000000000000001	7.0	valid	0.5165547139986302	53248.0	0	1.0	2.0	53248	1	53248	1	53248	1	0.7	53248	red	blue	1	10	ml	2.7.3	bip	sub-11_ses-01_task-ml_proj-bip_2021-01-26-10-31-55.098950
220	11	1	5	221	volatile	3	40	1	sv	red	blue	blue	red	right	left	0.7	0.30000000000000004	2	4	1.4	1.2000000000000002	1	0	0.30000000000000004	0.7	4	2	1.2000000000000002	1.4	valid	0.3832781309993152	51200.0	0	0.0	2.0	53248	0	53248	0	51200	1	0.7	53248	blue	red	0	0	ml	2.7.3	bip	sub-11_ses-01_task-ml_proj-bip_2021-01-26-10-31-55.098950
221	11	1	5	222	volatile	3	40	2	sv	red	blue	blue	red	right	left	0.7	0.30000000000000004	6	2	4.199999999999998	0.6000000000000001	1	0	0.30000000000000004	0.7	2	6	0.6000000000000001	4.199999999999998	valid	2.9824988010004745	nan	1	nan	nan	53248	0	53248	0	53248	0	0.7	53248	blue	red	1	0	ml	2.7.3	bip	sub-11_ses-01_task-ml_proj-bip_2021-01-26-10-31-55.098950
222	11	1	5	223	volatile	3	40	3	sv	blue	red	blue	red	left	right	0.7	0.30000000000000004	10	2	7.0	0.6000000000000001	0	1	0.7	0.30000000000000004	10	2	7.0	0.6000000000000001	invalid	0.43324301199936605	53248.0	0	1.0	2.0	51200	0	51200	0	51200	0	0.7	51200	blue	red	1	2	ml	2.7.3	bip	sub-11_ses-01_task-ml_proj-bip_2021-01-26-10-31-55.098950
223	11	1	5	224	volatile	3	40	4	sv	red	blue	blue	red	right	left	0.7	0.30000000000000004	6	4	4.199999999999998	1.2000000000000002	1	0	0.30000000000000004	0.7	4	6	1.2000000000000002	4.199999999999998	valid	0.43322799499947	51200.0	0	0.0	2.0	53248	0	53248	0	53248	0	0.7	53248	blue	red	1	0	ml	2.7.3	bip	sub-11_ses-01_task-ml_proj-bip_2021-01-26-10-31-55.098950
224	11	1	5	225	volatile	3	40	5	sv	red	blue	blue	red	right	left	0.7	0.30000000000000004	10	2	7.0	0.6000000000000001	0	1	0.30000000000000004	0.7	2	10	0.6000000000000001	7.0	invalid	0.4998888809986966	53248.0	0	1.0	1.0	53248	1	53248	1	53248	1	0.7	53248	blue	red	1	0	ml	2.7.3	bip	sub-11_ses-01_task-ml_proj-bip_2021-01-26-10-31-55.098950
225	11	1	5	226	volatile	3	40	6	sv	blue	red	blue	red	left	right	0.7	0.30000000000000004	10	2	7.0	0.6000000000000001	1	0	0.7	0.30000000000000004	10	2	7.0	0.6000000000000001	valid	0.383261336999567	53248.0	0	1.0	2.0	51200	0	51200	0	51200	0	0.7	51200	blue	red	1	0	ml	2.7.3	bip	sub-11_ses-01_task-ml_proj-bip_2021-01-26-10-31-55.098950
226	11	1	5	227	volatile	3	40	7	sv	blue	red	blue	red	left	right	0.7	0.30000000000000004	2	6	1.4	1.8000000000000005	0	1	0.7	0.30000000000000004	2	6	1.4	1.8000000000000005	invalid	1.066405888999725	53248.0	0	1.0	2.0	53248	1	51200	0	53248	1	0.7	51200	blue	red	0	6	ml	2.7.3	bip	sub-11_ses-01_task-ml_proj-bip_2021-01-26-10-31-55.098950
227	11	1	5	228	volatile	3	40	8	sv	blue	red	blue	red	left	right	0.7	0.30000000000000004	6	2	4.199999999999998	0.6000000000000001	1	0	0.7	0.30000000000000004	6	2	4.199999999999998	0.6000000000000001	valid	0.3499421310007165	53248.0	0	1.0	2.0	51200	0	51200	0	51200	0	0.7	51200	blue	red	1	0	ml	2.7.3	bip	sub-11_ses-01_task-ml_proj-bip_2021-01-26-10-31-55.098950
228	11	1	5	229	volatile	3	40	9	sv	blue	red	blue	red	left	right	0.7	0.30000000000000004	6	6	4.199999999999998	1.8000000000000005	1	0	0.7	0.30000000000000004	6	6	4.199999999999998	1.8000000000000005	valid	0.4165731330012932	51200.0	0	0.0	1.0	51200	1	51200	1	53248	0	0.7	51200	blue	red	1	6	ml	2.7.3	bip	sub-11_ses-01_task-ml_proj-bip_2021-01-26-10-31-55.098950
229	11	1	5	230	volatile	3	40	10	sv	red	blue	blue	red	right	left	0.7	0.30000000000000004	2	4	1.4	1.2000000000000002	1	0	0.30000000000000004	0.7	4	2	1.2000000000000002	1.4	valid	0.41659015499863017	53248.0	0	1.0	1.0	53248	1	53248	1	51200	0	0.7	53248	blue	red	0	2	ml	2.7.3	bip	sub-11_ses-01_task-ml_proj-bip_2021-01-26-10-31-55.098950
230	11	1	5	231	volatile	3	40	11	sv	blue	red	blue	red	left	right	0.7	0.30000000000000004	2	2	1.4	0.6000000000000001	0	1	0.7	0.30000000000000004	2	2	1.4	0.6000000000000001	invalid	0.383247145000496	51200.0	0	0.0	1.0	51200	1	51200	1	53248	0	0.7	51200	blue	red	1	0	ml	2.7.3	bip	sub-11_ses-01_task-ml_proj-bip_2021-01-26-10-31-55.098950
231	11	1	5	232	volatile	3	40	12	sv	blue	red	blue	red	left	right	0.7	0.30000000000000004	4	6	2.8	1.8000000000000005	0	1	0.7	0.30000000000000004	4	6	2.8	1.8000000000000005	invalid	0.4165693799986912	51200.0	0	0.0	1.0	51200	1	51200	1	53248	0	0.7	51200	blue	red	0	0	ml	2.7.3	bip	sub-11_ses-01_task-ml_proj-bip_2021-01-26-10-31-55.098950
232	11	1	5	233	volatile	3	40	13	sv	blue	red	blue	red	left	right	0.7	0.30000000000000004	2	4	1.4	1.2000000000000002	1	0	0.7	0.30000000000000004	2	4	1.4	1.2000000000000002	valid	0.5165515469998354	53248.0	0	1.0	2.0	51200	0	51200	0	53248	1	0.7	51200	blue	red	0	0	ml	2.7.3	bip	sub-11_ses-01_task-ml_proj-bip_2021-01-26-10-31-55.098950
233	11	1	5	234	volatile	3	40	14	sv	blue	red	blue	red	left	right	0.7	0.30000000000000004	10	2	7.0	0.6000000000000001	1	0	0.7	0.30000000000000004	10	2	7.0	0.6000000000000001	valid	0.3166031020009541	51200.0	0	0.0	1.0	51200	1	51200	1	51200	1	0.7	51200	blue	red	1	10	ml	2.7.3	bip	sub-11_ses-01_task-ml_proj-bip_2021-01-26-10-31-55.098950
234	11	1	5	235	volatile	3	40	15	sv	blue	red	blue	red	left	right	0.7	0.30000000000000004	2	6	1.4	1.8000000000000005	1	0	0.7	0.30000000000000004	2	6	1.4	1.8000000000000005	valid	0.366585010999188	51200.0	0	0.0	1.0	53248	0	51200	1	53248	0	0.7	51200	blue	red	0	2	ml	2.7.3	bip	sub-11_ses-01_task-ml_proj-bip_2021-01-26-10-31-55.098950
235	11	1	5	236	volatile	3	40	16	sv	blue	red	blue	red	left	right	0.7	0.30000000000000004	2	4	1.4	1.2000000000000002	1	0	0.7	0.30000000000000004	2	4	1.4	1.2000000000000002	valid	0.5665396580006927	53248.0	0	1.0	2.0	51200	0	51200	0	53248	1	0.7	51200	blue	red	0	0	ml	2.7.3	bip	sub-11_ses-01_task-ml_proj-bip_2021-01-26-10-31-55.098950
236	11	1	5	237	volatile	3	40	17	sv	blue	red	blue	red	left	right	0.7	0.30000000000000004	6	4	4.199999999999998	1.2000000000000002	1	0	0.7	0.30000000000000004	6	4	4.199999999999998	1.2000000000000002	valid	0.4665564319984696	51200.0	0	0.0	1.0	51200	1	51200	1	51200	1	0.7	51200	blue	red	1	6	ml	2.7.3	bip	sub-11_ses-01_task-ml_proj-bip_2021-01-26-10-31-55.098950
237	11	1	5	238	volatile	3	40	18	sv	blue	red	blue	red	left	right	0.7	0.30000000000000004	4	2	2.8	0.6000000000000001	0	1	0.7	0.30000000000000004	4	2	2.8	0.6000000000000001	invalid	0.3332618830008869	51200.0	0	0.0	1.0	51200	1	51200	1	51200	1	0.7	51200	blue	red	1	0	ml	2.7.3	bip	sub-11_ses-01_task-ml_proj-bip_2021-01-26-10-31-55.098950
238	11	1	5	239	volatile	3	40	19	sv	blue	red	blue	red	left	right	0.7	0.30000000000000004	2	2	1.4	0.6000000000000001	1	0	0.7	0.30000000000000004	2	2	1.4	0.6000000000000001	valid	0.4332346350001899	51200.0	0	0.0	1.0	51200	1	51200	1	53248	0	0.7	51200	blue	red	1	2	ml	2.7.3	bip	sub-11_ses-01_task-ml_proj-bip_2021-01-26-10-31-55.098950
239	11	1	5	240	volatile	3	40	20	sv	red	blue	blue	red	right	left	0.7	0.30000000000000004	10	2	7.0	0.6000000000000001	1	0	0.30000000000000004	0.7	2	10	0.6000000000000001	7.0	valid	0.4998907819990563	53248.0	0	1.0	1.0	53248	1	53248	1	53248	1	0.7	53248	blue	red	1	10	ml	2.7.3	bip	sub-11_ses-01_task-ml_proj-bip_2021-01-26-10-31-55.098950
240	11	1	5	241	volatile	3	40	21	sv	red	blue	blue	red	right	left	0.7	0.30000000000000004	2	6	1.4	1.8000000000000005	1	0	0.30000000000000004	0.7	6	2	1.8000000000000005	1.4	valid	0.5998686689999886	53248.0	0	1.0	1.0	51200	0	53248	1	51200	0	0.7	53248	blue	red	0	2	ml	2.7.3	bip	sub-11_ses-01_task-ml_proj-bip_2021-01-26-10-31-55.098950
241	11	1	5	242	volatile	3	40	22	sv	red	blue	blue	red	right	left	0.7	0.30000000000000004	10	2	7.0	0.6000000000000001	0	1	0.30000000000000004	0.7	2	10	0.6000000000000001	7.0	invalid	0.13333294599942747	53248.0	0	1.0	1.0	53248	1	53248	1	53248	1	0.7	53248	blue	red	1	0	ml	2.7.3	bip	sub-11_ses-01_task-ml_proj-bip_2021-01-26-10-31-55.098950
242	11	1	5	243	volatile	3	40	23	sv	blue	red	blue	red	left	right	0.7	0.30000000000000004	6	6	4.199999999999998	1.8000000000000005	0	1	0.7	0.30000000000000004	6	6	4.199999999999998	1.8000000000000005	invalid	1.0997051699996518	51200.0	0	0.0	1.0	51200	1	51200	1	53248	0	0.7	51200	blue	red	1	0	ml	2.7.3	bip	sub-11_ses-01_task-ml_proj-bip_2021-01-26-10-31-55.098950
243	11	1	5	244	volatile	3	40	24	sv	blue	red	blue	red	left	right	0.7	0.30000000000000004	6	4	4.199999999999998	1.2000000000000002	1	0	0.7	0.30000000000000004	6	4	4.199999999999998	1.2000000000000002	valid	0.5165436940005748	51200.0	0	0.0	1.0	51200	1	51200	1	51200	1	0.7	51200	blue	red	1	6	ml	2.7.3	bip	sub-11_ses-01_task-ml_proj-bip_2021-01-26-10-31-55.098950
244	11	1	5	245	volatile	3	40	25	sv	blue	red	blue	red	left	right	0.7	0.30000000000000004	2	4	1.4	1.2000000000000002	1	0	0.7	0.30000000000000004	2	4	1.4	1.2000000000000002	valid	0.533202701000846	51200.0	0	0.0	1.0	51200	1	51200	1	53248	0	0.7	51200	blue	red	0	2	ml	2.7.3	bip	sub-11_ses-01_task-ml_proj-bip_2021-01-26-10-31-55.098950
245	11	1	5	246	volatile	3	40	26	sv	red	blue	blue	red	right	left	0.7	0.30000000000000004	2	2	1.4	0.6000000000000001	0	1	0.30000000000000004	0.7	2	2	0.6000000000000001	1.4	invalid	0.4832286050004768	53248.0	0	1.0	1.0	53248	1	53248	1	53248	1	0.7	53248	blue	red	0	0	ml	2.7.3	bip	sub-11_ses-01_task-ml_proj-bip_2021-01-26-10-31-55.098950
246	11	1	5	247	volatile	3	40	27	sv	red	blue	blue	red	right	left	0.7	0.30000000000000004	4	6	2.8	1.8000000000000005	0	1	0.30000000000000004	0.7	6	4	1.8000000000000005	2.8	invalid	1.0663946259992372	53248.0	0	1.0	1.0	53248	1	53248	1	51200	0	0.7	53248	blue	red	0	0	ml	2.7.3	bip	sub-11_ses-01_task-ml_proj-bip_2021-01-26-10-31-55.098950
247	11	1	5	248	volatile	3	40	28	sv	red	blue	blue	red	right	left	0.7	0.30000000000000004	2	6	1.4	1.8000000000000005	1	0	0.30000000000000004	0.7	6	2	1.8000000000000005	1.4	valid	0.6831730979993154	53248.0	0	1.0	1.0	51200	0	53248	1	51200	0	0.7	53248	blue	red	0	2	ml	2.7.3	bip	sub-11_ses-01_task-ml_proj-bip_2021-01-26-10-31-55.098950
248	11	1	5	249	volatile	3	40	29	sv	red	blue	blue	red	right	left	0.7	0.30000000000000004	2	6	1.4	1.8000000000000005	1	0	0.30000000000000004	0.7	6	2	1.8000000000000005	1.4	valid	0.6665077859997837	53248.0	0	1.0	1.0	51200	0	53248	1	51200	0	0.7	53248	blue	red	0	2	ml	2.7.3	bip	sub-11_ses-01_task-ml_proj-bip_2021-01-26-10-31-55.098950
249	11	1	5	250	volatile	3	40	30	sv	blue	red	blue	red	left	right	0.7	0.30000000000000004	2	6	1.4	1.8000000000000005	1	0	0.7	0.30000000000000004	2	6	1.4	1.8000000000000005	valid	0.6165211730003648	53248.0	0	1.0	2.0	53248	1	51200	0	53248	1	0.7	51200	blue	red	0	0	ml	2.7.3	bip	sub-11_ses-01_task-ml_proj-bip_2021-01-26-10-31-55.098950
250	11	1	6	251	volatile	3	40	31	sv	red	blue	blue	red	right	left	0.7	0.30000000000000004	4	2	2.8	0.6000000000000001	1	0	0.30000000000000004	0.7	2	4	0.6000000000000001	2.8	valid	1.1163809160007077	53248.0	0	1.0	1.0	53248	1	53248	1	53248	1	0.7	53248	blue	red	1	4	ml	2.7.3	bip	sub-11_ses-01_task-ml_proj-bip_2021-01-26-10-31-55.098950
251	11	1	6	252	volatile	3	40	32	sv	red	blue	blue	red	right	left	0.7	0.30000000000000004	4	6	2.8	1.8000000000000005	0	1	0.30000000000000004	0.7	6	4	1.8000000000000005	2.8	invalid	0.4665687390006497	53248.0	0	1.0	1.0	53248	1	53248	1	51200	0	0.7	53248	blue	red	0	0	ml	2.7.3	bip	sub-11_ses-01_task-ml_proj-bip_2021-01-26-10-31-55.098950
252	11	1	6	253	volatile	3	40	33	sv	red	blue	blue	red	right	left	0.7	0.30000000000000004	2	10	1.4	3.0000000000000004	1	0	0.30000000000000004	0.7	10	2	3.0000000000000004	1.4	valid	0.7164996579995204	53248.0	0	1.0	1.0	51200	0	53248	1	51200	0	0.7	53248	blue	red	0	2	ml	2.7.3	bip	sub-11_ses-01_task-ml_proj-bip_2021-01-26-10-31-55.098950
253	11	1	6	254	volatile	3	40	34	sv	red	blue	blue	red	right	left	0.7	0.30000000000000004	6	4	4.199999999999998	1.2000000000000002	1	0	0.30000000000000004	0.7	4	6	1.2000000000000002	4.199999999999998	valid	0.349943887000336	53248.0	0	1.0	1.0	53248	1	53248	1	53248	1	0.7	53248	blue	red	1	6	ml	2.7.3	bip	sub-11_ses-01_task-ml_proj-bip_2021-01-26-10-31-55.098950
254	11	1	6	255	volatile	3	40	35	sv	red	blue	blue	red	right	left	0.7	0.30000000000000004	6	6	4.199999999999998	1.8000000000000005	1	0	0.30000000000000004	0.7	6	6	1.8000000000000005	4.199999999999998	valid	0.31661227099903044	53248.0	0	1.0	1.0	53248	1	53248	1	53248	1	0.7	53248	blue	red	0	6	ml	2.7.3	bip	sub-11_ses-01_task-ml_proj-bip_2021-01-26-10-31-55.098950
255	11	1	6	256	volatile	3	40	36	sv	red	blue	blue	red	right	left	0.7	0.30000000000000004	6	6	4.199999999999998	1.8000000000000005	0	1	0.30000000000000004	0.7	6	6	1.8000000000000005	4.199999999999998	invalid	0.4665682180002477	53248.0	0	1.0	1.0	53248	1	53248	1	53248	1	0.7	53248	blue	red	0	0	ml	2.7.3	bip	sub-11_ses-01_task-ml_proj-bip_2021-01-26-10-31-55.098950
256	11	1	6	257	volatile	3	40	37	sv	red	blue	blue	red	right	left	0.7	0.30000000000000004	2	4	1.4	1.2000000000000002	1	0	0.30000000000000004	0.7	4	2	1.2000000000000002	1.4	valid	0.3166048580005736	53248.0	0	1.0	1.0	53248	1	53248	1	51200	0	0.7	53248	blue	red	0	2	ml	2.7.3	bip	sub-11_ses-01_task-ml_proj-bip_2021-01-26-10-31-55.098950
257	11	1	6	258	volatile	3	40	38	sv	red	blue	blue	red	right	left	0.7	0.30000000000000004	2	2	1.4	0.6000000000000001	1	0	0.30000000000000004	0.7	2	2	0.6000000000000001	1.4	valid	0.14999450399955094	53248.0	0	1.0	1.0	53248	1	53248	1	53248	1	0.7	53248	blue	red	0	2	ml	2.7.3	bip	sub-11_ses-01_task-ml_proj-bip_2021-01-26-10-31-55.098950
258	11	1	6	259	volatile	3	40	39	sv	blue	red	blue	red	left	right	0.7	0.30000000000000004	4	6	2.8	1.8000000000000005	1	0	0.7	0.30000000000000004	4	6	2.8	1.8000000000000005	valid	0.616515061001337	51200.0	0	0.0	1.0	51200	1	51200	1	53248	0	0.7	51200	blue	red	0	4	ml	2.7.3	bip	sub-11_ses-01_task-ml_proj-bip_2021-01-26-10-31-55.098950
259	11	1	6	260	volatile	3	40	40	sv	blue	red	blue	red	left	right	0.7	0.30000000000000004	2	10	1.4	3.0000000000000004	1	0	0.7	0.30000000000000004	2	10	1.4	3.0000000000000004	valid	0.5831899760014494	51200.0	0	0.0	1.0	53248	0	51200	1	53248	0	0.7	51200	blue	red	0	2	ml	2.7.3	bip	sub-11_ses-01_task-ml_proj-bip_2021-01-26-10-31-55.098950
260	11	1	6	261	volatile	4	40	1	sv	blue	red	blue	red	left	right	0.30000000000000004	0.7	4	6	1.2000000000000002	4.199999999999998	0	1	0.30000000000000004	0.7	4	6	1.2000000000000002	4.199999999999998	valid	0.33327608699983097	53248.0	0	1.0	2.0	53248	1	53248	1	53248	1	0.7	53248	red	blue	1	6	ml	2.7.3	bip	sub-11_ses-01_task-ml_proj-bip_2021-01-26-10-31-55.098950
261	11	1	6	262	volatile	4	40	2	sv	red	blue	blue	red	right	left	0.30000000000000004	0.7	2	6	0.6000000000000001	4.199999999999998	0	1	0.7	0.30000000000000004	6	2	4.199999999999998	0.6000000000000001	valid	0.5998625369993533	53248.0	0	1.0	1.0	51200	0	51200	0	51200	0	0.7	51200	red	blue	1	0	ml	2.7.3	bip	sub-11_ses-01_task-ml_proj-bip_2021-01-26-10-31-55.098950
262	11	1	6	263	volatile	4	40	3	sv	red	blue	blue	red	right	left	0.30000000000000004	0.7	2	4	0.6000000000000001	2.8	1	0	0.7	0.30000000000000004	4	2	2.8	0.6000000000000001	invalid	0.3832652830005827	51200.0	0	0.0	2.0	51200	1	51200	1	51200	1	0.7	51200	red	blue	1	0	ml	2.7.3	bip	sub-11_ses-01_task-ml_proj-bip_2021-01-26-10-31-55.098950
263	11	1	6	264	volatile	4	40	4	sv	blue	red	blue	red	left	right	0.30000000000000004	0.7	2	4	0.6000000000000001	2.8	0	1	0.30000000000000004	0.7	2	4	0.6000000000000001	2.8	valid	0.3665995669998665	53248.0	0	1.0	2.0	53248	1	53248	1	53248	1	0.7	53248	red	blue	1	4	ml	2.7.3	bip	sub-11_ses-01_task-ml_proj-bip_2021-01-26-10-31-55.098950
264	11	1	6	265	volatile	4	40	5	sv	red	blue	blue	red	right	left	0.30000000000000004	0.7	6	6	1.8000000000000005	4.199999999999998	0	1	0.7	0.30000000000000004	6	6	4.199999999999998	1.8000000000000005	valid	0.4998930439996912	53248.0	0	1.0	1.0	51200	0	51200	0	53248	1	0.7	51200	red	blue	1	0	ml	2.7.3	bip	sub-11_ses-01_task-ml_proj-bip_2021-01-26-10-31-55.098950
265	11	1	6	266	volatile	4	40	6	sv	blue	red	blue	red	left	right	0.30000000000000004	0.7	2	4	0.6000000000000001	2.8	1	0	0.30000000000000004	0.7	2	4	0.6000000000000001	2.8	invalid	0.6165132930000254	51200.0	0	0.0	1.0	53248	0	53248	0	53248	0	0.7	53248	red	blue	1	2	ml	2.7.3	bip	sub-11_ses-01_task-ml_proj-bip_2021-01-26-10-31-55.098950
266	11	1	6	267	volatile	4	40	7	sv	blue	red	blue	red	left	right	0.30000000000000004	0.7	6	4	1.8000000000000005	2.8	0	1	0.30000000000000004	0.7	6	4	1.8000000000000005	2.8	valid	0.4165720870005316	51200.0	0	0.0	1.0	53248	0	53248	0	51200	1	0.7	53248	red	blue	0	0	ml	2.7.3	bip	sub-11_ses-01_task-ml_proj-bip_2021-01-26-10-31-55.098950
267	11	1	6	268	volatile	4	40	8	sv	blue	red	blue	red	left	right	0.30000000000000004	0.7	4	6	1.2000000000000002	4.199999999999998	0	1	0.30000000000000004	0.7	4	6	1.2000000000000002	4.199999999999998	valid	0.4165728330008278	51200.0	0	0.0	1.0	53248	0	53248	0	53248	0	0.7	53248	red	blue	1	0	ml	2.7.3	bip	sub-11_ses-01_task-ml_proj-bip_2021-01-26-10-31-55.098950
268	11	1	6	269	volatile	4	40	9	sv	blue	red	blue	red	left	right	0.30000000000000004	0.7	2	6	0.6000000000000001	4.199999999999998	0	1	0.30000000000000004	0.7	2	6	0.6000000000000001	4.199999999999998	valid	0.4332499739994091	53248.0	0	1.0	2.0	53248	1	53248	1	53248	1	0.7	53248	red	blue	1	6	ml	2.7.3	bip	sub-11_ses-01_task-ml_proj-bip_2021-01-26-10-31-55.098950
269	11	1	6	270	volatile	4	40	10	sv	blue	red	blue	red	left	right	0.30000000000000004	0.7	10	2	3.0000000000000004	1.4	0	1	0.30000000000000004	0.7	10	2	3.0000000000000004	1.4	valid	0.5165495109995389	51200.0	0	0.0	1.0	51200	1	53248	0	51200	1	0.7	53248	red	blue	0	0	ml	2.7.3	bip	sub-11_ses-01_task-ml_proj-bip_2021-01-26-10-31-55.098950
270	11	1	6	271	volatile	4	40	11	sv	red	blue	blue	red	right	left	0.30000000000000004	0.7	2	2	0.6000000000000001	1.4	0	1	0.7	0.30000000000000004	2	2	1.4	0.6000000000000001	valid	0.8997796990006464	53248.0	0	1.0	1.0	51200	0	51200	0	53248	1	0.7	51200	red	blue	1	0	ml	2.7.3	bip	sub-11_ses-01_task-ml_proj-bip_2021-01-26-10-31-55.098950
271	11	1	6	272	volatile	4	40	12	sv	red	blue	blue	red	right	left	0.30000000000000004	0.7	2	2	0.6000000000000001	1.4	0	1	0.7	0.30000000000000004	2	2	1.4	0.6000000000000001	valid	0.3499247469990223	51200.0	0	0.0	2.0	51200	1	51200	1	53248	0	0.7	51200	red	blue	1	2	ml	2.7.3	bip	sub-11_ses-01_task-ml_proj-bip_2021-01-26-10-31-55.098950
272	11	1	6	273	volatile	4	40	13	sv	red	blue	blue	red	right	left	0.30000000000000004	0.7	4	2	1.2000000000000002	1.4	0	1	0.7	0.30000000000000004	2	4	1.4	1.2000000000000002	valid	0.4332321929996397	51200.0	0	0.0	2.0	51200	1	51200	1	53248	0	0.7	51200	red	blue	0	2	ml	2.7.3	bip	sub-11_ses-01_task-ml_proj-bip_2021-01-26-10-31-55.098950
273	11	1	6	274	volatile	4	40	14	sv	blue	red	blue	red	left	right	0.30000000000000004	0.7	2	10	0.6000000000000001	7.0	1	0	0.30000000000000004	0.7	2	10	0.6000000000000001	7.0	invalid	0.9164386789998388	53248.0	0	1.0	2.0	53248	1	53248	1	53248	1	0.7	53248	red	blue	1	0	ml	2.7.3	bip	sub-11_ses-01_task-ml_proj-bip_2021-01-26-10-31-55.098950
274	11	1	6	275	volatile	4	40	15	sv	red	blue	blue	red	right	left	0.30000000000000004	0.7	2	10	0.6000000000000001	7.0	0	1	0.7	0.30000000000000004	10	2	7.0	0.6000000000000001	valid	0.3665877869989345	51200.0	0	0.0	2.0	51200	1	51200	1	51200	1	0.7	51200	red	blue	1	10	ml	2.7.3	bip	sub-11_ses-01_task-ml_proj-bip_2021-01-26-10-31-55.098950
275	11	1	6	276	volatile	4	40	16	sv	blue	red	blue	red	left	right	0.30000000000000004	0.7	2	10	0.6000000000000001	7.0	0	1	0.30000000000000004	0.7	2	10	0.6000000000000001	7.0	valid	0.4998838950014033	53248.0	0	1.0	2.0	53248	1	53248	1	53248	1	0.7	53248	red	blue	1	10	ml	2.7.3	bip	sub-11_ses-01_task-ml_proj-bip_2021-01-26-10-31-55.098950
276	11	1	6	277	volatile	4	40	17	sv	blue	red	blue	red	left	right	0.30000000000000004	0.7	6	6	1.8000000000000005	4.199999999999998	1	0	0.30000000000000004	0.7	6	6	1.8000000000000005	4.199999999999998	invalid	0.6831731710008171	53248.0	0	1.0	2.0	53248	1	53248	1	53248	1	0.7	53248	red	blue	0	0	ml	2.7.3	bip	sub-11_ses-01_task-ml_proj-bip_2021-01-26-10-31-55.098950
277	11	1	6	278	volatile	4	40	18	sv	red	blue	blue	red	right	left	0.30000000000000004	0.7	6	6	1.8000000000000005	4.199999999999998	0	1	0.7	0.30000000000000004	6	6	4.199999999999998	1.8000000000000005	valid	0.4998776239990548	51200.0	0	0.0	2.0	51200	1	51200	1	53248	0	0.7	51200	red	blue	1	6	ml	2.7.3	bip	sub-11_ses-01_task-ml_proj-bip_2021-01-26-10-31-55.098950
278	11	1	6	279	volatile	4	40	19	sv	blue	red	blue	red	left	right	0.30000000000000004	0.7	6	4	1.8000000000000005	2.8	0	1	0.30000000000000004	0.7	6	4	1.8000000000000005	2.8	valid	0.6331691570012481	51200.0	0	0.0	1.0	53248	0	53248	0	51200	1	0.7	53248	red	blue	0	0	ml	2.7.3	bip	sub-11_ses-01_task-ml_proj-bip_2021-01-26-10-31-55.098950
279	11	1	6	280	volatile	4	40	20	sv	red	blue	blue	red	right	left	0.30000000000000004	0.7	2	10	0.6000000000000001	7.0	1	0	0.7	0.30000000000000004	10	2	7.0	0.6000000000000001	invalid	0.3665992420010298	53248.0	0	1.0	1.0	51200	0	51200	0	51200	0	0.7	51200	red	blue	1	2	ml	2.7.3	bip	sub-11_ses-01_task-ml_proj-bip_2021-01-26-10-31-55.098950
280	11	1	6	281	volatile	4	40	21	sv	red	blue	blue	red	right	left	0.30000000000000004	0.7	6	2	1.8000000000000005	1.4	1	0	0.7	0.30000000000000004	2	6	1.4	1.8000000000000005	invalid	1.0163982209996902	53248.0	0	1.0	1.0	53248	1	51200	0	53248	1	0.7	51200	red	blue	0	6	ml	2.7.3	bip	sub-11_ses-01_task-ml_proj-bip_2021-01-26-10-31-55.098950
281	11	1	6	282	volatile	4	40	22	sv	red	blue	blue	red	right	left	0.30000000000000004	0.7	6	2	1.8000000000000005	1.4	0	1	0.7	0.30000000000000004	2	6	1.4	1.8000000000000005	valid	0.8831493699999555	53248.0	0	1.0	1.0	53248	1	51200	0	53248	1	0.7	51200	red	blue	0	0	ml	2.7.3	bip	sub-11_ses-01_task-ml_proj-bip_2021-01-26-10-31-55.098950
282	11	1	6	283	volatile	4	40	23	sv	blue	red	blue	red	left	right	0.30000000000000004	0.7	6	2	1.8000000000000005	1.4	0	1	0.30000000000000004	0.7	6	2	1.8000000000000005	1.4	valid	0.4165744959991571	51200.0	0	0.0	1.0	51200	1	53248	0	51200	1	0.7	53248	red	blue	0	0	ml	2.7.3	bip	sub-11_ses-01_task-ml_proj-bip_2021-01-26-10-31-55.098950
283	11	1	6	284	volatile	4	40	24	sv	red	blue	blue	red	right	left	0.30000000000000004	0.7	6	6	1.8000000000000005	4.199999999999998	0	1	0.7	0.30000000000000004	6	6	4.199999999999998	1.8000000000000005	valid	0.5498797039999772	53248.0	0	1.0	1.0	51200	0	51200	0	53248	1	0.7	51200	red	blue	1	0	ml	2.7.3	bip	sub-11_ses-01_task-ml_proj-bip_2021-01-26-10-31-55.098950
284	11	1	6	285	volatile	4	40	25	sv	red	blue	blue	red	right	left	0.30000000000000004	0.7	2	6	0.6000000000000001	4.199999999999998	0	1	0.7	0.30000000000000004	6	2	4.199999999999998	0.6000000000000001	valid	0.5165422200007015	51200.0	0	0.0	2.0	51200	1	51200	1	51200	1	0.7	51200	red	blue	1	6	ml	2.7.3	bip	sub-11_ses-01_task-ml_proj-bip_2021-01-26-10-31-55.098950
285	11	1	6	286	volatile	4	40	26	sv	red	blue	blue	red	right	left	0.30000000000000004	0.7	6	2	1.8000000000000005	1.4	0	1	0.7	0.30000000000000004	2	6	1.4	1.8000000000000005	valid	0.3999285160007275	53248.0	0	1.0	1.0	53248	1	51200	0	53248	1	0.7	51200	red	blue	0	0	ml	2.7.3	bip	sub-11_ses-01_task-ml_proj-bip_2021-01-26-10-31-55.098950
286	11	1	6	287	volatile	4	40	27	sv	blue	red	blue	red	left	right	0.30000000000000004	0.7	10	2	3.0000000000000004	1.4	0	1	0.30000000000000004	0.7	10	2	3.0000000000000004	1.4	valid	0.6331791390002763	51200.0	0	0.0	1.0	51200	1	53248	0	51200	1	0.7	53248	red	blue	0	0	ml	2.7.3	bip	sub-11_ses-01_task-ml_proj-bip_2021-01-26-10-31-55.098950
287	11	1	6	288	volatile	4	40	28	sv	blue	red	blue	red	left	right	0.30000000000000004	0.7	2	2	0.6000000000000001	1.4	1	0	0.30000000000000004	0.7	2	2	0.6000000000000001	1.4	invalid	0.5165545250001742	53248.0	0	1.0	2.0	53248	1	53248	1	53248	1	0.7	53248	red	blue	0	0	ml	2.7.3	bip	sub-11_ses-01_task-ml_proj-bip_2021-01-26-10-31-55.098950
288	11	1	6	289	volatile	4	40	29	sv	blue	red	blue	red	left	right	0.30000000000000004	0.7	4	2	1.2000000000000002	1.4	0	1	0.30000000000000004	0.7	4	2	1.2000000000000002	1.4	valid	0.366595707999295	53248.0	0	1.0	2.0	53248	1	53248	1	51200	0	0.7	53248	red	blue	0	2	ml	2.7.3	bip	sub-11_ses-01_task-ml_proj-bip_2021-01-26-10-31-55.098950
289	11	1	6	290	volatile	4	40	30	sv	red	blue	blue	red	right	left	0.30000000000000004	0.7	2	6	0.6000000000000001	4.199999999999998	0	1	0.7	0.30000000000000004	6	2	4.199999999999998	0.6000000000000001	valid	0.5665290409997397	51200.0	0	0.0	2.0	51200	1	51200	1	51200	1	0.7	51200	red	blue	1	6	ml	2.7.3	bip	sub-11_ses-01_task-ml_proj-bip_2021-01-26-10-31-55.098950
290	11	1	6	291	volatile	4	40	31	sv	blue	red	blue	red	left	right	0.30000000000000004	0.7	4	2	1.2000000000000002	1.4	1	0	0.30000000000000004	0.7	4	2	1.2000000000000002	1.4	invalid	0.34993451300033485	53248.0	0	1.0	2.0	53248	1	53248	1	51200	0	0.7	53248	red	blue	0	0	ml	2.7.3	bip	sub-11_ses-01_task-ml_proj-bip_2021-01-26-10-31-55.098950
291	11	1	6	292	volatile	4	40	32	sv	red	blue	blue	red	right	left	0.30000000000000004	0.7	2	4	0.6000000000000001	2.8	1	0	0.7	0.30000000000000004	4	2	2.8	0.6000000000000001	invalid	0.43323471400071867	51200.0	0	0.0	2.0	51200	1	51200	1	51200	1	0.7	51200	red	blue	1	0	ml	2.7.3	bip	sub-11_ses-01_task-ml_proj-bip_2021-01-26-10-31-55.098950
292	11	1	6	293	volatile	4	40	33	sv	blue	red	blue	red	left	right	0.30000000000000004	0.7	4	6	1.2000000000000002	4.199999999999998	0	1	0.30000000000000004	0.7	4	6	1.2000000000000002	4.199999999999998	valid	0.5832038339995052	53248.0	0	1.0	2.0	53248	1	53248	1	53248	1	0.7	53248	red	blue	1	6	ml	2.7.3	bip	sub-11_ses-01_task-ml_proj-bip_2021-01-26-10-31-55.098950
