Unnamed: 0	sub_id	ses_id	block_no	trial_no	phase_type	phase_no	phase_length	trialInPhase_no	phase_type_order	color_left	color_right	color1	color2	position1	position2	prob1	prob2	mag1	mag2	ev1	ev2	outcome1	outcome2	prob_left	prob_right	mag_left	mag_right	ev_left	ev_right	reward_validity	resp_time	resp_key	timeout	choice_side	choice	ev_corr_resp	ev_correct	prob_corr_resp	prob_correct	mag_corr_resp	mag_correct	high_prob	high_prob_side	high_prob_color	low_prob_color	no_brain	reward	name	version	proj_id	logFileID
0	14	1	1	1	stable	1	200	1	sv	purple	turquoise	purple	turquoise	left	right	0.7	0.30000000000000004	2	6	1.4	1.8000000000000005	1	0	0.7	0.30000000000000004	2	6	1.4	1.8000000000000005	valid	0.8831161399994016	53248	0	1	2	53248	1	51200	0	53248	1	0.7	51200	purple	turquoise	0	0	ml	2.7.3	bip	sub-14_ses-01_task-ml_proj-bip_2021-02-23-10-30-23.576317
1	14	1	1	2	stable	1	200	2	sv	turquoise	purple	purple	turquoise	right	left	0.7	0.30000000000000004	2	10	1.4	3.0000000000000004	1	0	0.30000000000000004	0.7	10	2	3.0000000000000004	1.4	valid	0.6498422019994905	53248	0	1	1	51200	0	53248	1	51200	0	0.7	53248	purple	turquoise	0	2	ml	2.7.3	bip	sub-14_ses-01_task-ml_proj-bip_2021-02-23-10-30-23.576317
2	14	1	1	3	stable	1	200	3	sv	turquoise	purple	purple	turquoise	right	left	0.7	0.30000000000000004	10	2	7.0	0.6000000000000001	1	0	0.30000000000000004	0.7	2	10	0.6000000000000001	7.0	valid	0.5165548459990532	53248	0	1	1	53248	1	53248	1	53248	1	0.7	53248	purple	turquoise	1	10	ml	2.7.3	bip	sub-14_ses-01_task-ml_proj-bip_2021-02-23-10-30-23.576317
3	14	1	1	4	stable	1	200	4	sv	purple	turquoise	purple	turquoise	left	right	0.7	0.30000000000000004	4	2	2.8	0.6000000000000001	0	1	0.7	0.30000000000000004	4	2	2.8	0.6000000000000001	invalid	0.6831630689994199	51200	0	0	1	51200	1	51200	1	51200	1	0.7	51200	purple	turquoise	1	0	ml	2.7.3	bip	sub-14_ses-01_task-ml_proj-bip_2021-02-23-10-30-23.576317
4	14	1	1	5	stable	1	200	5	sv	turquoise	purple	purple	turquoise	right	left	0.7	0.30000000000000004	6	6	4.199999999999998	1.8000000000000005	1	0	0.30000000000000004	0.7	6	6	1.8000000000000005	4.199999999999998	valid	0.4832316219999484	53248	0	1	1	53248	1	53248	1	53248	1	0.7	53248	purple	turquoise	0	6	ml	2.7.3	bip	sub-14_ses-01_task-ml_proj-bip_2021-02-23-10-30-23.576317
5	14	1	1	6	stable	1	200	6	sv	turquoise	purple	purple	turquoise	right	left	0.7	0.30000000000000004	4	2	2.8	0.6000000000000001	1	0	0.30000000000000004	0.7	2	4	0.6000000000000001	2.8	valid	0.4332415770004445	53248	0	1	1	53248	1	53248	1	53248	1	0.7	53248	purple	turquoise	1	4	ml	2.7.3	bip	sub-14_ses-01_task-ml_proj-bip_2021-02-23-10-30-23.576317
6	14	1	1	7	stable	1	200	7	sv	purple	turquoise	purple	turquoise	left	right	0.7	0.30000000000000004	6	2	4.199999999999998	0.6000000000000001	0	1	0.7	0.30000000000000004	6	2	4.199999999999998	0.6000000000000001	invalid	0.699825466999755	51200	0	0	1	51200	1	51200	1	51200	1	0.7	51200	purple	turquoise	1	0	ml	2.7.3	bip	sub-14_ses-01_task-ml_proj-bip_2021-02-23-10-30-23.576317
7	14	1	1	8	stable	1	200	8	sv	turquoise	purple	purple	turquoise	right	left	0.7	0.30000000000000004	2	2	1.4	0.6000000000000001	1	0	0.30000000000000004	0.7	2	2	0.6000000000000001	1.4	valid	0.4998944420003682	53248	0	1	1	53248	1	53248	1	53248	1	0.7	53248	purple	turquoise	0	2	ml	2.7.3	bip	sub-14_ses-01_task-ml_proj-bip_2021-02-23-10-30-23.576317
8	14	1	1	9	stable	1	200	9	sv	purple	turquoise	purple	turquoise	left	right	0.7	0.30000000000000004	4	6	2.8	1.8000000000000005	1	0	0.7	0.30000000000000004	4	6	2.8	1.8000000000000005	valid	0.7998076320000109	53248	0	1	2	51200	0	51200	0	53248	1	0.7	51200	purple	turquoise	0	0	ml	2.7.3	bip	sub-14_ses-01_task-ml_proj-bip_2021-02-23-10-30-23.576317
9	14	1	1	10	stable	1	200	10	sv	purple	turquoise	purple	turquoise	left	right	0.7	0.30000000000000004	4	6	2.8	1.8000000000000005	1	0	0.7	0.30000000000000004	4	6	2.8	1.8000000000000005	valid	0.4832198290005181	51200	0	0	1	51200	1	51200	1	53248	0	0.7	51200	purple	turquoise	0	4	ml	2.7.3	bip	sub-14_ses-01_task-ml_proj-bip_2021-02-23-10-30-23.576317
10	14	1	1	11	stable	1	200	11	sv	purple	turquoise	purple	turquoise	left	right	0.7	0.30000000000000004	2	4	1.4	1.2000000000000002	1	0	0.7	0.30000000000000004	2	4	1.4	1.2000000000000002	valid	0.3832501010001579	51200	0	0	1	51200	1	51200	1	53248	0	0.7	51200	purple	turquoise	0	2	ml	2.7.3	bip	sub-14_ses-01_task-ml_proj-bip_2021-02-23-10-30-23.576317
11	14	1	1	12	stable	1	200	12	sv	turquoise	purple	purple	turquoise	right	left	0.7	0.30000000000000004	6	6	4.199999999999998	1.8000000000000005	1	0	0.30000000000000004	0.7	6	6	1.8000000000000005	4.199999999999998	valid	0.5832081619992096	53248	0	1	1	53248	1	53248	1	53248	1	0.7	53248	purple	turquoise	0	6	ml	2.7.3	bip	sub-14_ses-01_task-ml_proj-bip_2021-02-23-10-30-23.576317
12	14	1	1	13	stable	1	200	13	sv	turquoise	purple	purple	turquoise	right	left	0.7	0.30000000000000004	6	4	4.199999999999998	1.2000000000000002	1	0	0.30000000000000004	0.7	4	6	1.2000000000000002	4.199999999999998	valid	0.5832012619994202	53248	0	1	1	53248	1	53248	1	53248	1	0.7	53248	purple	turquoise	1	6	ml	2.7.3	bip	sub-14_ses-01_task-ml_proj-bip_2021-02-23-10-30-23.576317
13	14	1	1	14	stable	1	200	14	sv	purple	turquoise	purple	turquoise	left	right	0.7	0.30000000000000004	6	4	4.199999999999998	1.2000000000000002	1	0	0.7	0.30000000000000004	6	4	4.199999999999998	1.2000000000000002	valid	0.7164797429995815	51200	0	0	1	51200	1	51200	1	51200	1	0.7	51200	purple	turquoise	1	6	ml	2.7.3	bip	sub-14_ses-01_task-ml_proj-bip_2021-02-23-10-30-23.576317
14	14	1	1	15	stable	1	200	15	sv	turquoise	purple	purple	turquoise	right	left	0.7	0.30000000000000004	4	2	2.8	0.6000000000000001	1	0	0.30000000000000004	0.7	2	4	0.6000000000000001	2.8	valid	0.483232541999314	53248	0	1	1	53248	1	53248	1	53248	1	0.7	53248	purple	turquoise	1	4	ml	2.7.3	bip	sub-14_ses-01_task-ml_proj-bip_2021-02-23-10-30-23.576317
15	14	1	1	16	stable	1	200	16	sv	turquoise	purple	purple	turquoise	right	left	0.7	0.30000000000000004	2	6	1.4	1.8000000000000005	0	1	0.30000000000000004	0.7	6	2	1.8000000000000005	1.4	invalid	0.4665769610001007	53248	0	1	1	51200	0	53248	1	51200	0	0.7	53248	purple	turquoise	0	0	ml	2.7.3	bip	sub-14_ses-01_task-ml_proj-bip_2021-02-23-10-30-23.576317
16	14	1	1	17	stable	1	200	17	sv	turquoise	purple	purple	turquoise	right	left	0.7	0.30000000000000004	4	6	2.8	1.8000000000000005	1	0	0.30000000000000004	0.7	6	4	1.8000000000000005	2.8	valid	0.4165749469993898	51200	0	0	2	53248	0	53248	0	51200	1	0.7	53248	purple	turquoise	0	0	ml	2.7.3	bip	sub-14_ses-01_task-ml_proj-bip_2021-02-23-10-30-23.576317
17	14	1	1	18	stable	1	200	18	sv	purple	turquoise	purple	turquoise	left	right	0.7	0.30000000000000004	2	2	1.4	0.6000000000000001	0	1	0.7	0.30000000000000004	2	2	1.4	0.6000000000000001	invalid	0.4998846580001554	51200	0	0	1	51200	1	51200	1	53248	0	0.7	51200	purple	turquoise	1	0	ml	2.7.3	bip	sub-14_ses-01_task-ml_proj-bip_2021-02-23-10-30-23.576317
18	14	1	1	19	stable	1	200	19	sv	turquoise	purple	purple	turquoise	right	left	0.7	0.30000000000000004	2	10	1.4	3.0000000000000004	0	1	0.30000000000000004	0.7	10	2	3.0000000000000004	1.4	invalid	0.4665595619990199	51200	0	0	2	51200	1	53248	0	51200	1	0.7	53248	purple	turquoise	0	10	ml	2.7.3	bip	sub-14_ses-01_task-ml_proj-bip_2021-02-23-10-30-23.576317
19	14	1	1	20	stable	1	200	20	sv	purple	turquoise	purple	turquoise	left	right	0.7	0.30000000000000004	6	2	4.199999999999998	0.6000000000000001	0	1	0.7	0.30000000000000004	6	2	4.199999999999998	0.6000000000000001	invalid	0.5665276780000568	53248	0	1	2	51200	0	51200	0	51200	0	0.7	51200	purple	turquoise	1	2	ml	2.7.3	bip	sub-14_ses-01_task-ml_proj-bip_2021-02-23-10-30-23.576317
20	14	1	1	21	stable	1	200	21	sv	turquoise	purple	purple	turquoise	right	left	0.7	0.30000000000000004	2	2	1.4	0.6000000000000001	1	0	0.30000000000000004	0.7	2	2	0.6000000000000001	1.4	valid	0.5332055250000849	51200	0	0	2	53248	0	53248	0	53248	0	0.7	53248	purple	turquoise	0	0	ml	2.7.3	bip	sub-14_ses-01_task-ml_proj-bip_2021-02-23-10-30-23.576317
21	14	1	1	22	stable	1	200	22	sv	turquoise	purple	purple	turquoise	right	left	0.7	0.30000000000000004	2	6	1.4	1.8000000000000005	1	0	0.30000000000000004	0.7	6	2	1.8000000000000005	1.4	valid	0.31660174500029825	51200	0	0	2	51200	1	53248	0	51200	1	0.7	53248	purple	turquoise	0	0	ml	2.7.3	bip	sub-14_ses-01_task-ml_proj-bip_2021-02-23-10-30-23.576317
22	14	1	1	23	stable	1	200	23	sv	turquoise	purple	purple	turquoise	right	left	0.7	0.30000000000000004	6	2	4.199999999999998	0.6000000000000001	1	0	0.30000000000000004	0.7	2	6	0.6000000000000001	4.199999999999998	valid	0.4832341990004352	53248	0	1	1	53248	1	53248	1	53248	1	0.7	53248	purple	turquoise	1	6	ml	2.7.3	bip	sub-14_ses-01_task-ml_proj-bip_2021-02-23-10-30-23.576317
23	14	1	1	24	stable	1	200	24	sv	turquoise	purple	purple	turquoise	right	left	0.7	0.30000000000000004	4	2	2.8	0.6000000000000001	1	0	0.30000000000000004	0.7	2	4	0.6000000000000001	2.8	valid	0.4832302630002232	53248	0	1	1	53248	1	53248	1	53248	1	0.7	53248	purple	turquoise	1	4	ml	2.7.3	bip	sub-14_ses-01_task-ml_proj-bip_2021-02-23-10-30-23.576317
24	14	1	1	25	stable	1	200	25	sv	turquoise	purple	purple	turquoise	right	left	0.7	0.30000000000000004	2	4	1.4	1.2000000000000002	1	0	0.30000000000000004	0.7	4	2	1.2000000000000002	1.4	valid	0.4332464759991126	53248	0	1	1	53248	1	53248	1	51200	0	0.7	53248	purple	turquoise	0	2	ml	2.7.3	bip	sub-14_ses-01_task-ml_proj-bip_2021-02-23-10-30-23.576317
25	14	1	1	26	stable	1	200	26	sv	turquoise	purple	purple	turquoise	right	left	0.7	0.30000000000000004	2	4	1.4	1.2000000000000002	1	0	0.30000000000000004	0.7	4	2	1.2000000000000002	1.4	valid	0.5498779469999135	53248	0	1	1	53248	1	53248	1	51200	0	0.7	53248	purple	turquoise	0	2	ml	2.7.3	bip	sub-14_ses-01_task-ml_proj-bip_2021-02-23-10-30-23.576317
26	14	1	1	27	stable	1	200	27	sv	purple	turquoise	purple	turquoise	left	right	0.7	0.30000000000000004	2	2	1.4	0.6000000000000001	1	0	0.7	0.30000000000000004	2	2	1.4	0.6000000000000001	valid	0.5665245929994853	51200	0	0	1	51200	1	51200	1	53248	0	0.7	51200	purple	turquoise	1	2	ml	2.7.3	bip	sub-14_ses-01_task-ml_proj-bip_2021-02-23-10-30-23.576317
27	14	1	1	28	stable	1	200	28	sv	turquoise	purple	purple	turquoise	right	left	0.7	0.30000000000000004	6	2	4.199999999999998	0.6000000000000001	1	0	0.30000000000000004	0.7	2	6	0.6000000000000001	4.199999999999998	valid	0.5832056530016416	53248	0	1	1	53248	1	53248	1	53248	1	0.7	53248	purple	turquoise	1	6	ml	2.7.3	bip	sub-14_ses-01_task-ml_proj-bip_2021-02-23-10-30-23.576317
28	14	1	1	29	stable	1	200	29	sv	turquoise	purple	purple	turquoise	right	left	0.7	0.30000000000000004	2	4	1.4	1.2000000000000002	1	0	0.30000000000000004	0.7	4	2	1.2000000000000002	1.4	valid	0.6998347340013424	53248	0	1	1	53248	1	53248	1	51200	0	0.7	53248	purple	turquoise	0	2	ml	2.7.3	bip	sub-14_ses-01_task-ml_proj-bip_2021-02-23-10-30-23.576317
29	14	1	1	30	stable	1	200	30	sv	turquoise	purple	purple	turquoise	right	left	0.7	0.30000000000000004	6	2	4.199999999999998	0.6000000000000001	1	0	0.30000000000000004	0.7	2	6	0.6000000000000001	4.199999999999998	valid	0.4998945799998182	53248	0	1	1	53248	1	53248	1	53248	1	0.7	53248	purple	turquoise	1	6	ml	2.7.3	bip	sub-14_ses-01_task-ml_proj-bip_2021-02-23-10-30-23.576317
30	14	1	1	31	stable	1	200	31	sv	turquoise	purple	purple	turquoise	right	left	0.7	0.30000000000000004	6	6	4.199999999999998	1.8000000000000005	0	1	0.30000000000000004	0.7	6	6	1.8000000000000005	4.199999999999998	invalid	0.4165824840001733	53248	0	1	1	53248	1	53248	1	53248	1	0.7	53248	purple	turquoise	0	0	ml	2.7.3	bip	sub-14_ses-01_task-ml_proj-bip_2021-02-23-10-30-23.576317
31	14	1	1	32	stable	1	200	32	sv	turquoise	purple	purple	turquoise	right	left	0.7	0.30000000000000004	6	4	4.199999999999998	1.2000000000000002	0	1	0.30000000000000004	0.7	4	6	1.2000000000000002	4.199999999999998	invalid	0.4832227459992282	53248	0	1	1	53248	1	53248	1	53248	1	0.7	53248	purple	turquoise	1	0	ml	2.7.3	bip	sub-14_ses-01_task-ml_proj-bip_2021-02-23-10-30-23.576317
32	14	1	1	33	stable	1	200	33	sv	turquoise	purple	purple	turquoise	right	left	0.7	0.30000000000000004	10	2	7.0	0.6000000000000001	1	0	0.30000000000000004	0.7	2	10	0.6000000000000001	7.0	valid	0.583191256999271	51200	0	0	2	53248	0	53248	0	53248	0	0.7	53248	purple	turquoise	1	0	ml	2.7.3	bip	sub-14_ses-01_task-ml_proj-bip_2021-02-23-10-30-23.576317
33	14	1	1	34	stable	1	200	34	sv	turquoise	purple	purple	turquoise	right	left	0.7	0.30000000000000004	2	6	1.4	1.8000000000000005	1	0	0.30000000000000004	0.7	6	2	1.8000000000000005	1.4	valid	0.3832507179995446	51200	0	0	2	51200	1	53248	0	51200	1	0.7	53248	purple	turquoise	0	0	ml	2.7.3	bip	sub-14_ses-01_task-ml_proj-bip_2021-02-23-10-30-23.576317
34	14	1	1	35	stable	1	200	35	sv	purple	turquoise	purple	turquoise	left	right	0.7	0.30000000000000004	2	4	1.4	1.2000000000000002	1	0	0.7	0.30000000000000004	2	4	1.4	1.2000000000000002	valid	0.3999199970003247	53248	0	1	2	51200	0	51200	0	53248	1	0.7	51200	purple	turquoise	0	0	ml	2.7.3	bip	sub-14_ses-01_task-ml_proj-bip_2021-02-23-10-30-23.576317
35	14	1	1	36	stable	1	200	36	sv	purple	turquoise	purple	turquoise	left	right	0.7	0.30000000000000004	6	6	4.199999999999998	1.8000000000000005	1	0	0.7	0.30000000000000004	6	6	4.199999999999998	1.8000000000000005	valid	0.4832210209988261	51200	0	0	1	51200	1	51200	1	53248	0	0.7	51200	purple	turquoise	1	6	ml	2.7.3	bip	sub-14_ses-01_task-ml_proj-bip_2021-02-23-10-30-23.576317
36	14	1	1	37	stable	1	200	37	sv	turquoise	purple	purple	turquoise	right	left	0.7	0.30000000000000004	10	2	7.0	0.6000000000000001	1	0	0.30000000000000004	0.7	2	10	0.6000000000000001	7.0	valid	0.43324287900031777	53248	0	1	1	53248	1	53248	1	53248	1	0.7	53248	purple	turquoise	1	10	ml	2.7.3	bip	sub-14_ses-01_task-ml_proj-bip_2021-02-23-10-30-23.576317
37	14	1	1	38	stable	1	200	38	sv	purple	turquoise	purple	turquoise	left	right	0.7	0.30000000000000004	2	6	1.4	1.8000000000000005	1	0	0.7	0.30000000000000004	2	6	1.4	1.8000000000000005	valid	0.8497691100001248	51200	0	0	1	53248	0	51200	1	53248	0	0.7	51200	purple	turquoise	0	2	ml	2.7.3	bip	sub-14_ses-01_task-ml_proj-bip_2021-02-23-10-30-23.576317
38	14	1	1	39	stable	1	200	39	sv	purple	turquoise	purple	turquoise	left	right	0.7	0.30000000000000004	6	2	4.199999999999998	0.6000000000000001	1	0	0.7	0.30000000000000004	6	2	4.199999999999998	0.6000000000000001	valid	0.4165742519999185	51200	0	0	1	51200	1	51200	1	51200	1	0.7	51200	purple	turquoise	1	6	ml	2.7.3	bip	sub-14_ses-01_task-ml_proj-bip_2021-02-23-10-30-23.576317
39	14	1	1	40	stable	1	200	40	sv	turquoise	purple	purple	turquoise	right	left	0.7	0.30000000000000004	4	6	2.8	1.8000000000000005	1	0	0.30000000000000004	0.7	6	4	1.8000000000000005	2.8	valid	0.4832298679993983	53248	0	1	1	53248	1	53248	1	51200	0	0.7	53248	purple	turquoise	0	4	ml	2.7.3	bip	sub-14_ses-01_task-ml_proj-bip_2021-02-23-10-30-23.576317
40	14	1	1	41	stable	1	200	41	sv	turquoise	purple	purple	turquoise	right	left	0.7	0.30000000000000004	4	2	2.8	0.6000000000000001	1	0	0.30000000000000004	0.7	2	4	0.6000000000000001	2.8	valid	0.5832086909995269	53248	0	1	1	53248	1	53248	1	53248	1	0.7	53248	purple	turquoise	1	4	ml	2.7.3	bip	sub-14_ses-01_task-ml_proj-bip_2021-02-23-10-30-23.576317
41	14	1	1	42	stable	1	200	42	sv	turquoise	purple	purple	turquoise	right	left	0.7	0.30000000000000004	4	6	2.8	1.8000000000000005	1	0	0.30000000000000004	0.7	6	4	1.8000000000000005	2.8	valid	0.599865887001215	53248	0	1	1	53248	1	53248	1	51200	0	0.7	53248	purple	turquoise	0	4	ml	2.7.3	bip	sub-14_ses-01_task-ml_proj-bip_2021-02-23-10-30-23.576317
42	14	1	1	43	stable	1	200	43	sv	purple	turquoise	purple	turquoise	left	right	0.7	0.30000000000000004	6	2	4.199999999999998	0.6000000000000001	1	0	0.7	0.30000000000000004	6	2	4.199999999999998	0.6000000000000001	valid	0.5665291770001204	51200	0	0	1	51200	1	51200	1	51200	1	0.7	51200	purple	turquoise	1	6	ml	2.7.3	bip	sub-14_ses-01_task-ml_proj-bip_2021-02-23-10-30-23.576317
43	14	1	1	44	stable	1	200	44	sv	purple	turquoise	purple	turquoise	left	right	0.7	0.30000000000000004	6	2	4.199999999999998	0.6000000000000001	1	0	0.7	0.30000000000000004	6	2	4.199999999999998	0.6000000000000001	valid	0.4332378990002326	51200	0	0	1	51200	1	51200	1	51200	1	0.7	51200	purple	turquoise	1	6	ml	2.7.3	bip	sub-14_ses-01_task-ml_proj-bip_2021-02-23-10-30-23.576317
44	14	1	1	45	stable	1	200	45	sv	turquoise	purple	purple	turquoise	right	left	0.7	0.30000000000000004	2	6	1.4	1.8000000000000005	0	1	0.30000000000000004	0.7	6	2	1.8000000000000005	1.4	invalid	0.6831755710009019	53248	0	1	1	51200	0	53248	1	51200	0	0.7	53248	purple	turquoise	0	0	ml	2.7.3	bip	sub-14_ses-01_task-ml_proj-bip_2021-02-23-10-30-23.576317
45	14	1	1	46	stable	1	200	46	sv	purple	turquoise	purple	turquoise	left	right	0.7	0.30000000000000004	2	2	1.4	0.6000000000000001	1	0	0.7	0.30000000000000004	2	2	1.4	0.6000000000000001	valid	0.3999110090007889	51200	0	0	1	51200	1	51200	1	53248	0	0.7	51200	purple	turquoise	1	2	ml	2.7.3	bip	sub-14_ses-01_task-ml_proj-bip_2021-02-23-10-30-23.576317
46	14	1	1	47	stable	1	200	47	sv	turquoise	purple	purple	turquoise	right	left	0.7	0.30000000000000004	2	6	1.4	1.8000000000000005	1	0	0.30000000000000004	0.7	6	2	1.8000000000000005	1.4	valid	0.9331013840001106	53248	0	1	1	51200	0	53248	1	51200	0	0.7	53248	purple	turquoise	0	2	ml	2.7.3	bip	sub-14_ses-01_task-ml_proj-bip_2021-02-23-10-30-23.576317
47	14	1	1	48	stable	1	200	48	sv	turquoise	purple	purple	turquoise	right	left	0.7	0.30000000000000004	2	10	1.4	3.0000000000000004	0	1	0.30000000000000004	0.7	10	2	3.0000000000000004	1.4	invalid	0.833129487999031	53248	0	1	1	51200	0	53248	1	51200	0	0.7	53248	purple	turquoise	0	0	ml	2.7.3	bip	sub-14_ses-01_task-ml_proj-bip_2021-02-23-10-30-23.576317
48	14	1	1	49	stable	1	200	49	sv	purple	turquoise	purple	turquoise	left	right	0.7	0.30000000000000004	2	4	1.4	1.2000000000000002	0	1	0.7	0.30000000000000004	2	4	1.4	1.2000000000000002	invalid	0.5165561819994764	51200	0	0	1	51200	1	51200	1	53248	0	0.7	51200	purple	turquoise	0	0	ml	2.7.3	bip	sub-14_ses-01_task-ml_proj-bip_2021-02-23-10-30-23.576317
49	14	1	1	50	stable	1	200	50	sv	turquoise	purple	purple	turquoise	right	left	0.7	0.30000000000000004	2	10	1.4	3.0000000000000004	0	1	0.30000000000000004	0.7	10	2	3.0000000000000004	1.4	invalid	0.4332347920008033	51200	0	0	2	51200	1	53248	0	51200	1	0.7	53248	purple	turquoise	0	10	ml	2.7.3	bip	sub-14_ses-01_task-ml_proj-bip_2021-02-23-10-30-23.576317
50	14	1	2	51	stable	1	200	51	sv	turquoise	purple	purple	turquoise	right	left	0.7	0.30000000000000004	10	2	7.0	0.6000000000000001	0	1	0.30000000000000004	0.7	2	10	0.6000000000000001	7.0	invalid	0.5998649369994382	53248	0	1	1	53248	1	53248	1	53248	1	0.7	53248	purple	turquoise	1	0	ml	2.7.3	bip	sub-14_ses-01_task-ml_proj-bip_2021-02-23-10-30-23.576317
51	14	1	2	52	stable	1	200	52	sv	turquoise	purple	purple	turquoise	right	left	0.7	0.30000000000000004	2	2	1.4	0.6000000000000001	1	0	0.30000000000000004	0.7	2	2	0.6000000000000001	1.4	valid	0.3665879070013034	51200	0	0	2	53248	0	53248	0	53248	0	0.7	53248	purple	turquoise	0	0	ml	2.7.3	bip	sub-14_ses-01_task-ml_proj-bip_2021-02-23-10-30-23.576317
52	14	1	2	53	stable	1	200	53	sv	turquoise	purple	purple	turquoise	right	left	0.7	0.30000000000000004	6	4	4.199999999999998	1.2000000000000002	0	1	0.30000000000000004	0.7	4	6	1.2000000000000002	4.199999999999998	invalid	0.6165087339995807	51200	0	0	2	53248	0	53248	0	53248	0	0.7	53248	purple	turquoise	1	4	ml	2.7.3	bip	sub-14_ses-01_task-ml_proj-bip_2021-02-23-10-30-23.576317
53	14	1	2	54	stable	1	200	54	sv	turquoise	purple	purple	turquoise	right	left	0.7	0.30000000000000004	4	2	2.8	0.6000000000000001	0	1	0.30000000000000004	0.7	2	4	0.6000000000000001	2.8	invalid	0.39991310400000657	51200	0	0	2	53248	0	53248	0	53248	0	0.7	53248	purple	turquoise	1	2	ml	2.7.3	bip	sub-14_ses-01_task-ml_proj-bip_2021-02-23-10-30-23.576317
54	14	1	2	55	stable	1	200	55	sv	turquoise	purple	purple	turquoise	right	left	0.7	0.30000000000000004	2	4	1.4	1.2000000000000002	1	0	0.30000000000000004	0.7	4	2	1.2000000000000002	1.4	valid	0.44989758799965773	51200	0	0	2	53248	0	53248	0	51200	1	0.7	53248	purple	turquoise	0	0	ml	2.7.3	bip	sub-14_ses-01_task-ml_proj-bip_2021-02-23-10-30-23.576317
55	14	1	2	56	stable	1	200	56	sv	purple	turquoise	purple	turquoise	left	right	0.7	0.30000000000000004	2	2	1.4	0.6000000000000001	1	0	0.7	0.30000000000000004	2	2	1.4	0.6000000000000001	valid	0.9497521949997464	51200	0	0	1	51200	1	51200	1	53248	0	0.7	51200	purple	turquoise	1	2	ml	2.7.3	bip	sub-14_ses-01_task-ml_proj-bip_2021-02-23-10-30-23.576317
56	14	1	2	57	stable	1	200	57	sv	turquoise	purple	purple	turquoise	right	left	0.7	0.30000000000000004	2	2	1.4	0.6000000000000001	1	0	0.30000000000000004	0.7	2	2	0.6000000000000001	1.4	valid	0.5665400990001217	53248	0	1	1	53248	1	53248	1	53248	1	0.7	53248	purple	turquoise	0	2	ml	2.7.3	bip	sub-14_ses-01_task-ml_proj-bip_2021-02-23-10-30-23.576317
57	14	1	2	58	stable	1	200	58	sv	turquoise	purple	purple	turquoise	right	left	0.7	0.30000000000000004	6	6	4.199999999999998	1.8000000000000005	1	0	0.30000000000000004	0.7	6	6	1.8000000000000005	4.199999999999998	valid	0.5165562120000686	53248	0	1	1	53248	1	53248	1	53248	1	0.7	53248	purple	turquoise	0	6	ml	2.7.3	bip	sub-14_ses-01_task-ml_proj-bip_2021-02-23-10-30-23.576317
58	14	1	2	59	stable	1	200	59	sv	purple	turquoise	purple	turquoise	left	right	0.7	0.30000000000000004	10	2	7.0	0.6000000000000001	1	0	0.7	0.30000000000000004	10	2	7.0	0.6000000000000001	valid	0.41657302800012985	51200	0	0	1	51200	1	51200	1	51200	1	0.7	51200	purple	turquoise	1	10	ml	2.7.3	bip	sub-14_ses-01_task-ml_proj-bip_2021-02-23-10-30-23.576317
59	14	1	2	60	stable	1	200	60	sv	turquoise	purple	purple	turquoise	right	left	0.7	0.30000000000000004	6	4	4.199999999999998	1.2000000000000002	1	0	0.30000000000000004	0.7	4	6	1.2000000000000002	4.199999999999998	valid	0.5498739690010552	53248	0	1	1	53248	1	53248	1	53248	1	0.7	53248	purple	turquoise	1	6	ml	2.7.3	bip	sub-14_ses-01_task-ml_proj-bip_2021-02-23-10-30-23.576317
60	14	1	2	61	stable	1	200	61	sv	purple	turquoise	purple	turquoise	left	right	0.7	0.30000000000000004	6	4	4.199999999999998	1.2000000000000002	0	1	0.7	0.30000000000000004	6	4	4.199999999999998	1.2000000000000002	invalid	0.34992826300003804	51200	0	0	1	51200	1	51200	1	51200	1	0.7	51200	purple	turquoise	1	0	ml	2.7.3	bip	sub-14_ses-01_task-ml_proj-bip_2021-02-23-10-30-23.576317
61	14	1	2	62	stable	1	200	62	sv	turquoise	purple	purple	turquoise	right	left	0.7	0.30000000000000004	2	10	1.4	3.0000000000000004	0	1	0.30000000000000004	0.7	10	2	3.0000000000000004	1.4	invalid	0.8997667339990585	51200	0	0	2	51200	1	53248	0	51200	1	0.7	53248	purple	turquoise	0	10	ml	2.7.3	bip	sub-14_ses-01_task-ml_proj-bip_2021-02-23-10-30-23.576317
62	14	1	2	63	stable	1	200	63	sv	turquoise	purple	purple	turquoise	right	left	0.7	0.30000000000000004	10	2	7.0	0.6000000000000001	1	0	0.30000000000000004	0.7	2	10	0.6000000000000001	7.0	valid	1.399614194999231	51200	0	0	2	53248	0	53248	0	53248	0	0.7	53248	purple	turquoise	1	0	ml	2.7.3	bip	sub-14_ses-01_task-ml_proj-bip_2021-02-23-10-30-23.576317
63	14	1	2	64	stable	1	200	64	sv	turquoise	purple	purple	turquoise	right	left	0.7	0.30000000000000004	4	6	2.8	1.8000000000000005	0	1	0.30000000000000004	0.7	6	4	1.8000000000000005	2.8	invalid	1.283025822000127	53248	0	1	1	53248	1	53248	1	51200	0	0.7	53248	purple	turquoise	0	0	ml	2.7.3	bip	sub-14_ses-01_task-ml_proj-bip_2021-02-23-10-30-23.576317
64	14	1	2	65	stable	1	200	65	sv	purple	turquoise	purple	turquoise	left	right	0.7	0.30000000000000004	4	2	2.8	0.6000000000000001	1	0	0.7	0.30000000000000004	4	2	2.8	0.6000000000000001	valid	0.6998291420004534	51200	0	0	1	51200	1	51200	1	51200	1	0.7	51200	purple	turquoise	1	4	ml	2.7.3	bip	sub-14_ses-01_task-ml_proj-bip_2021-02-23-10-30-23.576317
65	14	1	2	66	stable	1	200	66	sv	purple	turquoise	purple	turquoise	left	right	0.7	0.30000000000000004	2	4	1.4	1.2000000000000002	1	0	0.7	0.30000000000000004	2	4	1.4	1.2000000000000002	valid	1.183012070001496	51200	0	0	1	51200	1	51200	1	53248	0	0.7	51200	purple	turquoise	0	2	ml	2.7.3	bip	sub-14_ses-01_task-ml_proj-bip_2021-02-23-10-30-23.576317
66	14	1	2	67	stable	1	200	67	sv	turquoise	purple	purple	turquoise	right	left	0.7	0.30000000000000004	2	10	1.4	3.0000000000000004	1	0	0.30000000000000004	0.7	10	2	3.0000000000000004	1.4	valid	0.8664419329998054	51200	0	0	2	51200	1	53248	0	51200	1	0.7	53248	purple	turquoise	0	0	ml	2.7.3	bip	sub-14_ses-01_task-ml_proj-bip_2021-02-23-10-30-23.576317
67	14	1	2	68	stable	1	200	68	sv	turquoise	purple	purple	turquoise	right	left	0.7	0.30000000000000004	2	10	1.4	3.0000000000000004	1	0	0.30000000000000004	0.7	10	2	3.0000000000000004	1.4	valid	0.6998255540001992	51200	0	0	2	51200	1	53248	0	51200	1	0.7	53248	purple	turquoise	0	0	ml	2.7.3	bip	sub-14_ses-01_task-ml_proj-bip_2021-02-23-10-30-23.576317
68	14	1	2	69	stable	1	200	69	sv	turquoise	purple	purple	turquoise	right	left	0.7	0.30000000000000004	6	2	4.199999999999998	0.6000000000000001	0	1	0.30000000000000004	0.7	2	6	0.6000000000000001	4.199999999999998	invalid	0.7831446670006699	53248	0	1	1	53248	1	53248	1	53248	1	0.7	53248	purple	turquoise	1	0	ml	2.7.3	bip	sub-14_ses-01_task-ml_proj-bip_2021-02-23-10-30-23.576317
69	14	1	2	70	stable	1	200	70	sv	purple	turquoise	purple	turquoise	left	right	0.7	0.30000000000000004	6	2	4.199999999999998	0.6000000000000001	1	0	0.7	0.30000000000000004	6	2	4.199999999999998	0.6000000000000001	valid	0.6998173020001559	51200	0	0	1	51200	1	51200	1	51200	1	0.7	51200	purple	turquoise	1	6	ml	2.7.3	bip	sub-14_ses-01_task-ml_proj-bip_2021-02-23-10-30-23.576317
70	14	1	2	71	stable	1	200	71	sv	purple	turquoise	purple	turquoise	left	right	0.7	0.30000000000000004	2	4	1.4	1.2000000000000002	0	1	0.7	0.30000000000000004	2	4	1.4	1.2000000000000002	invalid	1.0497250210009952	51200	0	0	1	51200	1	51200	1	53248	0	0.7	51200	purple	turquoise	0	0	ml	2.7.3	bip	sub-14_ses-01_task-ml_proj-bip_2021-02-23-10-30-23.576317
71	14	1	2	72	stable	1	200	72	sv	purple	turquoise	purple	turquoise	left	right	0.7	0.30000000000000004	4	6	2.8	1.8000000000000005	1	0	0.7	0.30000000000000004	4	6	2.8	1.8000000000000005	valid	0.4165801889994327	53248	0	1	2	51200	0	51200	0	53248	1	0.7	51200	purple	turquoise	0	0	ml	2.7.3	bip	sub-14_ses-01_task-ml_proj-bip_2021-02-23-10-30-23.576317
72	14	1	2	73	stable	1	200	73	sv	purple	turquoise	purple	turquoise	left	right	0.7	0.30000000000000004	6	2	4.199999999999998	0.6000000000000001	1	0	0.7	0.30000000000000004	6	2	4.199999999999998	0.6000000000000001	valid	0.6665119449990016	53248	0	1	2	51200	0	51200	0	51200	0	0.7	51200	purple	turquoise	1	0	ml	2.7.3	bip	sub-14_ses-01_task-ml_proj-bip_2021-02-23-10-30-23.576317
73	14	1	2	74	stable	1	200	74	sv	purple	turquoise	purple	turquoise	left	right	0.7	0.30000000000000004	2	6	1.4	1.8000000000000005	0	1	0.7	0.30000000000000004	2	6	1.4	1.8000000000000005	invalid	1.1830181479999735	51200	0	0	1	53248	0	51200	1	53248	0	0.7	51200	purple	turquoise	0	0	ml	2.7.3	bip	sub-14_ses-01_task-ml_proj-bip_2021-02-23-10-30-23.576317
74	14	1	2	75	stable	1	200	75	sv	purple	turquoise	purple	turquoise	left	right	0.7	0.30000000000000004	6	6	4.199999999999998	1.8000000000000005	1	0	0.7	0.30000000000000004	6	6	4.199999999999998	1.8000000000000005	valid	0.4332439619993238	53248	0	1	2	51200	0	51200	0	53248	1	0.7	51200	purple	turquoise	1	0	ml	2.7.3	bip	sub-14_ses-01_task-ml_proj-bip_2021-02-23-10-30-23.576317
75	14	1	2	76	stable	1	200	76	sv	purple	turquoise	purple	turquoise	left	right	0.7	0.30000000000000004	2	10	1.4	3.0000000000000004	1	0	0.7	0.30000000000000004	2	10	1.4	3.0000000000000004	valid	1.4829399899990676	53248	0	1	2	53248	1	51200	0	53248	1	0.7	51200	purple	turquoise	0	0	ml	2.7.3	bip	sub-14_ses-01_task-ml_proj-bip_2021-02-23-10-30-23.576317
76	14	1	2	77	stable	1	200	77	sv	purple	turquoise	purple	turquoise	left	right	0.7	0.30000000000000004	6	4	4.199999999999998	1.2000000000000002	1	0	0.7	0.30000000000000004	6	4	4.199999999999998	1.2000000000000002	valid	0.3499201610011369	51200	0	0	1	51200	1	51200	1	51200	1	0.7	51200	purple	turquoise	1	6	ml	2.7.3	bip	sub-14_ses-01_task-ml_proj-bip_2021-02-23-10-30-23.576317
77	14	1	2	78	stable	1	200	78	sv	turquoise	purple	purple	turquoise	right	left	0.7	0.30000000000000004	6	2	4.199999999999998	0.6000000000000001	1	0	0.30000000000000004	0.7	2	6	0.6000000000000001	4.199999999999998	valid	0.5165437060004479	51200	0	0	2	53248	0	53248	0	53248	0	0.7	53248	purple	turquoise	1	0	ml	2.7.3	bip	sub-14_ses-01_task-ml_proj-bip_2021-02-23-10-30-23.576317
78	14	1	2	79	stable	1	200	79	sv	purple	turquoise	purple	turquoise	left	right	0.7	0.30000000000000004	2	2	1.4	0.6000000000000001	1	0	0.7	0.30000000000000004	2	2	1.4	0.6000000000000001	valid	0.4332347210001899	51200	0	0	1	51200	1	51200	1	53248	0	0.7	51200	purple	turquoise	1	2	ml	2.7.3	bip	sub-14_ses-01_task-ml_proj-bip_2021-02-23-10-30-23.576317
79	14	1	2	80	stable	1	200	80	sv	turquoise	purple	purple	turquoise	right	left	0.7	0.30000000000000004	6	6	4.199999999999998	1.8000000000000005	1	0	0.30000000000000004	0.7	6	6	1.8000000000000005	4.199999999999998	valid	0.7331599889985227	53248	0	1	1	53248	1	53248	1	53248	1	0.7	53248	purple	turquoise	0	6	ml	2.7.3	bip	sub-14_ses-01_task-ml_proj-bip_2021-02-23-10-30-23.576317
80	14	1	2	81	stable	1	200	81	sv	purple	turquoise	purple	turquoise	left	right	0.7	0.30000000000000004	4	2	2.8	0.6000000000000001	1	0	0.7	0.30000000000000004	4	2	2.8	0.6000000000000001	valid	0.6998371539993968	51200	0	0	1	51200	1	51200	1	51200	1	0.7	51200	purple	turquoise	1	4	ml	2.7.3	bip	sub-14_ses-01_task-ml_proj-bip_2021-02-23-10-30-23.576317
81	14	1	2	82	stable	1	200	82	sv	turquoise	purple	purple	turquoise	right	left	0.7	0.30000000000000004	6	2	4.199999999999998	0.6000000000000001	1	0	0.30000000000000004	0.7	2	6	0.6000000000000001	4.199999999999998	valid	0.41658241799996176	53248	0	1	1	53248	1	53248	1	53248	1	0.7	53248	purple	turquoise	1	6	ml	2.7.3	bip	sub-14_ses-01_task-ml_proj-bip_2021-02-23-10-30-23.576317
82	14	1	2	83	stable	1	200	83	sv	purple	turquoise	purple	turquoise	left	right	0.7	0.30000000000000004	6	2	4.199999999999998	0.6000000000000001	0	1	0.7	0.30000000000000004	6	2	4.199999999999998	0.6000000000000001	invalid	0.4832190509987413	51200	0	0	1	51200	1	51200	1	51200	1	0.7	51200	purple	turquoise	1	0	ml	2.7.3	bip	sub-14_ses-01_task-ml_proj-bip_2021-02-23-10-30-23.576317
83	14	1	2	84	stable	1	200	84	sv	turquoise	purple	purple	turquoise	right	left	0.7	0.30000000000000004	4	6	2.8	1.8000000000000005	1	0	0.30000000000000004	0.7	6	4	1.8000000000000005	2.8	valid	0.3999199980007688	53248	0	1	1	53248	1	53248	1	51200	0	0.7	53248	purple	turquoise	0	4	ml	2.7.3	bip	sub-14_ses-01_task-ml_proj-bip_2021-02-23-10-30-23.576317
84	14	1	2	85	stable	1	200	85	sv	turquoise	purple	purple	turquoise	right	left	0.7	0.30000000000000004	6	4	4.199999999999998	1.2000000000000002	1	0	0.30000000000000004	0.7	4	6	1.2000000000000002	4.199999999999998	valid	1.0830563930012431	53248	0	1	1	53248	1	53248	1	53248	1	0.7	53248	purple	turquoise	1	6	ml	2.7.3	bip	sub-14_ses-01_task-ml_proj-bip_2021-02-23-10-30-23.576317
85	14	1	2	86	stable	1	200	86	sv	turquoise	purple	purple	turquoise	right	left	0.7	0.30000000000000004	10	2	7.0	0.6000000000000001	0	1	0.30000000000000004	0.7	2	10	0.6000000000000001	7.0	invalid	0.6831744580013037	53248	0	1	1	53248	1	53248	1	53248	1	0.7	53248	purple	turquoise	1	0	ml	2.7.3	bip	sub-14_ses-01_task-ml_proj-bip_2021-02-23-10-30-23.576317
86	14	1	2	87	stable	1	200	87	sv	purple	turquoise	purple	turquoise	left	right	0.7	0.30000000000000004	6	6	4.199999999999998	1.8000000000000005	1	0	0.7	0.30000000000000004	6	6	4.199999999999998	1.8000000000000005	valid	1.016408583998782	53248	0	1	2	51200	0	51200	0	53248	1	0.7	51200	purple	turquoise	1	0	ml	2.7.3	bip	sub-14_ses-01_task-ml_proj-bip_2021-02-23-10-30-23.576317
87	14	1	2	88	stable	1	200	88	sv	turquoise	purple	purple	turquoise	right	left	0.7	0.30000000000000004	2	10	1.4	3.0000000000000004	1	0	0.30000000000000004	0.7	10	2	3.0000000000000004	1.4	valid	1.0330719999983555	53248	0	1	1	51200	0	53248	1	51200	0	0.7	53248	purple	turquoise	0	2	ml	2.7.3	bip	sub-14_ses-01_task-ml_proj-bip_2021-02-23-10-30-23.576317
88	14	1	2	89	stable	1	200	89	sv	turquoise	purple	purple	turquoise	right	left	0.7	0.30000000000000004	2	4	1.4	1.2000000000000002	0	1	0.30000000000000004	0.7	4	2	1.2000000000000002	1.4	invalid	0.9164518580000732	53248	0	1	1	53248	1	53248	1	51200	0	0.7	53248	purple	turquoise	0	0	ml	2.7.3	bip	sub-14_ses-01_task-ml_proj-bip_2021-02-23-10-30-23.576317
89	14	1	2	90	stable	1	200	90	sv	turquoise	purple	purple	turquoise	right	left	0.7	0.30000000000000004	2	2	1.4	0.6000000000000001	1	0	0.30000000000000004	0.7	2	2	0.6000000000000001	1.4	valid	0.5832031390000338	53248	0	1	1	53248	1	53248	1	53248	1	0.7	53248	purple	turquoise	0	2	ml	2.7.3	bip	sub-14_ses-01_task-ml_proj-bip_2021-02-23-10-30-23.576317
90	14	1	2	91	stable	1	200	91	sv	turquoise	purple	purple	turquoise	right	left	0.7	0.30000000000000004	10	2	7.0	0.6000000000000001	0	1	0.30000000000000004	0.7	2	10	0.6000000000000001	7.0	invalid	0.683172992999971	53248	0	1	1	53248	1	53248	1	53248	1	0.7	53248	purple	turquoise	1	0	ml	2.7.3	bip	sub-14_ses-01_task-ml_proj-bip_2021-02-23-10-30-23.576317
91	14	1	2	92	stable	1	200	92	sv	purple	turquoise	purple	turquoise	left	right	0.7	0.30000000000000004	2	4	1.4	1.2000000000000002	1	0	0.7	0.30000000000000004	2	4	1.4	1.2000000000000002	valid	0.9497507880005288	51200	0	0	1	51200	1	51200	1	53248	0	0.7	51200	purple	turquoise	0	2	ml	2.7.3	bip	sub-14_ses-01_task-ml_proj-bip_2021-02-23-10-30-23.576317
92	14	1	2	93	stable	1	200	93	sv	turquoise	purple	purple	turquoise	right	left	0.7	0.30000000000000004	6	6	4.199999999999998	1.8000000000000005	1	0	0.30000000000000004	0.7	6	6	1.8000000000000005	4.199999999999998	valid	0.6998293689994171	53248	0	1	1	53248	1	53248	1	53248	1	0.7	53248	purple	turquoise	0	6	ml	2.7.3	bip	sub-14_ses-01_task-ml_proj-bip_2021-02-23-10-30-23.576317
93	14	1	2	94	stable	1	200	94	sv	purple	turquoise	purple	turquoise	left	right	0.7	0.30000000000000004	4	2	2.8	0.6000000000000001	1	0	0.7	0.30000000000000004	4	2	2.8	0.6000000000000001	valid	1.599570897000376	53248	0	1	2	51200	0	51200	0	51200	0	0.7	51200	purple	turquoise	1	0	ml	2.7.3	bip	sub-14_ses-01_task-ml_proj-bip_2021-02-23-10-30-23.576317
94	14	1	2	95	stable	1	200	95	sv	purple	turquoise	purple	turquoise	left	right	0.7	0.30000000000000004	6	4	4.199999999999998	1.2000000000000002	1	0	0.7	0.30000000000000004	6	4	4.199999999999998	1.2000000000000002	valid	0.6498372730002302	51200	0	0	1	51200	1	51200	1	51200	1	0.7	51200	purple	turquoise	1	6	ml	2.7.3	bip	sub-14_ses-01_task-ml_proj-bip_2021-02-23-10-30-23.576317
95	14	1	2	96	stable	1	200	96	sv	purple	turquoise	purple	turquoise	left	right	0.7	0.30000000000000004	4	2	2.8	0.6000000000000001	1	0	0.7	0.30000000000000004	4	2	2.8	0.6000000000000001	valid	0.4998831909997534	51200	0	0	1	51200	1	51200	1	51200	1	0.7	51200	purple	turquoise	1	4	ml	2.7.3	bip	sub-14_ses-01_task-ml_proj-bip_2021-02-23-10-30-23.576317
96	14	1	2	97	stable	1	200	97	sv	purple	turquoise	purple	turquoise	left	right	0.7	0.30000000000000004	6	6	4.199999999999998	1.8000000000000005	1	0	0.7	0.30000000000000004	6	6	4.199999999999998	1.8000000000000005	valid	0.6331768319996627	51200	0	0	1	51200	1	51200	1	53248	0	0.7	51200	purple	turquoise	1	6	ml	2.7.3	bip	sub-14_ses-01_task-ml_proj-bip_2021-02-23-10-30-23.576317
97	14	1	2	98	stable	1	200	98	sv	purple	turquoise	purple	turquoise	left	right	0.7	0.30000000000000004	10	2	7.0	0.6000000000000001	1	0	0.7	0.30000000000000004	10	2	7.0	0.6000000000000001	valid	0.5831888719985727	51200	0	0	1	51200	1	51200	1	51200	1	0.7	51200	purple	turquoise	1	10	ml	2.7.3	bip	sub-14_ses-01_task-ml_proj-bip_2021-02-23-10-30-23.576317
98	14	1	2	99	stable	1	200	99	sv	purple	turquoise	purple	turquoise	left	right	0.7	0.30000000000000004	4	6	2.8	1.8000000000000005	1	0	0.7	0.30000000000000004	4	6	2.8	1.8000000000000005	valid	0.6165118399985658	51200	0	0	1	51200	1	51200	1	53248	0	0.7	51200	purple	turquoise	0	4	ml	2.7.3	bip	sub-14_ses-01_task-ml_proj-bip_2021-02-23-10-30-23.576317
99	14	1	2	100	stable	1	200	100	sv	purple	turquoise	purple	turquoise	left	right	0.7	0.30000000000000004	2	6	1.4	1.8000000000000005	0	1	0.7	0.30000000000000004	2	6	1.4	1.8000000000000005	invalid	0.9830757929994434	51200	0	0	1	53248	0	51200	1	53248	0	0.7	51200	purple	turquoise	0	0	ml	2.7.3	bip	sub-14_ses-01_task-ml_proj-bip_2021-02-23-10-30-23.576317
100	14	1	3	101	stable	1	200	101	sv	turquoise	purple	purple	turquoise	right	left	0.7	0.30000000000000004	6	4	4.199999999999998	1.2000000000000002	1	0	0.30000000000000004	0.7	4	6	1.2000000000000002	4.199999999999998	valid	0.8664399209992553	51200	0	0	2	53248	0	53248	0	53248	0	0.7	53248	purple	turquoise	1	0	ml	2.7.3	bip	sub-14_ses-01_task-ml_proj-bip_2021-02-23-10-30-23.576317
101	14	1	3	102	stable	1	200	102	sv	purple	turquoise	purple	turquoise	left	right	0.7	0.30000000000000004	4	2	2.8	0.6000000000000001	1	0	0.7	0.30000000000000004	4	2	2.8	0.6000000000000001	valid	0.38325728900053946	51200	0	0	1	51200	1	51200	1	51200	1	0.7	51200	purple	turquoise	1	4	ml	2.7.3	bip	sub-14_ses-01_task-ml_proj-bip_2021-02-23-10-30-23.576317
102	14	1	3	103	stable	1	200	103	sv	purple	turquoise	purple	turquoise	left	right	0.7	0.30000000000000004	2	6	1.4	1.8000000000000005	1	0	0.7	0.30000000000000004	2	6	1.4	1.8000000000000005	valid	0.6831658899991453	51200	0	0	1	53248	0	51200	1	53248	0	0.7	51200	purple	turquoise	0	2	ml	2.7.3	bip	sub-14_ses-01_task-ml_proj-bip_2021-02-23-10-30-23.576317
103	14	1	3	104	stable	1	200	104	sv	turquoise	purple	purple	turquoise	right	left	0.7	0.30000000000000004	10	2	7.0	0.6000000000000001	0	1	0.30000000000000004	0.7	2	10	0.6000000000000001	7.0	invalid	0.5831896689996938	51200	0	0	2	53248	0	53248	0	53248	0	0.7	53248	purple	turquoise	1	2	ml	2.7.3	bip	sub-14_ses-01_task-ml_proj-bip_2021-02-23-10-30-23.576317
104	14	1	3	105	stable	1	200	105	sv	purple	turquoise	purple	turquoise	left	right	0.7	0.30000000000000004	6	2	4.199999999999998	0.6000000000000001	0	1	0.7	0.30000000000000004	6	2	4.199999999999998	0.6000000000000001	invalid	0.6998255369999242	51200	0	0	1	51200	1	51200	1	51200	1	0.7	51200	purple	turquoise	1	0	ml	2.7.3	bip	sub-14_ses-01_task-ml_proj-bip_2021-02-23-10-30-23.576317
105	14	1	3	106	stable	1	200	106	sv	turquoise	purple	purple	turquoise	right	left	0.7	0.30000000000000004	6	4	4.199999999999998	1.2000000000000002	1	0	0.30000000000000004	0.7	4	6	1.2000000000000002	4.199999999999998	valid	0.9164293680005358	51200	0	0	2	53248	0	53248	0	53248	0	0.7	53248	purple	turquoise	1	0	ml	2.7.3	bip	sub-14_ses-01_task-ml_proj-bip_2021-02-23-10-30-23.576317
106	14	1	3	107	stable	1	200	107	sv	turquoise	purple	purple	turquoise	right	left	0.7	0.30000000000000004	4	6	2.8	1.8000000000000005	0	1	0.30000000000000004	0.7	6	4	1.8000000000000005	2.8	invalid	1.0997282650005218	53248	0	1	1	53248	1	53248	1	51200	0	0.7	53248	purple	turquoise	0	0	ml	2.7.3	bip	sub-14_ses-01_task-ml_proj-bip_2021-02-23-10-30-23.576317
107	14	1	3	108	stable	1	200	108	sv	purple	turquoise	purple	turquoise	left	right	0.7	0.30000000000000004	6	6	4.199999999999998	1.8000000000000005	1	0	0.7	0.30000000000000004	6	6	4.199999999999998	1.8000000000000005	valid	0.41656732599949453	51200	0	0	1	51200	1	51200	1	53248	0	0.7	51200	purple	turquoise	1	6	ml	2.7.3	bip	sub-14_ses-01_task-ml_proj-bip_2021-02-23-10-30-23.576317
108	14	1	3	109	stable	1	200	109	sv	purple	turquoise	purple	turquoise	left	right	0.7	0.30000000000000004	10	2	7.0	0.6000000000000001	0	1	0.7	0.30000000000000004	10	2	7.0	0.6000000000000001	invalid	0.4998834650014032	51200	0	0	1	51200	1	51200	1	51200	1	0.7	51200	purple	turquoise	1	0	ml	2.7.3	bip	sub-14_ses-01_task-ml_proj-bip_2021-02-23-10-30-23.576317
109	14	1	3	110	stable	1	200	110	sv	purple	turquoise	purple	turquoise	left	right	0.7	0.30000000000000004	4	6	2.8	1.8000000000000005	1	0	0.7	0.30000000000000004	4	6	2.8	1.8000000000000005	valid	0.4998919209992891	53248	0	1	2	51200	0	51200	0	53248	1	0.7	51200	purple	turquoise	0	0	ml	2.7.3	bip	sub-14_ses-01_task-ml_proj-bip_2021-02-23-10-30-23.576317
110	14	1	3	111	stable	1	200	111	sv	purple	turquoise	purple	turquoise	left	right	0.7	0.30000000000000004	4	2	2.8	0.6000000000000001	1	0	0.7	0.30000000000000004	4	2	2.8	0.6000000000000001	valid	0.4665563199996541	51200	0	0	1	51200	1	51200	1	51200	1	0.7	51200	purple	turquoise	1	4	ml	2.7.3	bip	sub-14_ses-01_task-ml_proj-bip_2021-02-23-10-30-23.576317
111	14	1	3	112	stable	1	200	112	sv	turquoise	purple	purple	turquoise	right	left	0.7	0.30000000000000004	6	6	4.199999999999998	1.8000000000000005	1	0	0.30000000000000004	0.7	6	6	1.8000000000000005	4.199999999999998	valid	1.2163336640005582	51200	0	0	2	53248	0	53248	0	53248	0	0.7	53248	purple	turquoise	0	0	ml	2.7.3	bip	sub-14_ses-01_task-ml_proj-bip_2021-02-23-10-30-23.576317
112	14	1	3	113	stable	1	200	113	sv	purple	turquoise	purple	turquoise	left	right	0.7	0.30000000000000004	4	2	2.8	0.6000000000000001	0	1	0.7	0.30000000000000004	4	2	2.8	0.6000000000000001	invalid	0.6331750000008469	51200	0	0	1	51200	1	51200	1	51200	1	0.7	51200	purple	turquoise	1	0	ml	2.7.3	bip	sub-14_ses-01_task-ml_proj-bip_2021-02-23-10-30-23.576317
113	14	1	3	114	stable	1	200	114	sv	turquoise	purple	purple	turquoise	right	left	0.7	0.30000000000000004	2	4	1.4	1.2000000000000002	1	0	0.30000000000000004	0.7	4	2	1.2000000000000002	1.4	valid	1.3663147059996843	53248	0	1	1	53248	1	53248	1	51200	0	0.7	53248	purple	turquoise	0	2	ml	2.7.3	bip	sub-14_ses-01_task-ml_proj-bip_2021-02-23-10-30-23.576317
114	14	1	3	115	stable	1	200	115	sv	purple	turquoise	purple	turquoise	left	right	0.7	0.30000000000000004	2	2	1.4	0.6000000000000001	1	0	0.7	0.30000000000000004	2	2	1.4	0.6000000000000001	valid	0.46655599299992895	51200	0	0	1	51200	1	51200	1	53248	0	0.7	51200	purple	turquoise	1	2	ml	2.7.3	bip	sub-14_ses-01_task-ml_proj-bip_2021-02-23-10-30-23.576317
115	14	1	3	116	stable	1	200	116	sv	purple	turquoise	purple	turquoise	left	right	0.7	0.30000000000000004	2	10	1.4	3.0000000000000004	1	0	0.7	0.30000000000000004	2	10	1.4	3.0000000000000004	valid	0.7164966849995835	53248	0	1	2	53248	1	51200	0	53248	1	0.7	51200	purple	turquoise	0	0	ml	2.7.3	bip	sub-14_ses-01_task-ml_proj-bip_2021-02-23-10-30-23.576317
116	14	1	3	117	stable	1	200	117	sv	purple	turquoise	purple	turquoise	left	right	0.7	0.30000000000000004	4	6	2.8	1.8000000000000005	1	0	0.7	0.30000000000000004	4	6	2.8	1.8000000000000005	valid	0.9830772309996972	51200	0	0	1	51200	1	51200	1	53248	0	0.7	51200	purple	turquoise	0	4	ml	2.7.3	bip	sub-14_ses-01_task-ml_proj-bip_2021-02-23-10-30-23.576317
117	14	1	3	118	stable	1	200	118	sv	purple	turquoise	purple	turquoise	left	right	0.7	0.30000000000000004	6	6	4.199999999999998	1.8000000000000005	0	1	0.7	0.30000000000000004	6	6	4.199999999999998	1.8000000000000005	invalid	1.166347554000822	51200	0	0	1	51200	1	51200	1	53248	0	0.7	51200	purple	turquoise	1	0	ml	2.7.3	bip	sub-14_ses-01_task-ml_proj-bip_2021-02-23-10-30-23.576317
118	14	1	3	119	stable	1	200	119	sv	purple	turquoise	purple	turquoise	left	right	0.7	0.30000000000000004	2	2	1.4	0.6000000000000001	0	1	0.7	0.30000000000000004	2	2	1.4	0.6000000000000001	invalid	0.6664999240001634	51200	0	0	1	51200	1	51200	1	53248	0	0.7	51200	purple	turquoise	1	0	ml	2.7.3	bip	sub-14_ses-01_task-ml_proj-bip_2021-02-23-10-30-23.576317
119	14	1	3	120	stable	1	200	120	sv	purple	turquoise	purple	turquoise	left	right	0.7	0.30000000000000004	2	6	1.4	1.8000000000000005	1	0	0.7	0.30000000000000004	2	6	1.4	1.8000000000000005	valid	0.3832648980005615	53248	0	1	2	53248	1	51200	0	53248	1	0.7	51200	purple	turquoise	0	0	ml	2.7.3	bip	sub-14_ses-01_task-ml_proj-bip_2021-02-23-10-30-23.576317
120	14	1	3	121	stable	1	200	121	sv	purple	turquoise	purple	turquoise	left	right	0.7	0.30000000000000004	2	10	1.4	3.0000000000000004	0	1	0.7	0.30000000000000004	2	10	1.4	3.0000000000000004	invalid	1.1663648800004012	53248	0	1	2	53248	1	51200	0	53248	1	0.7	51200	purple	turquoise	0	10	ml	2.7.3	bip	sub-14_ses-01_task-ml_proj-bip_2021-02-23-10-30-23.576317
121	14	1	3	122	stable	1	200	122	sv	purple	turquoise	purple	turquoise	left	right	0.7	0.30000000000000004	10	2	7.0	0.6000000000000001	1	0	0.7	0.30000000000000004	10	2	7.0	0.6000000000000001	valid	0.7664729389998683	51200	0	0	1	51200	1	51200	1	51200	1	0.7	51200	purple	turquoise	1	10	ml	2.7.3	bip	sub-14_ses-01_task-ml_proj-bip_2021-02-23-10-30-23.576317
122	14	1	3	123	stable	1	200	123	sv	turquoise	purple	purple	turquoise	right	left	0.7	0.30000000000000004	6	2	4.199999999999998	0.6000000000000001	0	1	0.30000000000000004	0.7	2	6	0.6000000000000001	4.199999999999998	invalid	1.2663361150007404	53248	0	1	1	53248	1	53248	1	53248	1	0.7	53248	purple	turquoise	1	0	ml	2.7.3	bip	sub-14_ses-01_task-ml_proj-bip_2021-02-23-10-30-23.576317
123	14	1	3	124	stable	1	200	124	sv	turquoise	purple	purple	turquoise	right	left	0.7	0.30000000000000004	10	2	7.0	0.6000000000000001	1	0	0.30000000000000004	0.7	2	10	0.6000000000000001	7.0	valid	0.7664763560005667	53248	0	1	1	53248	1	53248	1	53248	1	0.7	53248	purple	turquoise	1	10	ml	2.7.3	bip	sub-14_ses-01_task-ml_proj-bip_2021-02-23-10-30-23.576317
124	14	1	3	125	stable	1	200	125	sv	purple	turquoise	purple	turquoise	left	right	0.7	0.30000000000000004	6	6	4.199999999999998	1.8000000000000005	0	1	0.7	0.30000000000000004	6	6	4.199999999999998	1.8000000000000005	invalid	1.7495272460000706	51200	0	0	1	51200	1	51200	1	53248	0	0.7	51200	purple	turquoise	1	0	ml	2.7.3	bip	sub-14_ses-01_task-ml_proj-bip_2021-02-23-10-30-23.576317
125	14	1	3	126	stable	1	200	126	sv	turquoise	purple	purple	turquoise	right	left	0.7	0.30000000000000004	4	2	2.8	0.6000000000000001	0	1	0.30000000000000004	0.7	2	4	0.6000000000000001	2.8	invalid	1.1830285719988751	53248	0	1	1	53248	1	53248	1	53248	1	0.7	53248	purple	turquoise	1	0	ml	2.7.3	bip	sub-14_ses-01_task-ml_proj-bip_2021-02-23-10-30-23.576317
126	14	1	3	127	stable	1	200	127	sv	turquoise	purple	purple	turquoise	right	left	0.7	0.30000000000000004	6	4	4.199999999999998	1.2000000000000002	1	0	0.30000000000000004	0.7	4	6	1.2000000000000002	4.199999999999998	valid	0.3999098809999849	51200	0	0	2	53248	0	53248	0	53248	0	0.7	53248	purple	turquoise	1	0	ml	2.7.3	bip	sub-14_ses-01_task-ml_proj-bip_2021-02-23-10-30-23.576317
127	14	1	3	128	stable	1	200	128	sv	purple	turquoise	purple	turquoise	left	right	0.7	0.30000000000000004	2	10	1.4	3.0000000000000004	1	0	0.7	0.30000000000000004	2	10	1.4	3.0000000000000004	valid	0.7331575980006164	53248	0	1	2	53248	1	51200	0	53248	1	0.7	51200	purple	turquoise	0	0	ml	2.7.3	bip	sub-14_ses-01_task-ml_proj-bip_2021-02-23-10-30-23.576317
128	14	1	3	129	stable	1	200	129	sv	turquoise	purple	purple	turquoise	right	left	0.7	0.30000000000000004	2	10	1.4	3.0000000000000004	1	0	0.30000000000000004	0.7	10	2	3.0000000000000004	1.4	valid	0.9830734650004159	51200	0	0	2	51200	1	53248	0	51200	1	0.7	53248	purple	turquoise	0	0	ml	2.7.3	bip	sub-14_ses-01_task-ml_proj-bip_2021-02-23-10-30-23.576317
129	14	1	3	130	stable	1	200	130	sv	purple	turquoise	purple	turquoise	left	right	0.7	0.30000000000000004	4	2	2.8	0.6000000000000001	1	0	0.7	0.30000000000000004	4	2	2.8	0.6000000000000001	valid	0.8497799980013951	51200	0	0	1	51200	1	51200	1	51200	1	0.7	51200	purple	turquoise	1	4	ml	2.7.3	bip	sub-14_ses-01_task-ml_proj-bip_2021-02-23-10-30-23.576317
130	14	1	3	131	stable	1	200	131	sv	purple	turquoise	purple	turquoise	left	right	0.7	0.30000000000000004	2	10	1.4	3.0000000000000004	0	1	0.7	0.30000000000000004	2	10	1.4	3.0000000000000004	invalid	1.0997211640005844	53248	0	1	2	53248	1	51200	0	53248	1	0.7	51200	purple	turquoise	0	10	ml	2.7.3	bip	sub-14_ses-01_task-ml_proj-bip_2021-02-23-10-30-23.576317
131	14	1	3	132	stable	1	200	132	sv	turquoise	purple	purple	turquoise	right	left	0.7	0.30000000000000004	2	2	1.4	0.6000000000000001	1	0	0.30000000000000004	0.7	2	2	0.6000000000000001	1.4	valid	1.1330499290015723	53248	0	1	1	53248	1	53248	1	53248	1	0.7	53248	purple	turquoise	0	2	ml	2.7.3	bip	sub-14_ses-01_task-ml_proj-bip_2021-02-23-10-30-23.576317
132	14	1	3	133	stable	1	200	133	sv	purple	turquoise	purple	turquoise	left	right	0.7	0.30000000000000004	2	10	1.4	3.0000000000000004	0	1	0.7	0.30000000000000004	2	10	1.4	3.0000000000000004	invalid	1.133043429999816	53248	0	1	2	53248	1	51200	0	53248	1	0.7	51200	purple	turquoise	0	10	ml	2.7.3	bip	sub-14_ses-01_task-ml_proj-bip_2021-02-23-10-30-23.576317
133	14	1	3	134	stable	1	200	134	sv	purple	turquoise	purple	turquoise	left	right	0.7	0.30000000000000004	6	4	4.199999999999998	1.2000000000000002	1	0	0.7	0.30000000000000004	6	4	4.199999999999998	1.2000000000000002	valid	0.8164608759998373	51200	0	0	1	51200	1	51200	1	51200	1	0.7	51200	purple	turquoise	1	6	ml	2.7.3	bip	sub-14_ses-01_task-ml_proj-bip_2021-02-23-10-30-23.576317
134	14	1	3	135	stable	1	200	135	sv	turquoise	purple	purple	turquoise	right	left	0.7	0.30000000000000004	6	6	4.199999999999998	1.8000000000000005	0	1	0.30000000000000004	0.7	6	6	1.8000000000000005	4.199999999999998	invalid	1.4162930660004351	53248	0	1	1	53248	1	53248	1	53248	1	0.7	53248	purple	turquoise	0	0	ml	2.7.3	bip	sub-14_ses-01_task-ml_proj-bip_2021-02-23-10-30-23.576317
135	14	1	3	136	stable	1	200	136	sv	purple	turquoise	purple	turquoise	left	right	0.7	0.30000000000000004	10	2	7.0	0.6000000000000001	1	0	0.7	0.30000000000000004	10	2	7.0	0.6000000000000001	valid	0.7831326550003723	51200	0	0	1	51200	1	51200	1	51200	1	0.7	51200	purple	turquoise	1	10	ml	2.7.3	bip	sub-14_ses-01_task-ml_proj-bip_2021-02-23-10-30-23.576317
136	14	1	3	137	stable	1	200	137	sv	purple	turquoise	purple	turquoise	left	right	0.7	0.30000000000000004	2	2	1.4	0.6000000000000001	1	0	0.7	0.30000000000000004	2	2	1.4	0.6000000000000001	valid	1.1996729260008578	51200	0	0	1	51200	1	51200	1	53248	0	0.7	51200	purple	turquoise	1	2	ml	2.7.3	bip	sub-14_ses-01_task-ml_proj-bip_2021-02-23-10-30-23.576317
137	14	1	3	138	stable	1	200	138	sv	purple	turquoise	purple	turquoise	left	right	0.7	0.30000000000000004	2	2	1.4	0.6000000000000001	0	1	0.7	0.30000000000000004	2	2	1.4	0.6000000000000001	invalid	0.5665304490012204	51200	0	0	1	51200	1	51200	1	53248	0	0.7	51200	purple	turquoise	1	0	ml	2.7.3	bip	sub-14_ses-01_task-ml_proj-bip_2021-02-23-10-30-23.576317
138	14	1	3	139	stable	1	200	139	sv	purple	turquoise	purple	turquoise	left	right	0.7	0.30000000000000004	2	2	1.4	0.6000000000000001	1	0	0.7	0.30000000000000004	2	2	1.4	0.6000000000000001	valid	1.3996301260012842	53248	0	1	2	51200	0	51200	0	53248	1	0.7	51200	purple	turquoise	1	0	ml	2.7.3	bip	sub-14_ses-01_task-ml_proj-bip_2021-02-23-10-30-23.576317
139	14	1	3	140	stable	1	200	140	sv	turquoise	purple	purple	turquoise	right	left	0.7	0.30000000000000004	10	2	7.0	0.6000000000000001	1	0	0.30000000000000004	0.7	2	10	0.6000000000000001	7.0	valid	0.5832032690013875	53248	0	1	1	53248	1	53248	1	53248	1	0.7	53248	purple	turquoise	1	10	ml	2.7.3	bip	sub-14_ses-01_task-ml_proj-bip_2021-02-23-10-30-23.576317
140	14	1	3	141	stable	1	200	141	sv	turquoise	purple	purple	turquoise	right	left	0.7	0.30000000000000004	6	2	4.199999999999998	0.6000000000000001	1	0	0.30000000000000004	0.7	2	6	0.6000000000000001	4.199999999999998	valid	0.5998520940011076	53248	0	1	1	53248	1	53248	1	53248	1	0.7	53248	purple	turquoise	1	6	ml	2.7.3	bip	sub-14_ses-01_task-ml_proj-bip_2021-02-23-10-30-23.576317
141	14	1	3	142	stable	1	200	142	sv	turquoise	purple	purple	turquoise	right	left	0.7	0.30000000000000004	2	2	1.4	0.6000000000000001	1	0	0.30000000000000004	0.7	2	2	0.6000000000000001	1.4	valid	0.6331761769997684	51200	0	0	2	53248	0	53248	0	53248	0	0.7	53248	purple	turquoise	0	0	ml	2.7.3	bip	sub-14_ses-01_task-ml_proj-bip_2021-02-23-10-30-23.576317
142	14	1	3	143	stable	1	200	143	sv	turquoise	purple	purple	turquoise	right	left	0.7	0.30000000000000004	4	2	2.8	0.6000000000000001	1	0	0.30000000000000004	0.7	2	4	0.6000000000000001	2.8	valid	0.8164606650007045	53248	0	1	1	53248	1	53248	1	53248	1	0.7	53248	purple	turquoise	1	4	ml	2.7.3	bip	sub-14_ses-01_task-ml_proj-bip_2021-02-23-10-30-23.576317
143	14	1	3	144	stable	1	200	144	sv	purple	turquoise	purple	turquoise	left	right	0.7	0.30000000000000004	4	2	2.8	0.6000000000000001	1	0	0.7	0.30000000000000004	4	2	2.8	0.6000000000000001	valid	0.9330898749994958	51200	0	0	1	51200	1	51200	1	51200	1	0.7	51200	purple	turquoise	1	4	ml	2.7.3	bip	sub-14_ses-01_task-ml_proj-bip_2021-02-23-10-30-23.576317
144	14	1	3	145	stable	1	200	145	sv	turquoise	purple	purple	turquoise	right	left	0.7	0.30000000000000004	6	6	4.199999999999998	1.8000000000000005	0	1	0.30000000000000004	0.7	6	6	1.8000000000000005	4.199999999999998	invalid	1.3163243119997787	53248	0	1	1	53248	1	53248	1	53248	1	0.7	53248	purple	turquoise	0	0	ml	2.7.3	bip	sub-14_ses-01_task-ml_proj-bip_2021-02-23-10-30-23.576317
145	14	1	3	146	stable	1	200	146	sv	purple	turquoise	purple	turquoise	left	right	0.7	0.30000000000000004	4	2	2.8	0.6000000000000001	1	0	0.7	0.30000000000000004	4	2	2.8	0.6000000000000001	valid	0.9164269620014238	51200	0	0	1	51200	1	51200	1	51200	1	0.7	51200	purple	turquoise	1	4	ml	2.7.3	bip	sub-14_ses-01_task-ml_proj-bip_2021-02-23-10-30-23.576317
146	14	1	3	147	stable	1	200	147	sv	turquoise	purple	purple	turquoise	right	left	0.7	0.30000000000000004	2	10	1.4	3.0000000000000004	1	0	0.30000000000000004	0.7	10	2	3.0000000000000004	1.4	valid	0.7331466649993672	51200	0	0	2	51200	1	53248	0	51200	1	0.7	53248	purple	turquoise	0	0	ml	2.7.3	bip	sub-14_ses-01_task-ml_proj-bip_2021-02-23-10-30-23.576317
147	14	1	3	148	stable	1	200	148	sv	purple	turquoise	purple	turquoise	left	right	0.7	0.30000000000000004	4	2	2.8	0.6000000000000001	1	0	0.7	0.30000000000000004	4	2	2.8	0.6000000000000001	valid	0.8164498950009147	51200	0	0	1	51200	1	51200	1	51200	1	0.7	51200	purple	turquoise	1	4	ml	2.7.3	bip	sub-14_ses-01_task-ml_proj-bip_2021-02-23-10-30-23.576317
148	14	1	3	149	stable	1	200	149	sv	purple	turquoise	purple	turquoise	left	right	0.7	0.30000000000000004	2	10	1.4	3.0000000000000004	1	0	0.7	0.30000000000000004	2	10	1.4	3.0000000000000004	valid	1.2663406049996409	53248	0	1	2	53248	1	51200	0	53248	1	0.7	51200	purple	turquoise	0	0	ml	2.7.3	bip	sub-14_ses-01_task-ml_proj-bip_2021-02-23-10-30-23.576317
149	14	1	3	150	stable	1	200	150	sv	turquoise	purple	purple	turquoise	right	left	0.7	0.30000000000000004	4	2	2.8	0.6000000000000001	1	0	0.30000000000000004	0.7	2	4	0.6000000000000001	2.8	valid	0.7331585209994955	53248	0	1	1	53248	1	53248	1	53248	1	0.7	53248	purple	turquoise	1	4	ml	2.7.3	bip	sub-14_ses-01_task-ml_proj-bip_2021-02-23-10-30-23.576317
150	14	1	4	151	stable	1	200	151	sv	purple	turquoise	purple	turquoise	left	right	0.7	0.30000000000000004	6	4	4.199999999999998	1.2000000000000002	1	0	0.7	0.30000000000000004	6	4	4.199999999999998	1.2000000000000002	valid	0.5998515320006845	51200	0	0	1	51200	1	51200	1	51200	1	0.7	51200	purple	turquoise	1	6	ml	2.7.3	bip	sub-14_ses-01_task-ml_proj-bip_2021-02-23-10-30-23.576317
151	14	1	4	152	stable	1	200	152	sv	turquoise	purple	purple	turquoise	right	left	0.7	0.30000000000000004	4	6	2.8	1.8000000000000005	1	0	0.30000000000000004	0.7	6	4	1.8000000000000005	2.8	valid	0.799806629998784	53248	0	1	1	53248	1	53248	1	51200	0	0.7	53248	purple	turquoise	0	4	ml	2.7.3	bip	sub-14_ses-01_task-ml_proj-bip_2021-02-23-10-30-23.576317
152	14	1	4	153	stable	1	200	153	sv	turquoise	purple	purple	turquoise	right	left	0.7	0.30000000000000004	6	6	4.199999999999998	1.8000000000000005	1	0	0.30000000000000004	0.7	6	6	1.8000000000000005	4.199999999999998	valid	0.8164678979992459	53248	0	1	1	53248	1	53248	1	53248	1	0.7	53248	purple	turquoise	0	6	ml	2.7.3	bip	sub-14_ses-01_task-ml_proj-bip_2021-02-23-10-30-23.576317
153	14	1	4	154	stable	1	200	154	sv	purple	turquoise	purple	turquoise	left	right	0.7	0.30000000000000004	2	4	1.4	1.2000000000000002	0	1	0.7	0.30000000000000004	2	4	1.4	1.2000000000000002	invalid	1.2163517460012372	53248	0	1	2	51200	0	51200	0	53248	1	0.7	51200	purple	turquoise	0	4	ml	2.7.3	bip	sub-14_ses-01_task-ml_proj-bip_2021-02-23-10-30-23.576317
154	14	1	4	155	stable	1	200	155	sv	turquoise	purple	purple	turquoise	right	left	0.7	0.30000000000000004	2	10	1.4	3.0000000000000004	0	1	0.30000000000000004	0.7	10	2	3.0000000000000004	1.4	invalid	0.7164885829988634	51200	0	0	2	51200	1	53248	0	51200	1	0.7	53248	purple	turquoise	0	10	ml	2.7.3	bip	sub-14_ses-01_task-ml_proj-bip_2021-02-23-10-30-23.576317
155	14	1	4	156	stable	1	200	156	sv	turquoise	purple	purple	turquoise	right	left	0.7	0.30000000000000004	6	2	4.199999999999998	0.6000000000000001	1	0	0.30000000000000004	0.7	2	6	0.6000000000000001	4.199999999999998	valid	0.8497912309994717	53248	0	1	1	53248	1	53248	1	53248	1	0.7	53248	purple	turquoise	1	6	ml	2.7.3	bip	sub-14_ses-01_task-ml_proj-bip_2021-02-23-10-30-23.576317
156	14	1	4	157	stable	1	200	157	sv	purple	turquoise	purple	turquoise	left	right	0.7	0.30000000000000004	6	4	4.199999999999998	1.2000000000000002	1	0	0.7	0.30000000000000004	6	4	4.199999999999998	1.2000000000000002	valid	0.4665593699992314	51200	0	0	1	51200	1	51200	1	51200	1	0.7	51200	purple	turquoise	1	6	ml	2.7.3	bip	sub-14_ses-01_task-ml_proj-bip_2021-02-23-10-30-23.576317
157	14	1	4	158	stable	1	200	158	sv	turquoise	purple	purple	turquoise	right	left	0.7	0.30000000000000004	4	6	2.8	1.8000000000000005	1	0	0.30000000000000004	0.7	6	4	1.8000000000000005	2.8	valid	0.6165306249986315	53248	0	1	1	53248	1	53248	1	51200	0	0.7	53248	purple	turquoise	0	4	ml	2.7.3	bip	sub-14_ses-01_task-ml_proj-bip_2021-02-23-10-30-23.576317
158	14	1	4	159	stable	1	200	159	sv	turquoise	purple	purple	turquoise	right	left	0.7	0.30000000000000004	2	2	1.4	0.6000000000000001	1	0	0.30000000000000004	0.7	2	2	0.6000000000000001	1.4	valid	1.0830585669991706	53248	0	1	1	53248	1	53248	1	53248	1	0.7	53248	purple	turquoise	0	2	ml	2.7.3	bip	sub-14_ses-01_task-ml_proj-bip_2021-02-23-10-30-23.576317
159	14	1	4	160	stable	1	200	160	sv	purple	turquoise	purple	turquoise	left	right	0.7	0.30000000000000004	6	4	4.199999999999998	1.2000000000000002	1	0	0.7	0.30000000000000004	6	4	4.199999999999998	1.2000000000000002	valid	1.0997015699995245	51200	0	0	1	51200	1	51200	1	51200	1	0.7	51200	purple	turquoise	1	6	ml	2.7.3	bip	sub-14_ses-01_task-ml_proj-bip_2021-02-23-10-30-23.576317
160	14	1	4	161	stable	1	200	161	sv	turquoise	purple	purple	turquoise	right	left	0.7	0.30000000000000004	4	2	2.8	0.6000000000000001	0	1	0.30000000000000004	0.7	2	4	0.6000000000000001	2.8	invalid	0.5665405090003333	53248	0	1	1	53248	1	53248	1	53248	1	0.7	53248	purple	turquoise	1	0	ml	2.7.3	bip	sub-14_ses-01_task-ml_proj-bip_2021-02-23-10-30-23.576317
161	14	1	4	162	stable	1	200	162	sv	turquoise	purple	purple	turquoise	right	left	0.7	0.30000000000000004	2	6	1.4	1.8000000000000005	1	0	0.30000000000000004	0.7	6	2	1.8000000000000005	1.4	valid	0.8331155600008059	51200	0	0	2	51200	1	53248	0	51200	1	0.7	53248	purple	turquoise	0	0	ml	2.7.3	bip	sub-14_ses-01_task-ml_proj-bip_2021-02-23-10-30-23.576317
162	14	1	4	163	stable	1	200	163	sv	turquoise	purple	purple	turquoise	right	left	0.7	0.30000000000000004	10	2	7.0	0.6000000000000001	1	0	0.30000000000000004	0.7	2	10	0.6000000000000001	7.0	valid	0.4332451079990278	53248	0	1	1	53248	1	53248	1	53248	1	0.7	53248	purple	turquoise	1	10	ml	2.7.3	bip	sub-14_ses-01_task-ml_proj-bip_2021-02-23-10-30-23.576317
163	14	1	4	164	stable	1	200	164	sv	turquoise	purple	purple	turquoise	right	left	0.7	0.30000000000000004	2	6	1.4	1.8000000000000005	0	1	0.30000000000000004	0.7	6	2	1.8000000000000005	1.4	invalid	1.0164159320011097	53248	0	1	1	51200	0	53248	1	51200	0	0.7	53248	purple	turquoise	0	0	ml	2.7.3	bip	sub-14_ses-01_task-ml_proj-bip_2021-02-23-10-30-23.576317
164	14	1	4	165	stable	1	200	165	sv	turquoise	purple	purple	turquoise	right	left	0.7	0.30000000000000004	6	2	4.199999999999998	0.6000000000000001	1	0	0.30000000000000004	0.7	2	6	0.6000000000000001	4.199999999999998	valid	0.5665416900010314	53248	0	1	1	53248	1	53248	1	53248	1	0.7	53248	purple	turquoise	1	6	ml	2.7.3	bip	sub-14_ses-01_task-ml_proj-bip_2021-02-23-10-30-23.576317
165	14	1	4	166	stable	1	200	166	sv	turquoise	purple	purple	turquoise	right	left	0.7	0.30000000000000004	6	2	4.199999999999998	0.6000000000000001	1	0	0.30000000000000004	0.7	2	6	0.6000000000000001	4.199999999999998	valid	0.9164405529991201	53248	0	1	1	53248	1	53248	1	53248	1	0.7	53248	purple	turquoise	1	6	ml	2.7.3	bip	sub-14_ses-01_task-ml_proj-bip_2021-02-23-10-30-23.576317
166	14	1	4	167	stable	1	200	167	sv	turquoise	purple	purple	turquoise	right	left	0.7	0.30000000000000004	6	2	4.199999999999998	0.6000000000000001	1	0	0.30000000000000004	0.7	2	6	0.6000000000000001	4.199999999999998	valid	0.5832057039988285	53248	0	1	1	53248	1	53248	1	53248	1	0.7	53248	purple	turquoise	1	6	ml	2.7.3	bip	sub-14_ses-01_task-ml_proj-bip_2021-02-23-10-30-23.576317
167	14	1	4	168	stable	1	200	168	sv	purple	turquoise	purple	turquoise	left	right	0.7	0.30000000000000004	6	2	4.199999999999998	0.6000000000000001	0	1	0.7	0.30000000000000004	6	2	4.199999999999998	0.6000000000000001	invalid	0.5998534030004521	51200	0	0	1	51200	1	51200	1	51200	1	0.7	51200	purple	turquoise	1	0	ml	2.7.3	bip	sub-14_ses-01_task-ml_proj-bip_2021-02-23-10-30-23.576317
168	14	1	4	169	stable	1	200	169	sv	purple	turquoise	purple	turquoise	left	right	0.7	0.30000000000000004	6	6	4.199999999999998	1.8000000000000005	1	0	0.7	0.30000000000000004	6	6	4.199999999999998	1.8000000000000005	valid	0.766464571999677	51200	0	0	1	51200	1	51200	1	53248	0	0.7	51200	purple	turquoise	1	6	ml	2.7.3	bip	sub-14_ses-01_task-ml_proj-bip_2021-02-23-10-30-23.576317
169	14	1	4	170	stable	1	200	170	sv	purple	turquoise	purple	turquoise	left	right	0.7	0.30000000000000004	6	2	4.199999999999998	0.6000000000000001	1	0	0.7	0.30000000000000004	6	2	4.199999999999998	0.6000000000000001	valid	0.6165269649991387	51200	0	0	1	51200	1	51200	1	51200	1	0.7	51200	purple	turquoise	1	6	ml	2.7.3	bip	sub-14_ses-01_task-ml_proj-bip_2021-02-23-10-30-23.576317
170	14	1	4	171	stable	1	200	171	sv	turquoise	purple	purple	turquoise	right	left	0.7	0.30000000000000004	2	6	1.4	1.8000000000000005	1	0	0.30000000000000004	0.7	6	2	1.8000000000000005	1.4	valid	1.1663540429999557	51200	0	0	2	51200	1	53248	0	51200	1	0.7	53248	purple	turquoise	0	0	ml	2.7.3	bip	sub-14_ses-01_task-ml_proj-bip_2021-02-23-10-30-23.576317
171	14	1	4	172	stable	1	200	172	sv	turquoise	purple	purple	turquoise	right	left	0.7	0.30000000000000004	10	2	7.0	0.6000000000000001	0	1	0.30000000000000004	0.7	2	10	0.6000000000000001	7.0	invalid	0.5332183669997903	53248	0	1	1	53248	1	53248	1	53248	1	0.7	53248	purple	turquoise	1	0	ml	2.7.3	bip	sub-14_ses-01_task-ml_proj-bip_2021-02-23-10-30-23.576317
172	14	1	4	173	stable	1	200	173	sv	purple	turquoise	purple	turquoise	left	right	0.7	0.30000000000000004	10	2	7.0	0.6000000000000001	1	0	0.7	0.30000000000000004	10	2	7.0	0.6000000000000001	valid	0.5831908540003496	51200	0	0	1	51200	1	51200	1	51200	1	0.7	51200	purple	turquoise	1	10	ml	2.7.3	bip	sub-14_ses-01_task-ml_proj-bip_2021-02-23-10-30-23.576317
173	14	1	4	174	stable	1	200	174	sv	purple	turquoise	purple	turquoise	left	right	0.7	0.30000000000000004	6	4	4.199999999999998	1.2000000000000002	1	0	0.7	0.30000000000000004	6	4	4.199999999999998	1.2000000000000002	valid	0.6664991870002268	51200	0	0	1	51200	1	51200	1	51200	1	0.7	51200	purple	turquoise	1	6	ml	2.7.3	bip	sub-14_ses-01_task-ml_proj-bip_2021-02-23-10-30-23.576317
174	14	1	4	175	stable	1	200	175	sv	purple	turquoise	purple	turquoise	left	right	0.7	0.30000000000000004	4	6	2.8	1.8000000000000005	0	1	0.7	0.30000000000000004	4	6	2.8	1.8000000000000005	invalid	0.7664766180005245	51200	0	0	1	51200	1	51200	1	53248	0	0.7	51200	purple	turquoise	0	0	ml	2.7.3	bip	sub-14_ses-01_task-ml_proj-bip_2021-02-23-10-30-23.576317
175	14	1	4	176	stable	1	200	176	sv	purple	turquoise	purple	turquoise	left	right	0.7	0.30000000000000004	10	2	7.0	0.6000000000000001	1	0	0.7	0.30000000000000004	10	2	7.0	0.6000000000000001	valid	0.8497793540009297	51200	0	0	1	51200	1	51200	1	51200	1	0.7	51200	purple	turquoise	1	10	ml	2.7.3	bip	sub-14_ses-01_task-ml_proj-bip_2021-02-23-10-30-23.576317
176	14	1	4	177	stable	1	200	177	sv	turquoise	purple	purple	turquoise	right	left	0.7	0.30000000000000004	4	2	2.8	0.6000000000000001	0	1	0.30000000000000004	0.7	2	4	0.6000000000000001	2.8	invalid	0.6998411069998838	53248	0	1	1	53248	1	53248	1	53248	1	0.7	53248	purple	turquoise	1	0	ml	2.7.3	bip	sub-14_ses-01_task-ml_proj-bip_2021-02-23-10-30-23.576317
177	14	1	4	178	stable	1	200	178	sv	turquoise	purple	purple	turquoise	right	left	0.7	0.30000000000000004	6	4	4.199999999999998	1.2000000000000002	0	1	0.30000000000000004	0.7	4	6	1.2000000000000002	4.199999999999998	invalid	0.9331081000000268	53248	0	1	1	53248	1	53248	1	53248	1	0.7	53248	purple	turquoise	1	0	ml	2.7.3	bip	sub-14_ses-01_task-ml_proj-bip_2021-02-23-10-30-23.576317
178	14	1	4	179	stable	1	200	179	sv	purple	turquoise	purple	turquoise	left	right	0.7	0.30000000000000004	2	2	1.4	0.6000000000000001	1	0	0.7	0.30000000000000004	2	2	1.4	0.6000000000000001	valid	0.5165551110003435	53248	0	1	2	51200	0	51200	0	53248	1	0.7	51200	purple	turquoise	1	0	ml	2.7.3	bip	sub-14_ses-01_task-ml_proj-bip_2021-02-23-10-30-23.576317
179	14	1	4	180	stable	1	200	180	sv	purple	turquoise	purple	turquoise	left	right	0.7	0.30000000000000004	2	4	1.4	1.2000000000000002	1	0	0.7	0.30000000000000004	2	4	1.4	1.2000000000000002	valid	0.6831778539999505	53248	0	1	2	51200	0	51200	0	53248	1	0.7	51200	purple	turquoise	0	0	ml	2.7.3	bip	sub-14_ses-01_task-ml_proj-bip_2021-02-23-10-30-23.576317
180	14	1	4	181	stable	1	200	181	sv	purple	turquoise	purple	turquoise	left	right	0.7	0.30000000000000004	6	6	4.199999999999998	1.8000000000000005	1	0	0.7	0.30000000000000004	6	6	4.199999999999998	1.8000000000000005	valid	0.5831891300003917	51200	0	0	1	51200	1	51200	1	53248	0	0.7	51200	purple	turquoise	1	6	ml	2.7.3	bip	sub-14_ses-01_task-ml_proj-bip_2021-02-23-10-30-23.576317
181	14	1	4	182	stable	1	200	182	sv	purple	turquoise	purple	turquoise	left	right	0.7	0.30000000000000004	4	2	2.8	0.6000000000000001	1	0	0.7	0.30000000000000004	4	2	2.8	0.6000000000000001	valid	0.5332041539986676	51200	0	0	1	51200	1	51200	1	51200	1	0.7	51200	purple	turquoise	1	4	ml	2.7.3	bip	sub-14_ses-01_task-ml_proj-bip_2021-02-23-10-30-23.576317
182	14	1	4	183	stable	1	200	183	sv	turquoise	purple	purple	turquoise	right	left	0.7	0.30000000000000004	6	4	4.199999999999998	1.2000000000000002	1	0	0.30000000000000004	0.7	4	6	1.2000000000000002	4.199999999999998	valid	0.5332095220001065	53248	0	1	1	53248	1	53248	1	53248	1	0.7	53248	purple	turquoise	1	6	ml	2.7.3	bip	sub-14_ses-01_task-ml_proj-bip_2021-02-23-10-30-23.576317
183	14	1	4	184	stable	1	200	184	sv	turquoise	purple	purple	turquoise	right	left	0.7	0.30000000000000004	6	4	4.199999999999998	1.2000000000000002	1	0	0.30000000000000004	0.7	4	6	1.2000000000000002	4.199999999999998	valid	0.4832315560015559	53248	0	1	1	53248	1	53248	1	53248	1	0.7	53248	purple	turquoise	1	6	ml	2.7.3	bip	sub-14_ses-01_task-ml_proj-bip_2021-02-23-10-30-23.576317
184	14	1	4	185	stable	1	200	185	sv	purple	turquoise	purple	turquoise	left	right	0.7	0.30000000000000004	10	2	7.0	0.6000000000000001	0	1	0.7	0.30000000000000004	10	2	7.0	0.6000000000000001	invalid	0.5498658030010121	51200	0	0	1	51200	1	51200	1	51200	1	0.7	51200	purple	turquoise	1	0	ml	2.7.3	bip	sub-14_ses-01_task-ml_proj-bip_2021-02-23-10-30-23.576317
185	14	1	4	186	stable	1	200	186	sv	purple	turquoise	purple	turquoise	left	right	0.7	0.30000000000000004	4	6	2.8	1.8000000000000005	1	0	0.7	0.30000000000000004	4	6	2.8	1.8000000000000005	valid	1.2163399950004532	51200	0	0	1	51200	1	51200	1	53248	0	0.7	51200	purple	turquoise	0	4	ml	2.7.3	bip	sub-14_ses-01_task-ml_proj-bip_2021-02-23-10-30-23.576317
186	14	1	4	187	stable	1	200	187	sv	purple	turquoise	purple	turquoise	left	right	0.7	0.30000000000000004	2	6	1.4	1.8000000000000005	1	0	0.7	0.30000000000000004	2	6	1.4	1.8000000000000005	valid	0.7498076589999982	51200	0	0	1	53248	0	51200	1	53248	0	0.7	51200	purple	turquoise	0	2	ml	2.7.3	bip	sub-14_ses-01_task-ml_proj-bip_2021-02-23-10-30-23.576317
187	14	1	4	188	stable	1	200	188	sv	turquoise	purple	purple	turquoise	right	left	0.7	0.30000000000000004	4	2	2.8	0.6000000000000001	1	0	0.30000000000000004	0.7	2	4	0.6000000000000001	2.8	valid	0.5498816010003793	53248	0	1	1	53248	1	53248	1	53248	1	0.7	53248	purple	turquoise	1	4	ml	2.7.3	bip	sub-14_ses-01_task-ml_proj-bip_2021-02-23-10-30-23.576317
188	14	1	4	189	stable	1	200	189	sv	purple	turquoise	purple	turquoise	left	right	0.7	0.30000000000000004	6	4	4.199999999999998	1.2000000000000002	1	0	0.7	0.30000000000000004	6	4	4.199999999999998	1.2000000000000002	valid	0.6165293260000908	53248	0	1	2	51200	0	51200	0	51200	0	0.7	51200	purple	turquoise	1	0	ml	2.7.3	bip	sub-14_ses-01_task-ml_proj-bip_2021-02-23-10-30-23.576317
189	14	1	4	190	stable	1	200	190	sv	purple	turquoise	purple	turquoise	left	right	0.7	0.30000000000000004	6	4	4.199999999999998	1.2000000000000002	0	1	0.7	0.30000000000000004	6	4	4.199999999999998	1.2000000000000002	invalid	0.6831626179991872	51200	0	0	1	51200	1	51200	1	51200	1	0.7	51200	purple	turquoise	1	0	ml	2.7.3	bip	sub-14_ses-01_task-ml_proj-bip_2021-02-23-10-30-23.576317
190	14	1	4	191	stable	1	200	191	sv	purple	turquoise	purple	turquoise	left	right	0.7	0.30000000000000004	4	2	2.8	0.6000000000000001	0	1	0.7	0.30000000000000004	4	2	2.8	0.6000000000000001	invalid	0.5498667480005679	51200	0	0	1	51200	1	51200	1	51200	1	0.7	51200	purple	turquoise	1	0	ml	2.7.3	bip	sub-14_ses-01_task-ml_proj-bip_2021-02-23-10-30-23.576317
191	14	1	4	192	stable	1	200	192	sv	purple	turquoise	purple	turquoise	left	right	0.7	0.30000000000000004	2	4	1.4	1.2000000000000002	0	1	0.7	0.30000000000000004	2	4	1.4	1.2000000000000002	invalid	0.3999220120003884	53248	0	1	2	51200	0	51200	0	53248	1	0.7	51200	purple	turquoise	0	4	ml	2.7.3	bip	sub-14_ses-01_task-ml_proj-bip_2021-02-23-10-30-23.576317
192	14	1	4	193	stable	1	200	193	sv	purple	turquoise	purple	turquoise	left	right	0.7	0.30000000000000004	4	6	2.8	1.8000000000000005	1	0	0.7	0.30000000000000004	4	6	2.8	1.8000000000000005	valid	0.4832314049999695	53248	0	1	2	51200	0	51200	0	53248	1	0.7	51200	purple	turquoise	0	0	ml	2.7.3	bip	sub-14_ses-01_task-ml_proj-bip_2021-02-23-10-30-23.576317
193	14	1	4	194	stable	1	200	194	sv	purple	turquoise	purple	turquoise	left	right	0.7	0.30000000000000004	2	6	1.4	1.8000000000000005	0	1	0.7	0.30000000000000004	2	6	1.4	1.8000000000000005	invalid	0.6998335879998194	53248	0	1	2	53248	1	51200	0	53248	1	0.7	51200	purple	turquoise	0	6	ml	2.7.3	bip	sub-14_ses-01_task-ml_proj-bip_2021-02-23-10-30-23.576317
194	14	1	4	195	stable	1	200	195	sv	purple	turquoise	purple	turquoise	left	right	0.7	0.30000000000000004	2	10	1.4	3.0000000000000004	0	1	0.7	0.30000000000000004	2	10	1.4	3.0000000000000004	invalid	0.4832313630013232	53248	0	1	2	53248	1	51200	0	53248	1	0.7	51200	purple	turquoise	0	10	ml	2.7.3	bip	sub-14_ses-01_task-ml_proj-bip_2021-02-23-10-30-23.576317
195	14	1	4	196	stable	1	200	196	sv	turquoise	purple	purple	turquoise	right	left	0.7	0.30000000000000004	2	10	1.4	3.0000000000000004	0	1	0.30000000000000004	0.7	10	2	3.0000000000000004	1.4	invalid	0.6165118320004694	51200	0	0	2	51200	1	53248	0	51200	1	0.7	53248	purple	turquoise	0	10	ml	2.7.3	bip	sub-14_ses-01_task-ml_proj-bip_2021-02-23-10-30-23.576317
196	14	1	4	197	stable	1	200	197	sv	turquoise	purple	purple	turquoise	right	left	0.7	0.30000000000000004	4	6	2.8	1.8000000000000005	0	1	0.30000000000000004	0.7	6	4	1.8000000000000005	2.8	invalid	0.9664253010014364	53248	0	1	1	53248	1	53248	1	51200	0	0.7	53248	purple	turquoise	0	0	ml	2.7.3	bip	sub-14_ses-01_task-ml_proj-bip_2021-02-23-10-30-23.576317
197	14	1	4	198	stable	1	200	198	sv	purple	turquoise	purple	turquoise	left	right	0.7	0.30000000000000004	2	2	1.4	0.6000000000000001	0	1	0.7	0.30000000000000004	2	2	1.4	0.6000000000000001	invalid	0.9497629559991764	53248	0	1	2	51200	0	51200	0	53248	1	0.7	51200	purple	turquoise	1	2	ml	2.7.3	bip	sub-14_ses-01_task-ml_proj-bip_2021-02-23-10-30-23.576317
198	14	1	4	199	stable	1	200	199	sv	purple	turquoise	purple	turquoise	left	right	0.7	0.30000000000000004	6	6	4.199999999999998	1.8000000000000005	1	0	0.7	0.30000000000000004	6	6	4.199999999999998	1.8000000000000005	valid	0.5332146639993879	53248	0	1	2	51200	0	51200	0	53248	1	0.7	51200	purple	turquoise	1	0	ml	2.7.3	bip	sub-14_ses-01_task-ml_proj-bip_2021-02-23-10-30-23.576317
199	14	1	4	200	stable	1	200	200	sv	turquoise	purple	purple	turquoise	right	left	0.7	0.30000000000000004	2	6	1.4	1.8000000000000005	1	0	0.30000000000000004	0.7	6	2	1.8000000000000005	1.4	valid	0.9497447209996608	51200	0	0	2	51200	1	53248	0	51200	1	0.7	53248	purple	turquoise	0	0	ml	2.7.3	bip	sub-14_ses-01_task-ml_proj-bip_2021-02-23-10-30-23.576317
200	14	1	5	201	volatile	2	20	1	sv	purple	turquoise	purple	turquoise	left	right	0.30000000000000004	0.7	10	2	3.0000000000000004	1.4	0	1	0.30000000000000004	0.7	10	2	3.0000000000000004	1.4	valid	0.6165153540005122	51200	0	0	1	51200	1	53248	0	51200	1	0.7	53248	turquoise	purple	0	0	ml	2.7.3	bip	sub-14_ses-01_task-ml_proj-bip_2021-02-23-10-30-23.576317
201	14	1	5	202	volatile	2	20	2	sv	turquoise	purple	purple	turquoise	right	left	0.30000000000000004	0.7	2	2	0.6000000000000001	1.4	1	0	0.7	0.30000000000000004	2	2	1.4	0.6000000000000001	invalid	0.499893828000495	53248	0	1	1	51200	0	51200	0	53248	1	0.7	51200	turquoise	purple	1	2	ml	2.7.3	bip	sub-14_ses-01_task-ml_proj-bip_2021-02-23-10-30-23.576317
202	14	1	5	203	volatile	2	20	3	sv	turquoise	purple	purple	turquoise	right	left	0.30000000000000004	0.7	6	4	1.8000000000000005	2.8	0	1	0.7	0.30000000000000004	4	6	2.8	1.8000000000000005	valid	0.6665121860005456	53248	0	1	1	51200	0	51200	0	53248	1	0.7	51200	turquoise	purple	0	0	ml	2.7.3	bip	sub-14_ses-01_task-ml_proj-bip_2021-02-23-10-30-23.576317
203	14	1	5	204	volatile	2	20	4	sv	turquoise	purple	purple	turquoise	right	left	0.30000000000000004	0.7	2	10	0.6000000000000001	7.0	0	1	0.7	0.30000000000000004	10	2	7.0	0.6000000000000001	valid	0.5498699360014143	51200	0	0	2	51200	1	51200	1	51200	1	0.7	51200	turquoise	purple	1	10	ml	2.7.3	bip	sub-14_ses-01_task-ml_proj-bip_2021-02-23-10-30-23.576317
204	14	1	5	205	volatile	2	20	5	sv	turquoise	purple	purple	turquoise	right	left	0.30000000000000004	0.7	6	2	1.8000000000000005	1.4	0	1	0.7	0.30000000000000004	2	6	1.4	1.8000000000000005	valid	0.9997483770002872	53248	0	1	1	53248	1	51200	0	53248	1	0.7	51200	turquoise	purple	0	0	ml	2.7.3	bip	sub-14_ses-01_task-ml_proj-bip_2021-02-23-10-30-23.576317
205	14	1	5	206	volatile	2	20	6	sv	turquoise	purple	purple	turquoise	right	left	0.30000000000000004	0.7	2	6	0.6000000000000001	4.199999999999998	0	1	0.7	0.30000000000000004	6	2	4.199999999999998	0.6000000000000001	valid	0.5831876079992071	51200	0	0	2	51200	1	51200	1	51200	1	0.7	51200	turquoise	purple	1	6	ml	2.7.3	bip	sub-14_ses-01_task-ml_proj-bip_2021-02-23-10-30-23.576317
206	14	1	5	207	volatile	2	20	7	sv	turquoise	purple	purple	turquoise	right	left	0.30000000000000004	0.7	4	6	1.2000000000000002	4.199999999999998	1	0	0.7	0.30000000000000004	6	4	4.199999999999998	1.2000000000000002	invalid	0.4165775239998766	51200	0	0	2	51200	1	51200	1	51200	1	0.7	51200	turquoise	purple	1	0	ml	2.7.3	bip	sub-14_ses-01_task-ml_proj-bip_2021-02-23-10-30-23.576317
207	14	1	5	208	volatile	2	20	8	sv	turquoise	purple	purple	turquoise	right	left	0.30000000000000004	0.7	2	2	0.6000000000000001	1.4	0	1	0.7	0.30000000000000004	2	2	1.4	0.6000000000000001	valid	0.916438581998591	53248	0	1	1	51200	0	51200	0	53248	1	0.7	51200	turquoise	purple	1	0	ml	2.7.3	bip	sub-14_ses-01_task-ml_proj-bip_2021-02-23-10-30-23.576317
208	14	1	5	209	volatile	2	20	9	sv	purple	turquoise	purple	turquoise	left	right	0.30000000000000004	0.7	6	2	1.8000000000000005	1.4	1	0	0.30000000000000004	0.7	6	2	1.8000000000000005	1.4	invalid	0.5498619600002712	51200	0	0	1	51200	1	53248	0	51200	1	0.7	53248	turquoise	purple	0	6	ml	2.7.3	bip	sub-14_ses-01_task-ml_proj-bip_2021-02-23-10-30-23.576317
209	14	1	5	210	volatile	2	20	10	sv	purple	turquoise	purple	turquoise	left	right	0.30000000000000004	0.7	4	6	1.2000000000000002	4.199999999999998	0	1	0.30000000000000004	0.7	4	6	1.2000000000000002	4.199999999999998	valid	1.449606591000702	51200	0	0	1	53248	0	53248	0	53248	0	0.7	53248	turquoise	purple	1	0	ml	2.7.3	bip	sub-14_ses-01_task-ml_proj-bip_2021-02-23-10-30-23.576317
210	14	1	5	211	volatile	2	20	11	sv	purple	turquoise	purple	turquoise	left	right	0.30000000000000004	0.7	2	6	0.6000000000000001	4.199999999999998	1	0	0.30000000000000004	0.7	2	6	0.6000000000000001	4.199999999999998	invalid	0.7331605540002784	53248	0	1	2	53248	1	53248	1	53248	1	0.7	53248	turquoise	purple	1	0	ml	2.7.3	bip	sub-14_ses-01_task-ml_proj-bip_2021-02-23-10-30-23.576317
211	14	1	5	212	volatile	2	20	12	sv	turquoise	purple	purple	turquoise	right	left	0.30000000000000004	0.7	2	4	0.6000000000000001	2.8	1	0	0.7	0.30000000000000004	4	2	2.8	0.6000000000000001	invalid	0.5998767019991647	51200	0	0	2	51200	1	51200	1	51200	1	0.7	51200	turquoise	purple	1	0	ml	2.7.3	bip	sub-14_ses-01_task-ml_proj-bip_2021-02-23-10-30-23.576317
212	14	1	5	213	volatile	2	20	13	sv	purple	turquoise	purple	turquoise	left	right	0.30000000000000004	0.7	6	4	1.8000000000000005	2.8	0	1	0.30000000000000004	0.7	6	4	1.8000000000000005	2.8	valid	0.4165710039997066	51200	0	0	1	53248	0	53248	0	51200	1	0.7	53248	turquoise	purple	0	0	ml	2.7.3	bip	sub-14_ses-01_task-ml_proj-bip_2021-02-23-10-30-23.576317
213	14	1	5	214	volatile	2	20	14	sv	purple	turquoise	purple	turquoise	left	right	0.30000000000000004	0.7	6	6	1.8000000000000005	4.199999999999998	1	0	0.30000000000000004	0.7	6	6	1.8000000000000005	4.199999999999998	invalid	0.6165124210001522	51200	0	0	1	53248	0	53248	0	53248	0	0.7	53248	turquoise	purple	0	6	ml	2.7.3	bip	sub-14_ses-01_task-ml_proj-bip_2021-02-23-10-30-23.576317
214	14	1	5	215	volatile	2	20	15	sv	purple	turquoise	purple	turquoise	left	right	0.30000000000000004	0.7	2	10	0.6000000000000001	7.0	0	1	0.30000000000000004	0.7	2	10	0.6000000000000001	7.0	valid	0.7164975989999219	53248	0	1	2	53248	1	53248	1	53248	1	0.7	53248	turquoise	purple	1	10	ml	2.7.3	bip	sub-14_ses-01_task-ml_proj-bip_2021-02-23-10-30-23.576317
215	14	1	5	216	volatile	2	20	16	sv	purple	turquoise	purple	turquoise	left	right	0.30000000000000004	0.7	4	2	1.2000000000000002	1.4	0	1	0.30000000000000004	0.7	4	2	1.2000000000000002	1.4	valid	0.4998792719998164	51200	0	0	1	53248	0	53248	0	51200	1	0.7	53248	turquoise	purple	0	0	ml	2.7.3	bip	sub-14_ses-01_task-ml_proj-bip_2021-02-23-10-30-23.576317
216	14	1	5	217	volatile	2	20	17	sv	purple	turquoise	purple	turquoise	left	right	0.30000000000000004	0.7	2	10	0.6000000000000001	7.0	0	1	0.30000000000000004	0.7	2	10	0.6000000000000001	7.0	valid	0.4665703959999519	53248	0	1	2	53248	1	53248	1	53248	1	0.7	53248	turquoise	purple	1	10	ml	2.7.3	bip	sub-14_ses-01_task-ml_proj-bip_2021-02-23-10-30-23.576317
217	14	1	5	218	volatile	2	20	18	sv	turquoise	purple	purple	turquoise	right	left	0.30000000000000004	0.7	6	6	1.8000000000000005	4.199999999999998	0	1	0.7	0.30000000000000004	6	6	4.199999999999998	1.8000000000000005	valid	0.5332074979996833	51200	0	0	2	51200	1	51200	1	53248	0	0.7	51200	turquoise	purple	1	6	ml	2.7.3	bip	sub-14_ses-01_task-ml_proj-bip_2021-02-23-10-30-23.576317
218	14	1	5	219	volatile	2	20	19	sv	turquoise	purple	purple	turquoise	right	left	0.30000000000000004	0.7	4	2	1.2000000000000002	1.4	0	1	0.7	0.30000000000000004	2	4	1.4	1.2000000000000002	valid	1.1830167709995294	51200	0	0	2	51200	1	51200	1	53248	0	0.7	51200	turquoise	purple	0	2	ml	2.7.3	bip	sub-14_ses-01_task-ml_proj-bip_2021-02-23-10-30-23.576317
219	14	1	5	220	volatile	2	20	20	sv	purple	turquoise	purple	turquoise	left	right	0.30000000000000004	0.7	2	4	0.6000000000000001	2.8	0	1	0.30000000000000004	0.7	2	4	0.6000000000000001	2.8	valid	0.9164632769989112	53248	0	1	2	53248	1	53248	1	53248	1	0.7	53248	turquoise	purple	1	4	ml	2.7.3	bip	sub-14_ses-01_task-ml_proj-bip_2021-02-23-10-30-23.576317
220	14	1	5	221	volatile	3	20	1	sv	purple	turquoise	purple	turquoise	left	right	0.7	0.30000000000000004	2	6	1.4	1.8000000000000005	1	0	0.7	0.30000000000000004	2	6	1.4	1.8000000000000005	valid	0.6831677730006049	53248	0	1	2	53248	1	51200	0	53248	1	0.7	51200	purple	turquoise	0	0	ml	2.7.3	bip	sub-14_ses-01_task-ml_proj-bip_2021-02-23-10-30-23.576317
221	14	1	5	222	volatile	3	20	2	sv	turquoise	purple	purple	turquoise	right	left	0.7	0.30000000000000004	6	4	4.199999999999998	1.2000000000000002	1	0	0.30000000000000004	0.7	4	6	1.2000000000000002	4.199999999999998	valid	0.6831723949999287	53248	0	1	1	53248	1	53248	1	53248	1	0.7	53248	purple	turquoise	1	6	ml	2.7.3	bip	sub-14_ses-01_task-ml_proj-bip_2021-02-23-10-30-23.576317
222	14	1	5	223	volatile	3	20	3	sv	purple	turquoise	purple	turquoise	left	right	0.7	0.30000000000000004	2	6	1.4	1.8000000000000005	1	0	0.7	0.30000000000000004	2	6	1.4	1.8000000000000005	valid	0.9164391530011926	53248	0	1	2	53248	1	51200	0	53248	1	0.7	51200	purple	turquoise	0	0	ml	2.7.3	bip	sub-14_ses-01_task-ml_proj-bip_2021-02-23-10-30-23.576317
223	14	1	5	224	volatile	3	20	4	sv	purple	turquoise	purple	turquoise	left	right	0.7	0.30000000000000004	2	4	1.4	1.2000000000000002	1	0	0.7	0.30000000000000004	2	4	1.4	1.2000000000000002	valid	0.7997942509991844	51200	0	0	1	51200	1	51200	1	53248	0	0.7	51200	purple	turquoise	0	2	ml	2.7.3	bip	sub-14_ses-01_task-ml_proj-bip_2021-02-23-10-30-23.576317
224	14	1	5	225	volatile	3	20	5	sv	turquoise	purple	purple	turquoise	right	left	0.7	0.30000000000000004	2	10	1.4	3.0000000000000004	0	1	0.30000000000000004	0.7	10	2	3.0000000000000004	1.4	invalid	0.6998242610006855	51200	0	0	2	51200	1	53248	0	51200	1	0.7	53248	purple	turquoise	0	10	ml	2.7.3	bip	sub-14_ses-01_task-ml_proj-bip_2021-02-23-10-30-23.576317
225	14	1	5	226	volatile	3	20	6	sv	turquoise	purple	purple	turquoise	right	left	0.7	0.30000000000000004	10	2	7.0	0.6000000000000001	0	1	0.30000000000000004	0.7	2	10	0.6000000000000001	7.0	invalid	0.8497860339994077	53248	0	1	1	53248	1	53248	1	53248	1	0.7	53248	purple	turquoise	1	0	ml	2.7.3	bip	sub-14_ses-01_task-ml_proj-bip_2021-02-23-10-30-23.576317
226	14	1	5	227	volatile	3	20	7	sv	purple	turquoise	purple	turquoise	left	right	0.7	0.30000000000000004	4	2	2.8	0.6000000000000001	1	0	0.7	0.30000000000000004	4	2	2.8	0.6000000000000001	valid	0.4665695570001844	53248	0	1	2	51200	0	51200	0	51200	0	0.7	51200	purple	turquoise	1	0	ml	2.7.3	bip	sub-14_ses-01_task-ml_proj-bip_2021-02-23-10-30-23.576317
227	14	1	5	228	volatile	3	20	8	sv	turquoise	purple	purple	turquoise	right	left	0.7	0.30000000000000004	4	2	2.8	0.6000000000000001	1	0	0.30000000000000004	0.7	2	4	0.6000000000000001	2.8	valid	0.9497608599995148	53248	0	1	1	53248	1	53248	1	53248	1	0.7	53248	purple	turquoise	1	4	ml	2.7.3	bip	sub-14_ses-01_task-ml_proj-bip_2021-02-23-10-30-23.576317
228	14	1	5	229	volatile	3	20	9	sv	purple	turquoise	purple	turquoise	left	right	0.7	0.30000000000000004	2	2	1.4	0.6000000000000001	1	0	0.7	0.30000000000000004	2	2	1.4	0.6000000000000001	valid	0.6165154109985451	51200	0	0	1	51200	1	51200	1	53248	0	0.7	51200	purple	turquoise	1	2	ml	2.7.3	bip	sub-14_ses-01_task-ml_proj-bip_2021-02-23-10-30-23.576317
229	14	1	5	230	volatile	3	20	10	sv	purple	turquoise	purple	turquoise	left	right	0.7	0.30000000000000004	6	6	4.199999999999998	1.8000000000000005	1	0	0.7	0.30000000000000004	6	6	4.199999999999998	1.8000000000000005	valid	0.8831039409997175	51200	0	0	1	51200	1	51200	1	53248	0	0.7	51200	purple	turquoise	1	6	ml	2.7.3	bip	sub-14_ses-01_task-ml_proj-bip_2021-02-23-10-30-23.576317
230	14	1	5	231	volatile	3	20	11	sv	purple	turquoise	purple	turquoise	left	right	0.7	0.30000000000000004	6	4	4.199999999999998	1.2000000000000002	0	1	0.7	0.30000000000000004	6	4	4.199999999999998	1.2000000000000002	invalid	0.5165419949989882	51200	0	0	1	51200	1	51200	1	51200	1	0.7	51200	purple	turquoise	1	0	ml	2.7.3	bip	sub-14_ses-01_task-ml_proj-bip_2021-02-23-10-30-23.576317
231	14	1	5	232	volatile	3	20	12	sv	purple	turquoise	purple	turquoise	left	right	0.7	0.30000000000000004	6	4	4.199999999999998	1.2000000000000002	0	1	0.7	0.30000000000000004	6	4	4.199999999999998	1.2000000000000002	invalid	0.6998308689999249	51200	0	0	1	51200	1	51200	1	51200	1	0.7	51200	purple	turquoise	1	0	ml	2.7.3	bip	sub-14_ses-01_task-ml_proj-bip_2021-02-23-10-30-23.576317
232	14	1	5	233	volatile	3	20	13	sv	turquoise	purple	purple	turquoise	right	left	0.7	0.30000000000000004	2	4	1.4	1.2000000000000002	1	0	0.30000000000000004	0.7	4	2	1.2000000000000002	1.4	valid	0.499883492000663	51200	0	0	2	53248	0	53248	0	51200	1	0.7	53248	purple	turquoise	0	0	ml	2.7.3	bip	sub-14_ses-01_task-ml_proj-bip_2021-02-23-10-30-23.576317
233	14	1	5	234	volatile	3	20	14	sv	purple	turquoise	purple	turquoise	left	right	0.7	0.30000000000000004	10	2	7.0	0.6000000000000001	0	1	0.7	0.30000000000000004	10	2	7.0	0.6000000000000001	invalid	0.7164850299996033	51200	0	0	1	51200	1	51200	1	51200	1	0.7	51200	purple	turquoise	1	0	ml	2.7.3	bip	sub-14_ses-01_task-ml_proj-bip_2021-02-23-10-30-23.576317
234	14	1	5	235	volatile	3	20	15	sv	turquoise	purple	purple	turquoise	right	left	0.7	0.30000000000000004	2	2	1.4	0.6000000000000001	1	0	0.30000000000000004	0.7	2	2	0.6000000000000001	1.4	valid	0.6998226670002623	51200	0	0	2	53248	0	53248	0	53248	0	0.7	53248	purple	turquoise	0	0	ml	2.7.3	bip	sub-14_ses-01_task-ml_proj-bip_2021-02-23-10-30-23.576317
235	14	1	5	236	volatile	3	20	16	sv	turquoise	purple	purple	turquoise	right	left	0.7	0.30000000000000004	10	2	7.0	0.6000000000000001	1	0	0.30000000000000004	0.7	2	10	0.6000000000000001	7.0	valid	0.6998379489996296	53248	0	1	1	53248	1	53248	1	53248	1	0.7	53248	purple	turquoise	1	10	ml	2.7.3	bip	sub-14_ses-01_task-ml_proj-bip_2021-02-23-10-30-23.576317
236	14	1	5	237	volatile	3	20	17	sv	turquoise	purple	purple	turquoise	right	left	0.7	0.30000000000000004	6	4	4.199999999999998	1.2000000000000002	0	1	0.30000000000000004	0.7	4	6	1.2000000000000002	4.199999999999998	invalid	0.4499018040005467	53248	0	1	1	53248	1	53248	1	53248	1	0.7	53248	purple	turquoise	1	0	ml	2.7.3	bip	sub-14_ses-01_task-ml_proj-bip_2021-02-23-10-30-23.576317
237	14	1	5	238	volatile	3	20	18	sv	purple	turquoise	purple	turquoise	left	right	0.7	0.30000000000000004	6	2	4.199999999999998	0.6000000000000001	1	0	0.7	0.30000000000000004	6	2	4.199999999999998	0.6000000000000001	valid	0.4998804679999012	51200	0	0	1	51200	1	51200	1	51200	1	0.7	51200	purple	turquoise	1	6	ml	2.7.3	bip	sub-14_ses-01_task-ml_proj-bip_2021-02-23-10-30-23.576317
238	14	1	5	239	volatile	3	20	19	sv	turquoise	purple	purple	turquoise	right	left	0.7	0.30000000000000004	2	6	1.4	1.8000000000000005	1	0	0.30000000000000004	0.7	6	2	1.8000000000000005	1.4	valid	1.1330314599999838	51200	0	0	2	51200	1	53248	0	51200	1	0.7	53248	purple	turquoise	0	0	ml	2.7.3	bip	sub-14_ses-01_task-ml_proj-bip_2021-02-23-10-30-23.576317
239	14	1	5	240	volatile	3	20	20	sv	turquoise	purple	purple	turquoise	right	left	0.7	0.30000000000000004	6	6	4.199999999999998	1.8000000000000005	1	0	0.30000000000000004	0.7	6	6	1.8000000000000005	4.199999999999998	valid	0.949759051998626	53248	0	1	1	53248	1	53248	1	53248	1	0.7	53248	purple	turquoise	0	6	ml	2.7.3	bip	sub-14_ses-01_task-ml_proj-bip_2021-02-23-10-30-23.576317
240	14	1	5	241	volatile	4	20	1	sv	turquoise	purple	purple	turquoise	right	left	0.30000000000000004	0.7	6	6	1.8000000000000005	4.199999999999998	1	0	0.7	0.30000000000000004	6	6	4.199999999999998	1.8000000000000005	invalid	0.6498500760008028	53248	0	1	1	51200	0	51200	0	53248	1	0.7	51200	turquoise	purple	1	6	ml	2.7.3	bip	sub-14_ses-01_task-ml_proj-bip_2021-02-23-10-30-23.576317
241	14	1	5	242	volatile	4	20	2	sv	turquoise	purple	purple	turquoise	right	left	0.30000000000000004	0.7	2	10	0.6000000000000001	7.0	0	1	0.7	0.30000000000000004	10	2	7.0	0.6000000000000001	valid	0.8331191659999604	51200	0	0	2	51200	1	51200	1	51200	1	0.7	51200	turquoise	purple	1	10	ml	2.7.3	bip	sub-14_ses-01_task-ml_proj-bip_2021-02-23-10-30-23.576317
242	14	1	5	243	volatile	4	20	3	sv	turquoise	purple	purple	turquoise	right	left	0.30000000000000004	0.7	2	4	0.6000000000000001	2.8	0	1	0.7	0.30000000000000004	4	2	2.8	0.6000000000000001	valid	0.8997785150004347	53248	0	1	1	51200	0	51200	0	51200	0	0.7	51200	turquoise	purple	1	0	ml	2.7.3	bip	sub-14_ses-01_task-ml_proj-bip_2021-02-23-10-30-23.576317
243	14	1	5	244	volatile	4	20	4	sv	purple	turquoise	purple	turquoise	left	right	0.30000000000000004	0.7	6	2	1.8000000000000005	1.4	0	1	0.30000000000000004	0.7	6	2	1.8000000000000005	1.4	valid	0.7831398010002886	51200	0	0	1	51200	1	53248	0	51200	1	0.7	53248	turquoise	purple	0	0	ml	2.7.3	bip	sub-14_ses-01_task-ml_proj-bip_2021-02-23-10-30-23.576317
244	14	1	5	245	volatile	4	20	5	sv	purple	turquoise	purple	turquoise	left	right	0.30000000000000004	0.7	6	6	1.8000000000000005	4.199999999999998	0	1	0.30000000000000004	0.7	6	6	1.8000000000000005	4.199999999999998	valid	0.9997452320003504	51200	0	0	1	53248	0	53248	0	53248	0	0.7	53248	turquoise	purple	0	0	ml	2.7.3	bip	sub-14_ses-01_task-ml_proj-bip_2021-02-23-10-30-23.576317
245	14	1	5	246	volatile	4	20	6	sv	turquoise	purple	purple	turquoise	right	left	0.30000000000000004	0.7	6	2	1.8000000000000005	1.4	0	1	0.7	0.30000000000000004	2	6	1.4	1.8000000000000005	valid	0.5832014700008585	53248	0	1	1	53248	1	51200	0	53248	1	0.7	51200	turquoise	purple	0	0	ml	2.7.3	bip	sub-14_ses-01_task-ml_proj-bip_2021-02-23-10-30-23.576317
246	14	1	5	247	volatile	4	20	7	sv	purple	turquoise	purple	turquoise	left	right	0.30000000000000004	0.7	10	2	3.0000000000000004	1.4	0	1	0.30000000000000004	0.7	10	2	3.0000000000000004	1.4	valid	0.5165411919988401	51200	0	0	1	51200	1	53248	0	51200	1	0.7	53248	turquoise	purple	0	0	ml	2.7.3	bip	sub-14_ses-01_task-ml_proj-bip_2021-02-23-10-30-23.576317
247	14	1	5	248	volatile	4	20	8	sv	purple	turquoise	purple	turquoise	left	right	0.30000000000000004	0.7	2	10	0.6000000000000001	7.0	1	0	0.30000000000000004	0.7	2	10	0.6000000000000001	7.0	invalid	0.3999221540016151	53248	0	1	2	53248	1	53248	1	53248	1	0.7	53248	turquoise	purple	1	0	ml	2.7.3	bip	sub-14_ses-01_task-ml_proj-bip_2021-02-23-10-30-23.576317
248	14	1	5	249	volatile	4	20	9	sv	turquoise	purple	purple	turquoise	right	left	0.30000000000000004	0.7	6	2	1.8000000000000005	1.4	0	1	0.7	0.30000000000000004	2	6	1.4	1.8000000000000005	valid	0.41658342799928505	53248	0	1	1	53248	1	51200	0	53248	1	0.7	51200	turquoise	purple	0	0	ml	2.7.3	bip	sub-14_ses-01_task-ml_proj-bip_2021-02-23-10-30-23.576317
249	14	1	5	250	volatile	4	20	10	sv	purple	turquoise	purple	turquoise	left	right	0.30000000000000004	0.7	4	6	1.2000000000000002	4.199999999999998	1	0	0.30000000000000004	0.7	4	6	1.2000000000000002	4.199999999999998	invalid	0.8331186579998757	51200	0	0	1	53248	0	53248	0	53248	0	0.7	53248	turquoise	purple	1	4	ml	2.7.3	bip	sub-14_ses-01_task-ml_proj-bip_2021-02-23-10-30-23.576317
250	14	1	6	251	volatile	4	20	11	sv	turquoise	purple	purple	turquoise	right	left	0.30000000000000004	0.7	2	2	0.6000000000000001	1.4	0	1	0.7	0.30000000000000004	2	2	1.4	0.6000000000000001	valid	1.0664027460006764	53248	0	1	1	51200	0	51200	0	53248	1	0.7	51200	turquoise	purple	1	0	ml	2.7.3	bip	sub-14_ses-01_task-ml_proj-bip_2021-02-23-10-30-23.576317
251	14	1	6	252	volatile	4	20	12	sv	purple	turquoise	purple	turquoise	left	right	0.30000000000000004	0.7	4	6	1.2000000000000002	4.199999999999998	0	1	0.30000000000000004	0.7	4	6	1.2000000000000002	4.199999999999998	valid	0.5165569520013378	53248	0	1	2	53248	1	53248	1	53248	1	0.7	53248	turquoise	purple	1	6	ml	2.7.3	bip	sub-14_ses-01_task-ml_proj-bip_2021-02-23-10-30-23.576317
252	14	1	6	253	volatile	4	20	13	sv	turquoise	purple	purple	turquoise	right	left	0.30000000000000004	0.7	4	2	1.2000000000000002	1.4	0	1	0.7	0.30000000000000004	2	4	1.4	1.2000000000000002	valid	0.6498371639991092	51200	0	0	2	51200	1	51200	1	53248	0	0.7	51200	turquoise	purple	0	2	ml	2.7.3	bip	sub-14_ses-01_task-ml_proj-bip_2021-02-23-10-30-23.576317
253	14	1	6	254	volatile	4	20	14	sv	turquoise	purple	purple	turquoise	right	left	0.30000000000000004	0.7	4	6	1.2000000000000002	4.199999999999998	0	1	0.7	0.30000000000000004	6	4	4.199999999999998	1.2000000000000002	valid	0.4332348849984555	51200	0	0	2	51200	1	51200	1	51200	1	0.7	51200	turquoise	purple	1	6	ml	2.7.3	bip	sub-14_ses-01_task-ml_proj-bip_2021-02-23-10-30-23.576317
254	14	1	6	255	volatile	4	20	15	sv	turquoise	purple	purple	turquoise	right	left	0.30000000000000004	0.7	2	2	0.6000000000000001	1.4	1	0	0.7	0.30000000000000004	2	2	1.4	0.6000000000000001	invalid	0.6331820470004459	51200	0	0	2	51200	1	51200	1	53248	0	0.7	51200	turquoise	purple	1	0	ml	2.7.3	bip	sub-14_ses-01_task-ml_proj-bip_2021-02-23-10-30-23.576317
255	14	1	6	256	volatile	4	20	16	sv	purple	turquoise	purple	turquoise	left	right	0.30000000000000004	0.7	6	4	1.8000000000000005	2.8	1	0	0.30000000000000004	0.7	6	4	1.8000000000000005	2.8	invalid	0.5498818100004428	53248	0	1	2	53248	1	53248	1	51200	0	0.7	53248	turquoise	purple	0	0	ml	2.7.3	bip	sub-14_ses-01_task-ml_proj-bip_2021-02-23-10-30-23.576317
256	14	1	6	257	volatile	4	20	17	sv	purple	turquoise	purple	turquoise	left	right	0.30000000000000004	0.7	6	2	1.8000000000000005	1.4	0	1	0.30000000000000004	0.7	6	2	1.8000000000000005	1.4	valid	0.3999101999997947	51200	0	0	1	51200	1	53248	0	51200	1	0.7	53248	turquoise	purple	0	0	ml	2.7.3	bip	sub-14_ses-01_task-ml_proj-bip_2021-02-23-10-30-23.576317
257	14	1	6	258	volatile	4	20	18	sv	purple	turquoise	purple	turquoise	left	right	0.30000000000000004	0.7	2	4	0.6000000000000001	2.8	0	1	0.30000000000000004	0.7	2	4	0.6000000000000001	2.8	valid	1.4662813990016732	53248	0	1	2	53248	1	53248	1	53248	1	0.7	53248	turquoise	purple	1	4	ml	2.7.3	bip	sub-14_ses-01_task-ml_proj-bip_2021-02-23-10-30-23.576317
258	14	1	6	259	volatile	4	20	19	sv	purple	turquoise	purple	turquoise	left	right	0.30000000000000004	0.7	4	2	1.2000000000000002	1.4	0	1	0.30000000000000004	0.7	4	2	1.2000000000000002	1.4	valid	1.2829973980005889	53248	0	1	2	53248	1	53248	1	51200	0	0.7	53248	turquoise	purple	0	2	ml	2.7.3	bip	sub-14_ses-01_task-ml_proj-bip_2021-02-23-10-30-23.576317
259	14	1	6	260	volatile	4	20	20	sv	turquoise	purple	purple	turquoise	right	left	0.30000000000000004	0.7	10	2	3.0000000000000004	1.4	1	0	0.7	0.30000000000000004	2	10	1.4	3.0000000000000004	invalid	0.6665107509998052	53248	0	1	1	53248	1	51200	0	53248	1	0.7	51200	turquoise	purple	0	10	ml	2.7.3	bip	sub-14_ses-01_task-ml_proj-bip_2021-02-23-10-30-23.576317
260	14	1	6	261	volatile	5	40	1	sv	turquoise	purple	purple	turquoise	right	left	0.7	0.30000000000000004	2	10	1.4	3.0000000000000004	1	0	0.30000000000000004	0.7	10	2	3.0000000000000004	1.4	valid	0.5831932590008364	51200	0	0	2	51200	1	53248	0	51200	1	0.7	53248	purple	turquoise	0	0	ml	2.7.3	bip	sub-14_ses-01_task-ml_proj-bip_2021-02-23-10-30-23.576317
261	14	1	6	262	volatile	5	40	2	sv	turquoise	purple	purple	turquoise	right	left	0.7	0.30000000000000004	10	2	7.0	0.6000000000000001	1	0	0.30000000000000004	0.7	2	10	0.6000000000000001	7.0	valid	0.6665123390012013	53248	0	1	1	53248	1	53248	1	53248	1	0.7	53248	purple	turquoise	1	10	ml	2.7.3	bip	sub-14_ses-01_task-ml_proj-bip_2021-02-23-10-30-23.576317
262	14	1	6	263	volatile	5	40	3	sv	turquoise	purple	purple	turquoise	right	left	0.7	0.30000000000000004	4	6	2.8	1.8000000000000005	1	0	0.30000000000000004	0.7	6	4	1.8000000000000005	2.8	valid	1.083049466000375	51200	0	0	2	53248	0	53248	0	51200	1	0.7	53248	purple	turquoise	0	0	ml	2.7.3	bip	sub-14_ses-01_task-ml_proj-bip_2021-02-23-10-30-23.576317
263	14	1	6	264	volatile	5	40	4	sv	purple	turquoise	purple	turquoise	left	right	0.7	0.30000000000000004	2	6	1.4	1.8000000000000005	1	0	0.7	0.30000000000000004	2	6	1.4	1.8000000000000005	valid	1.4329637589999038	51200	0	0	1	53248	0	51200	1	53248	0	0.7	51200	purple	turquoise	0	2	ml	2.7.3	bip	sub-14_ses-01_task-ml_proj-bip_2021-02-23-10-30-23.576317
264	14	1	6	265	volatile	5	40	5	sv	purple	turquoise	purple	turquoise	left	right	0.7	0.30000000000000004	4	6	2.8	1.8000000000000005	1	0	0.7	0.30000000000000004	4	6	2.8	1.8000000000000005	valid	1.5329172860001563	51200	0	0	1	51200	1	51200	1	53248	0	0.7	51200	purple	turquoise	0	4	ml	2.7.3	bip	sub-14_ses-01_task-ml_proj-bip_2021-02-23-10-30-23.576317
265	14	1	6	266	volatile	5	40	6	sv	turquoise	purple	purple	turquoise	right	left	0.7	0.30000000000000004	2	4	1.4	1.2000000000000002	1	0	0.30000000000000004	0.7	4	2	1.2000000000000002	1.4	valid	0.8831020830002672	51200	0	0	2	53248	0	53248	0	51200	1	0.7	53248	purple	turquoise	0	0	ml	2.7.3	bip	sub-14_ses-01_task-ml_proj-bip_2021-02-23-10-30-23.576317
266	14	1	6	267	volatile	5	40	7	sv	purple	turquoise	purple	turquoise	left	right	0.7	0.30000000000000004	2	10	1.4	3.0000000000000004	1	0	0.7	0.30000000000000004	2	10	1.4	3.0000000000000004	valid	0.7165033130004304	53248	0	1	2	53248	1	51200	0	53248	1	0.7	51200	purple	turquoise	0	0	ml	2.7.3	bip	sub-14_ses-01_task-ml_proj-bip_2021-02-23-10-30-23.576317
267	14	1	6	268	volatile	5	40	8	sv	purple	turquoise	purple	turquoise	left	right	0.7	0.30000000000000004	10	2	7.0	0.6000000000000001	1	0	0.7	0.30000000000000004	10	2	7.0	0.6000000000000001	valid	0.6998231069992471	51200	0	0	1	51200	1	51200	1	51200	1	0.7	51200	purple	turquoise	1	10	ml	2.7.3	bip	sub-14_ses-01_task-ml_proj-bip_2021-02-23-10-30-23.576317
268	14	1	6	269	volatile	5	40	9	sv	purple	turquoise	purple	turquoise	left	right	0.7	0.30000000000000004	2	2	1.4	0.6000000000000001	0	1	0.7	0.30000000000000004	2	2	1.4	0.6000000000000001	invalid	1.1497027670011448	53248	0	1	2	51200	0	51200	0	53248	1	0.7	51200	purple	turquoise	1	2	ml	2.7.3	bip	sub-14_ses-01_task-ml_proj-bip_2021-02-23-10-30-23.576317
269	14	1	6	270	volatile	5	40	10	sv	turquoise	purple	purple	turquoise	right	left	0.7	0.30000000000000004	10	2	7.0	0.6000000000000001	1	0	0.30000000000000004	0.7	2	10	0.6000000000000001	7.0	valid	0.6831647859999066	53248	0	1	1	53248	1	53248	1	53248	1	0.7	53248	purple	turquoise	1	10	ml	2.7.3	bip	sub-14_ses-01_task-ml_proj-bip_2021-02-23-10-30-23.576317
270	14	1	6	271	volatile	5	40	11	sv	turquoise	purple	purple	turquoise	right	left	0.7	0.30000000000000004	2	2	1.4	0.6000000000000001	0	1	0.30000000000000004	0.7	2	2	0.6000000000000001	1.4	invalid	1.3663143389985637	53248	0	1	1	53248	1	53248	1	53248	1	0.7	53248	purple	turquoise	0	0	ml	2.7.3	bip	sub-14_ses-01_task-ml_proj-bip_2021-02-23-10-30-23.576317
271	14	1	6	272	volatile	5	40	12	sv	turquoise	purple	purple	turquoise	right	left	0.7	0.30000000000000004	6	6	4.199999999999998	1.8000000000000005	1	0	0.30000000000000004	0.7	6	6	1.8000000000000005	4.199999999999998	valid	1.4829403359999562	53248	0	1	1	53248	1	53248	1	53248	1	0.7	53248	purple	turquoise	0	6	ml	2.7.3	bip	sub-14_ses-01_task-ml_proj-bip_2021-02-23-10-30-23.576317
272	14	1	6	273	volatile	5	40	13	sv	turquoise	purple	purple	turquoise	right	left	0.7	0.30000000000000004	2	10	1.4	3.0000000000000004	1	0	0.30000000000000004	0.7	10	2	3.0000000000000004	1.4	valid	0.7831286130003718	51200	0	0	2	51200	1	53248	0	51200	1	0.7	53248	purple	turquoise	0	0	ml	2.7.3	bip	sub-14_ses-01_task-ml_proj-bip_2021-02-23-10-30-23.576317
273	14	1	6	274	volatile	5	40	14	sv	purple	turquoise	purple	turquoise	left	right	0.7	0.30000000000000004	2	6	1.4	1.8000000000000005	1	0	0.7	0.30000000000000004	2	6	1.4	1.8000000000000005	valid	0.8664527180008008	53248	0	1	2	53248	1	51200	0	53248	1	0.7	51200	purple	turquoise	0	0	ml	2.7.3	bip	sub-14_ses-01_task-ml_proj-bip_2021-02-23-10-30-23.576317
274	14	1	6	275	volatile	5	40	15	sv	purple	turquoise	purple	turquoise	left	right	0.7	0.30000000000000004	6	4	4.199999999999998	1.2000000000000002	1	0	0.7	0.30000000000000004	6	4	4.199999999999998	1.2000000000000002	valid	0.9830816600006074	51200	0	0	1	51200	1	51200	1	51200	1	0.7	51200	purple	turquoise	1	6	ml	2.7.3	bip	sub-14_ses-01_task-ml_proj-bip_2021-02-23-10-30-23.576317
275	14	1	6	276	volatile	5	40	16	sv	purple	turquoise	purple	turquoise	left	right	0.7	0.30000000000000004	2	2	1.4	0.6000000000000001	0	1	0.7	0.30000000000000004	2	2	1.4	0.6000000000000001	invalid	1.4995875919994432	51200	0	0	1	51200	1	51200	1	53248	0	0.7	51200	purple	turquoise	1	0	ml	2.7.3	bip	sub-14_ses-01_task-ml_proj-bip_2021-02-23-10-30-23.576317
276	14	1	6	277	volatile	5	40	17	sv	purple	turquoise	purple	turquoise	left	right	0.7	0.30000000000000004	6	4	4.199999999999998	1.2000000000000002	1	0	0.7	0.30000000000000004	6	4	4.199999999999998	1.2000000000000002	valid	0.8497790230012471	51200	0	0	1	51200	1	51200	1	51200	1	0.7	51200	purple	turquoise	1	6	ml	2.7.3	bip	sub-14_ses-01_task-ml_proj-bip_2021-02-23-10-30-23.576317
277	14	1	6	278	volatile	5	40	18	sv	purple	turquoise	purple	turquoise	left	right	0.7	0.30000000000000004	10	2	7.0	0.6000000000000001	0	1	0.7	0.30000000000000004	10	2	7.0	0.6000000000000001	invalid	1.9994466810003357	51200	0	0	1	51200	1	51200	1	51200	1	0.7	51200	purple	turquoise	1	0	ml	2.7.3	bip	sub-14_ses-01_task-ml_proj-bip_2021-02-23-10-30-23.576317
