Unnamed: 0	sub_id	ses_id	block_no	trial_no	phase_type	phase_no	phase_length	trialInPhase_no	phase_type_order	color_left	color_right	color1	color2	position1	position2	prob1	prob2	mag1	mag2	ev1	ev2	outcome1	outcome2	prob_left	prob_right	mag_left	mag_right	ev_left	ev_right	reward_validity	resp_time	resp_key	timeout	choice_side	choice	ev_corr_resp	ev_correct	prob_corr_resp	prob_correct	mag_corr_resp	mag_correct	high_prob	high_prob_side	high_prob_color	low_prob_color	no_brain	reward	name	version	proj_id	logFileID
0	20	1	1	1	volatile	1	20	1	vs	purple	turquoise	purple	turquoise	left	right	0.7	0.30000000000000004	6	4	4.199999999999998	1.2000000000000002	0	1	0.7	0.30000000000000004	6	4	4.199999999999998	1.2000000000000002	invalid	0.8164417310017598	51200	0	0	1	51200	1	51200	1	51200	1	0.7	51200	purple	turquoise	1	0	ml	2.7.3	bip	sub-20_ses-01_task-ml_proj-bip_2021-03-23-10-18-05.348859
1	20	1	1	2	volatile	1	20	2	vs	purple	turquoise	purple	turquoise	left	right	0.7	0.30000000000000004	2	10	1.4	3.0000000000000004	1	0	0.7	0.30000000000000004	2	10	1.4	3.0000000000000004	valid	0.483230210000329	53248	0	1	2	53248	1	51200	0	53248	1	0.7	51200	purple	turquoise	0	0	ml	2.7.3	bip	sub-20_ses-01_task-ml_proj-bip_2021-03-23-10-18-05.348859
2	20	1	1	3	volatile	1	20	3	vs	purple	turquoise	purple	turquoise	left	right	0.7	0.30000000000000004	4	2	2.8	0.6000000000000001	1	0	0.7	0.30000000000000004	4	2	2.8	0.6000000000000001	valid	0.5332045539998944	53248	0	1	2	51200	0	51200	0	51200	0	0.7	51200	purple	turquoise	1	0	ml	2.7.3	bip	sub-20_ses-01_task-ml_proj-bip_2021-03-23-10-18-05.348859
3	20	1	1	4	volatile	1	20	4	vs	purple	turquoise	purple	turquoise	left	right	0.7	0.30000000000000004	2	6	1.4	1.8000000000000005	1	0	0.7	0.30000000000000004	2	6	1.4	1.8000000000000005	valid	0.4332243019998714	51200	0	0	1	53248	0	51200	1	53248	0	0.7	51200	purple	turquoise	0	2	ml	2.7.3	bip	sub-20_ses-01_task-ml_proj-bip_2021-03-23-10-18-05.348859
4	20	1	1	5	volatile	1	20	5	vs	turquoise	purple	purple	turquoise	right	left	0.7	0.30000000000000004	4	2	2.8	0.6000000000000001	1	0	0.30000000000000004	0.7	2	4	0.6000000000000001	2.8	valid	0.5498791549998714	53248	0	1	1	53248	1	53248	1	53248	1	0.7	53248	purple	turquoise	1	4	ml	2.7.3	bip	sub-20_ses-01_task-ml_proj-bip_2021-03-23-10-18-05.348859
5	20	1	1	6	volatile	1	20	6	vs	purple	turquoise	purple	turquoise	left	right	0.7	0.30000000000000004	4	6	2.8	1.8000000000000005	1	0	0.7	0.30000000000000004	4	6	2.8	1.8000000000000005	valid	0.5165357130008488	51200	0	0	1	51200	1	51200	1	53248	0	0.7	51200	purple	turquoise	0	4	ml	2.7.3	bip	sub-20_ses-01_task-ml_proj-bip_2021-03-23-10-18-05.348859
6	20	1	1	7	volatile	1	20	7	vs	purple	turquoise	purple	turquoise	left	right	0.7	0.30000000000000004	10	2	7.0	0.6000000000000001	0	1	0.7	0.30000000000000004	10	2	7.0	0.6000000000000001	invalid	0.5331970560000627	51200	0	0	1	51200	1	51200	1	51200	1	0.7	51200	purple	turquoise	1	0	ml	2.7.3	bip	sub-20_ses-01_task-ml_proj-bip_2021-03-23-10-18-05.348859
7	20	1	1	8	volatile	1	20	8	vs	turquoise	purple	purple	turquoise	right	left	0.7	0.30000000000000004	6	6	4.199999999999998	1.8000000000000005	1	0	0.30000000000000004	0.7	6	6	1.8000000000000005	4.199999999999998	valid	0.8497806129998935	53248	0	1	1	53248	1	53248	1	53248	1	0.7	53248	purple	turquoise	0	6	ml	2.7.3	bip	sub-20_ses-01_task-ml_proj-bip_2021-03-23-10-18-05.348859
8	20	1	1	9	volatile	1	20	9	vs	purple	turquoise	purple	turquoise	left	right	0.7	0.30000000000000004	2	2	1.4	0.6000000000000001	1	0	0.7	0.30000000000000004	2	2	1.4	0.6000000000000001	valid	1.1330183270001726	51200	0	0	1	51200	1	51200	1	53248	0	0.7	51200	purple	turquoise	1	2	ml	2.7.3	bip	sub-20_ses-01_task-ml_proj-bip_2021-03-23-10-18-05.348859
9	20	1	1	10	volatile	1	20	10	vs	turquoise	purple	purple	turquoise	right	left	0.7	0.30000000000000004	2	4	1.4	1.2000000000000002	0	1	0.30000000000000004	0.7	4	2	1.2000000000000002	1.4	invalid	0.7831341060009436	53248	0	1	1	53248	1	53248	1	51200	0	0.7	53248	purple	turquoise	0	0	ml	2.7.3	bip	sub-20_ses-01_task-ml_proj-bip_2021-03-23-10-18-05.348859
10	20	1	1	11	volatile	1	20	11	vs	turquoise	purple	purple	turquoise	right	left	0.7	0.30000000000000004	2	10	1.4	3.0000000000000004	1	0	0.30000000000000004	0.7	10	2	3.0000000000000004	1.4	valid	0.8664351049992547	53248	0	1	1	51200	0	53248	1	51200	0	0.7	53248	purple	turquoise	0	2	ml	2.7.3	bip	sub-20_ses-01_task-ml_proj-bip_2021-03-23-10-18-05.348859
11	20	1	1	12	volatile	1	20	12	vs	turquoise	purple	purple	turquoise	right	left	0.7	0.30000000000000004	10	2	7.0	0.6000000000000001	0	1	0.30000000000000004	0.7	2	10	0.6000000000000001	7.0	invalid	0.783123039000202	51200	0	0	2	53248	0	53248	0	53248	0	0.7	53248	purple	turquoise	1	2	ml	2.7.3	bip	sub-20_ses-01_task-ml_proj-bip_2021-03-23-10-18-05.348859
12	20	1	1	13	volatile	1	20	13	vs	turquoise	purple	purple	turquoise	right	left	0.7	0.30000000000000004	4	2	2.8	0.6000000000000001	1	0	0.30000000000000004	0.7	2	4	0.6000000000000001	2.8	valid	0.9830632539997168	51200	0	0	2	53248	0	53248	0	53248	0	0.7	53248	purple	turquoise	1	0	ml	2.7.3	bip	sub-20_ses-01_task-ml_proj-bip_2021-03-23-10-18-05.348859
13	20	1	1	14	volatile	1	20	14	vs	purple	turquoise	purple	turquoise	left	right	0.7	0.30000000000000004	2	6	1.4	1.8000000000000005	1	0	0.7	0.30000000000000004	2	6	1.4	1.8000000000000005	valid	0.6165059029990516	51200	0	0	1	53248	0	51200	1	53248	0	0.7	51200	purple	turquoise	0	2	ml	2.7.3	bip	sub-20_ses-01_task-ml_proj-bip_2021-03-23-10-18-05.348859
14	20	1	1	15	volatile	1	20	15	vs	turquoise	purple	purple	turquoise	right	left	0.7	0.30000000000000004	6	6	4.199999999999998	1.8000000000000005	1	0	0.30000000000000004	0.7	6	6	1.8000000000000005	4.199999999999998	valid	0.5998560249990987	53248	0	1	1	53248	1	53248	1	53248	1	0.7	53248	purple	turquoise	0	6	ml	2.7.3	bip	sub-20_ses-01_task-ml_proj-bip_2021-03-23-10-18-05.348859
15	20	1	1	16	volatile	1	20	16	vs	purple	turquoise	purple	turquoise	left	right	0.7	0.30000000000000004	4	6	2.8	1.8000000000000005	0	1	0.7	0.30000000000000004	4	6	2.8	1.8000000000000005	invalid	0.44988231999923295	51200	0	0	1	51200	1	51200	1	53248	0	0.7	51200	purple	turquoise	0	0	ml	2.7.3	bip	sub-20_ses-01_task-ml_proj-bip_2021-03-23-10-18-05.348859
16	20	1	1	17	volatile	1	20	17	vs	turquoise	purple	purple	turquoise	right	left	0.7	0.30000000000000004	2	6	1.4	1.8000000000000005	0	1	0.30000000000000004	0.7	6	2	1.8000000000000005	1.4	invalid	0.9497497200009092	53248	0	1	1	51200	0	53248	1	51200	0	0.7	53248	purple	turquoise	0	0	ml	2.7.3	bip	sub-20_ses-01_task-ml_proj-bip_2021-03-23-10-18-05.348859
17	20	1	1	18	volatile	1	20	18	vs	purple	turquoise	purple	turquoise	left	right	0.7	0.30000000000000004	2	2	1.4	0.6000000000000001	1	0	0.7	0.30000000000000004	2	2	1.4	0.6000000000000001	valid	0.6498405860002094	53248	0	1	2	51200	0	51200	0	53248	1	0.7	51200	purple	turquoise	1	0	ml	2.7.3	bip	sub-20_ses-01_task-ml_proj-bip_2021-03-23-10-18-05.348859
18	20	1	1	19	volatile	1	20	19	vs	turquoise	purple	purple	turquoise	right	left	0.7	0.30000000000000004	2	6	1.4	1.8000000000000005	1	0	0.30000000000000004	0.7	6	2	1.8000000000000005	1.4	valid	1.0497218099990278	53248	0	1	1	51200	0	53248	1	51200	0	0.7	53248	purple	turquoise	0	2	ml	2.7.3	bip	sub-20_ses-01_task-ml_proj-bip_2021-03-23-10-18-05.348859
19	20	1	1	20	volatile	1	20	20	vs	turquoise	purple	purple	turquoise	right	left	0.7	0.30000000000000004	4	6	2.8	1.8000000000000005	1	0	0.30000000000000004	0.7	6	4	1.8000000000000005	2.8	valid	0.5831955590001598	53248	0	1	1	53248	1	53248	1	51200	0	0.7	53248	purple	turquoise	0	4	ml	2.7.3	bip	sub-20_ses-01_task-ml_proj-bip_2021-03-23-10-18-05.348859
20	20	1	1	21	volatile	2	40	1	vs	turquoise	purple	purple	turquoise	right	left	0.30000000000000004	0.7	2	2	0.6000000000000001	1.4	1	0	0.7	0.30000000000000004	2	2	1.4	0.6000000000000001	invalid	0.8664430179996998	53248	0	1	1	51200	0	51200	0	53248	1	0.7	51200	turquoise	purple	1	2	ml	2.7.3	bip	sub-20_ses-01_task-ml_proj-bip_2021-03-23-10-18-05.348859
21	20	1	1	22	volatile	2	40	2	vs	turquoise	purple	purple	turquoise	right	left	0.30000000000000004	0.7	6	2	1.8000000000000005	1.4	0	1	0.7	0.30000000000000004	2	6	1.4	1.8000000000000005	valid	0.7997977169998194	53248	0	1	1	53248	1	51200	0	53248	1	0.7	51200	turquoise	purple	0	0	ml	2.7.3	bip	sub-20_ses-01_task-ml_proj-bip_2021-03-23-10-18-05.348859
22	20	1	1	23	volatile	2	40	3	vs	turquoise	purple	purple	turquoise	right	left	0.30000000000000004	0.7	2	6	0.6000000000000001	4.199999999999998	1	0	0.7	0.30000000000000004	6	2	4.199999999999998	0.6000000000000001	invalid	1.0997035600012168	53248	0	1	1	51200	0	51200	0	51200	0	0.7	51200	turquoise	purple	1	2	ml	2.7.3	bip	sub-20_ses-01_task-ml_proj-bip_2021-03-23-10-18-05.348859
23	20	1	1	24	volatile	2	40	4	vs	purple	turquoise	purple	turquoise	left	right	0.30000000000000004	0.7	2	10	0.6000000000000001	7.0	0	1	0.30000000000000004	0.7	2	10	0.6000000000000001	7.0	valid	0.9164166000009571	51200	0	0	1	53248	0	53248	0	53248	0	0.7	53248	turquoise	purple	1	0	ml	2.7.3	bip	sub-20_ses-01_task-ml_proj-bip_2021-03-23-10-18-05.348859
24	20	1	1	25	volatile	2	40	5	vs	turquoise	purple	purple	turquoise	right	left	0.30000000000000004	0.7	2	2	0.6000000000000001	1.4	0	1	0.7	0.30000000000000004	2	2	1.4	0.6000000000000001	valid	0.6498393570000189	53248	0	1	1	51200	0	51200	0	53248	1	0.7	51200	turquoise	purple	1	0	ml	2.7.3	bip	sub-20_ses-01_task-ml_proj-bip_2021-03-23-10-18-05.348859
25	20	1	1	26	volatile	2	40	6	vs	turquoise	purple	purple	turquoise	right	left	0.30000000000000004	0.7	2	6	0.6000000000000001	4.199999999999998	0	1	0.7	0.30000000000000004	6	2	4.199999999999998	0.6000000000000001	valid	0.8997474869993312	51200	0	0	2	51200	1	51200	1	51200	1	0.7	51200	turquoise	purple	1	6	ml	2.7.3	bip	sub-20_ses-01_task-ml_proj-bip_2021-03-23-10-18-05.348859
26	20	1	1	27	volatile	2	40	7	vs	turquoise	purple	purple	turquoise	right	left	0.30000000000000004	0.7	4	6	1.2000000000000002	4.199999999999998	0	1	0.7	0.30000000000000004	6	4	4.199999999999998	1.2000000000000002	valid	0.5165369349997491	51200	0	0	2	51200	1	51200	1	51200	1	0.7	51200	turquoise	purple	1	6	ml	2.7.3	bip	sub-20_ses-01_task-ml_proj-bip_2021-03-23-10-18-05.348859
27	20	1	1	28	volatile	2	40	8	vs	turquoise	purple	purple	turquoise	right	left	0.30000000000000004	0.7	6	2	1.8000000000000005	1.4	0	1	0.7	0.30000000000000004	2	6	1.4	1.8000000000000005	valid	0.8664373849987896	51200	0	0	2	53248	0	51200	1	53248	0	0.7	51200	turquoise	purple	0	2	ml	2.7.3	bip	sub-20_ses-01_task-ml_proj-bip_2021-03-23-10-18-05.348859
28	20	1	1	29	volatile	2	40	9	vs	purple	turquoise	purple	turquoise	left	right	0.30000000000000004	0.7	10	2	3.0000000000000004	1.4	0	1	0.30000000000000004	0.7	10	2	3.0000000000000004	1.4	valid	0.8497802120000415	53248	0	1	2	51200	0	53248	1	51200	0	0.7	53248	turquoise	purple	0	2	ml	2.7.3	bip	sub-20_ses-01_task-ml_proj-bip_2021-03-23-10-18-05.348859
29	20	1	1	30	volatile	2	40	10	vs	turquoise	purple	purple	turquoise	right	left	0.30000000000000004	0.7	6	4	1.8000000000000005	2.8	0	1	0.7	0.30000000000000004	4	6	2.8	1.8000000000000005	valid	0.5331992020001053	51200	0	0	2	51200	1	51200	1	53248	0	0.7	51200	turquoise	purple	0	4	ml	2.7.3	bip	sub-20_ses-01_task-ml_proj-bip_2021-03-23-10-18-05.348859
30	20	1	1	31	volatile	2	40	11	vs	turquoise	purple	purple	turquoise	right	left	0.30000000000000004	0.7	6	6	1.8000000000000005	4.199999999999998	0	1	0.7	0.30000000000000004	6	6	4.199999999999998	1.8000000000000005	valid	0.4665526440003305	51200	0	0	2	51200	1	51200	1	53248	0	0.7	51200	turquoise	purple	1	6	ml	2.7.3	bip	sub-20_ses-01_task-ml_proj-bip_2021-03-23-10-18-05.348859
31	20	1	1	32	volatile	2	40	12	vs	turquoise	purple	purple	turquoise	right	left	0.30000000000000004	0.7	6	4	1.8000000000000005	2.8	0	1	0.7	0.30000000000000004	4	6	2.8	1.8000000000000005	valid	0.4665474540015566	51200	0	0	2	51200	1	51200	1	53248	0	0.7	51200	turquoise	purple	0	4	ml	2.7.3	bip	sub-20_ses-01_task-ml_proj-bip_2021-03-23-10-18-05.348859
32	20	1	1	33	volatile	2	40	13	vs	purple	turquoise	purple	turquoise	left	right	0.30000000000000004	0.7	4	2	1.2000000000000002	1.4	0	1	0.30000000000000004	0.7	4	2	1.2000000000000002	1.4	valid	0.66652691300078	53248	0	1	2	53248	1	53248	1	51200	0	0.7	53248	turquoise	purple	0	2	ml	2.7.3	bip	sub-20_ses-01_task-ml_proj-bip_2021-03-23-10-18-05.348859
33	20	1	1	34	volatile	2	40	14	vs	purple	turquoise	purple	turquoise	left	right	0.30000000000000004	0.7	2	6	0.6000000000000001	4.199999999999998	0	1	0.30000000000000004	0.7	2	6	0.6000000000000001	4.199999999999998	valid	0.533211403999303	53248	0	1	2	53248	1	53248	1	53248	1	0.7	53248	turquoise	purple	1	6	ml	2.7.3	bip	sub-20_ses-01_task-ml_proj-bip_2021-03-23-10-18-05.348859
34	20	1	1	35	volatile	2	40	15	vs	purple	turquoise	purple	turquoise	left	right	0.30000000000000004	0.7	6	6	1.8000000000000005	4.199999999999998	1	0	0.30000000000000004	0.7	6	6	1.8000000000000005	4.199999999999998	invalid	0.5498721089988976	53248	0	1	2	53248	1	53248	1	53248	1	0.7	53248	turquoise	purple	0	0	ml	2.7.3	bip	sub-20_ses-01_task-ml_proj-bip_2021-03-23-10-18-05.348859
35	20	1	1	36	volatile	2	40	16	vs	purple	turquoise	purple	turquoise	left	right	0.30000000000000004	0.7	4	2	1.2000000000000002	1.4	1	0	0.30000000000000004	0.7	4	2	1.2000000000000002	1.4	invalid	0.6165168119987356	53248	0	1	2	53248	1	53248	1	51200	0	0.7	53248	turquoise	purple	0	0	ml	2.7.3	bip	sub-20_ses-01_task-ml_proj-bip_2021-03-23-10-18-05.348859
36	20	1	1	37	volatile	2	40	17	vs	purple	turquoise	purple	turquoise	left	right	0.30000000000000004	0.7	10	2	3.0000000000000004	1.4	0	1	0.30000000000000004	0.7	10	2	3.0000000000000004	1.4	valid	0.7498113149995334	53248	0	1	2	51200	0	53248	1	51200	0	0.7	53248	turquoise	purple	0	2	ml	2.7.3	bip	sub-20_ses-01_task-ml_proj-bip_2021-03-23-10-18-05.348859
37	20	1	1	38	volatile	2	40	18	vs	turquoise	purple	purple	turquoise	right	left	0.30000000000000004	0.7	2	10	0.6000000000000001	7.0	0	1	0.7	0.30000000000000004	10	2	7.0	0.6000000000000001	valid	0.8164578580017405	53248	0	1	1	51200	0	51200	0	51200	0	0.7	51200	turquoise	purple	1	0	ml	2.7.3	bip	sub-20_ses-01_task-ml_proj-bip_2021-03-23-10-18-05.348859
38	20	1	1	39	volatile	2	40	19	vs	turquoise	purple	purple	turquoise	right	left	0.30000000000000004	0.7	6	6	1.8000000000000005	4.199999999999998	0	1	0.7	0.30000000000000004	6	6	4.199999999999998	1.8000000000000005	valid	0.6998150039999018	51200	0	0	2	51200	1	51200	1	53248	0	0.7	51200	turquoise	purple	1	6	ml	2.7.3	bip	sub-20_ses-01_task-ml_proj-bip_2021-03-23-10-18-05.348859
39	20	1	1	40	volatile	2	40	20	vs	purple	turquoise	purple	turquoise	left	right	0.30000000000000004	0.7	2	2	0.6000000000000001	1.4	0	1	0.30000000000000004	0.7	2	2	0.6000000000000001	1.4	valid	1.1663623559998086	53248	0	1	2	53248	1	53248	1	53248	1	0.7	53248	turquoise	purple	0	2	ml	2.7.3	bip	sub-20_ses-01_task-ml_proj-bip_2021-03-23-10-18-05.348859
40	20	1	1	41	volatile	2	40	21	vs	purple	turquoise	purple	turquoise	left	right	0.30000000000000004	0.7	2	4	0.6000000000000001	2.8	0	1	0.30000000000000004	0.7	2	4	0.6000000000000001	2.8	valid	0.4832288380002865	53248	0	1	2	53248	1	53248	1	53248	1	0.7	53248	turquoise	purple	1	4	ml	2.7.3	bip	sub-20_ses-01_task-ml_proj-bip_2021-03-23-10-18-05.348859
41	20	1	1	42	volatile	2	40	22	vs	turquoise	purple	purple	turquoise	right	left	0.30000000000000004	0.7	4	6	1.2000000000000002	4.199999999999998	0	1	0.7	0.30000000000000004	6	4	4.199999999999998	1.2000000000000002	valid	0.5165297090006788	51200	0	0	2	51200	1	51200	1	51200	1	0.7	51200	turquoise	purple	1	6	ml	2.7.3	bip	sub-20_ses-01_task-ml_proj-bip_2021-03-23-10-18-05.348859
42	20	1	1	43	volatile	2	40	23	vs	purple	turquoise	purple	turquoise	left	right	0.30000000000000004	0.7	4	6	1.2000000000000002	4.199999999999998	0	1	0.30000000000000004	0.7	4	6	1.2000000000000002	4.199999999999998	valid	0.4332379250008671	53248	0	1	2	53248	1	53248	1	53248	1	0.7	53248	turquoise	purple	1	6	ml	2.7.3	bip	sub-20_ses-01_task-ml_proj-bip_2021-03-23-10-18-05.348859
43	20	1	1	44	volatile	2	40	24	vs	purple	turquoise	purple	turquoise	left	right	0.30000000000000004	0.7	6	4	1.8000000000000005	2.8	0	1	0.30000000000000004	0.7	6	4	1.8000000000000005	2.8	valid	0.4998872799988021	53248	0	1	2	53248	1	53248	1	51200	0	0.7	53248	turquoise	purple	0	4	ml	2.7.3	bip	sub-20_ses-01_task-ml_proj-bip_2021-03-23-10-18-05.348859
44	20	1	1	45	volatile	2	40	25	vs	purple	turquoise	purple	turquoise	left	right	0.30000000000000004	0.7	4	2	1.2000000000000002	1.4	0	1	0.30000000000000004	0.7	4	2	1.2000000000000002	1.4	valid	1.0164047609996487	53248	0	1	2	53248	1	53248	1	51200	0	0.7	53248	turquoise	purple	0	2	ml	2.7.3	bip	sub-20_ses-01_task-ml_proj-bip_2021-03-23-10-18-05.348859
45	20	1	1	46	volatile	2	40	26	vs	purple	turquoise	purple	turquoise	left	right	0.30000000000000004	0.7	4	2	1.2000000000000002	1.4	1	0	0.30000000000000004	0.7	4	2	1.2000000000000002	1.4	invalid	0.4332382889988367	53248	0	1	2	53248	1	53248	1	51200	0	0.7	53248	turquoise	purple	0	0	ml	2.7.3	bip	sub-20_ses-01_task-ml_proj-bip_2021-03-23-10-18-05.348859
46	20	1	1	47	volatile	2	40	27	vs	purple	turquoise	purple	turquoise	left	right	0.30000000000000004	0.7	10	2	3.0000000000000004	1.4	1	0	0.30000000000000004	0.7	10	2	3.0000000000000004	1.4	invalid	0.699819937999564	53248	0	1	2	51200	0	53248	1	51200	0	0.7	53248	turquoise	purple	0	0	ml	2.7.3	bip	sub-20_ses-01_task-ml_proj-bip_2021-03-23-10-18-05.348859
47	20	1	1	48	volatile	2	40	28	vs	purple	turquoise	purple	turquoise	left	right	0.30000000000000004	0.7	6	2	1.8000000000000005	1.4	0	1	0.30000000000000004	0.7	6	2	1.8000000000000005	1.4	valid	0.4165682249986276	51200	0	0	1	51200	1	53248	0	51200	1	0.7	53248	turquoise	purple	0	0	ml	2.7.3	bip	sub-20_ses-01_task-ml_proj-bip_2021-03-23-10-18-05.348859
48	20	1	1	49	volatile	2	40	29	vs	turquoise	purple	purple	turquoise	right	left	0.30000000000000004	0.7	2	2	0.6000000000000001	1.4	1	0	0.7	0.30000000000000004	2	2	1.4	0.6000000000000001	invalid	0.6331671949992597	51200	0	0	2	51200	1	51200	1	53248	0	0.7	51200	turquoise	purple	1	0	ml	2.7.3	bip	sub-20_ses-01_task-ml_proj-bip_2021-03-23-10-18-05.348859
49	20	1	1	50	volatile	2	40	30	vs	turquoise	purple	purple	turquoise	right	left	0.30000000000000004	0.7	4	6	1.2000000000000002	4.199999999999998	0	1	0.7	0.30000000000000004	6	4	4.199999999999998	1.2000000000000002	valid	0.4498984609999752	53248	0	1	1	51200	0	51200	0	51200	0	0.7	51200	turquoise	purple	1	0	ml	2.7.3	bip	sub-20_ses-01_task-ml_proj-bip_2021-03-23-10-18-05.348859
50	20	1	2	51	volatile	2	40	31	vs	turquoise	purple	purple	turquoise	right	left	0.30000000000000004	0.7	4	2	1.2000000000000002	1.4	1	0	0.7	0.30000000000000004	2	4	1.4	1.2000000000000002	invalid	1.066377246999764	53248	0	1	1	51200	0	51200	0	53248	1	0.7	51200	turquoise	purple	0	4	ml	2.7.3	bip	sub-20_ses-01_task-ml_proj-bip_2021-03-23-10-18-05.348859
51	20	1	2	52	volatile	2	40	32	vs	purple	turquoise	purple	turquoise	left	right	0.30000000000000004	0.7	2	6	0.6000000000000001	4.199999999999998	1	0	0.30000000000000004	0.7	2	6	0.6000000000000001	4.199999999999998	invalid	0.4498930179997842	51200	0	0	1	53248	0	53248	0	53248	0	0.7	53248	turquoise	purple	1	2	ml	2.7.3	bip	sub-20_ses-01_task-ml_proj-bip_2021-03-23-10-18-05.348859
52	20	1	2	53	volatile	2	40	33	vs	turquoise	purple	purple	turquoise	right	left	0.30000000000000004	0.7	10	2	3.0000000000000004	1.4	1	0	0.7	0.30000000000000004	2	10	1.4	3.0000000000000004	invalid	0.7998097729996516	53248	0	1	1	53248	1	51200	0	53248	1	0.7	51200	turquoise	purple	0	10	ml	2.7.3	bip	sub-20_ses-01_task-ml_proj-bip_2021-03-23-10-18-05.348859
53	20	1	2	54	volatile	2	40	34	vs	turquoise	purple	purple	turquoise	right	left	0.30000000000000004	0.7	10	2	3.0000000000000004	1.4	0	1	0.7	0.30000000000000004	2	10	1.4	3.0000000000000004	valid	0.5165467269998771	53248	0	1	1	53248	1	51200	0	53248	1	0.7	51200	turquoise	purple	0	0	ml	2.7.3	bip	sub-20_ses-01_task-ml_proj-bip_2021-03-23-10-18-05.348859
54	20	1	2	55	volatile	2	40	35	vs	purple	turquoise	purple	turquoise	left	right	0.30000000000000004	0.7	2	4	0.6000000000000001	2.8	0	1	0.30000000000000004	0.7	2	4	0.6000000000000001	2.8	valid	0.4332277560006333	51200	0	0	1	53248	0	53248	0	53248	0	0.7	53248	turquoise	purple	1	0	ml	2.7.3	bip	sub-20_ses-01_task-ml_proj-bip_2021-03-23-10-18-05.348859
55	20	1	2	56	volatile	2	40	36	vs	turquoise	purple	purple	turquoise	right	left	0.30000000000000004	0.7	10	2	3.0000000000000004	1.4	1	0	0.7	0.30000000000000004	2	10	1.4	3.0000000000000004	invalid	0.4665515820015571	51200	0	0	2	53248	0	51200	1	53248	0	0.7	51200	turquoise	purple	0	0	ml	2.7.3	bip	sub-20_ses-01_task-ml_proj-bip_2021-03-23-10-18-05.348859
56	20	1	2	57	volatile	2	40	37	vs	purple	turquoise	purple	turquoise	left	right	0.30000000000000004	0.7	6	6	1.8000000000000005	4.199999999999998	1	0	0.30000000000000004	0.7	6	6	1.8000000000000005	4.199999999999998	invalid	0.4998970979995647	51200	0	0	1	53248	0	53248	0	53248	0	0.7	53248	turquoise	purple	0	6	ml	2.7.3	bip	sub-20_ses-01_task-ml_proj-bip_2021-03-23-10-18-05.348859
57	20	1	2	58	volatile	2	40	38	vs	turquoise	purple	purple	turquoise	right	left	0.30000000000000004	0.7	2	6	0.6000000000000001	4.199999999999998	0	1	0.7	0.30000000000000004	6	2	4.199999999999998	0.6000000000000001	valid	0.6998464589996729	53248	0	1	1	51200	0	51200	0	51200	0	0.7	51200	turquoise	purple	1	0	ml	2.7.3	bip	sub-20_ses-01_task-ml_proj-bip_2021-03-23-10-18-05.348859
58	20	1	2	59	volatile	2	40	39	vs	purple	turquoise	purple	turquoise	left	right	0.30000000000000004	0.7	2	4	0.6000000000000001	2.8	0	1	0.30000000000000004	0.7	2	4	0.6000000000000001	2.8	valid	0.6165311989989277	51200	0	0	1	53248	0	53248	0	53248	0	0.7	53248	turquoise	purple	1	0	ml	2.7.3	bip	sub-20_ses-01_task-ml_proj-bip_2021-03-23-10-18-05.348859
59	20	1	2	60	volatile	2	40	40	vs	purple	turquoise	purple	turquoise	left	right	0.30000000000000004	0.7	4	6	1.2000000000000002	4.199999999999998	0	1	0.30000000000000004	0.7	4	6	1.2000000000000002	4.199999999999998	valid	0.4832261289993767	53248	0	1	2	53248	1	53248	1	53248	1	0.7	53248	turquoise	purple	1	6	ml	2.7.3	bip	sub-20_ses-01_task-ml_proj-bip_2021-03-23-10-18-05.348859
60	20	1	2	61	volatile	3	40	1	vs	purple	turquoise	purple	turquoise	left	right	0.7	0.30000000000000004	4	6	2.8	1.8000000000000005	0	1	0.7	0.30000000000000004	4	6	2.8	1.8000000000000005	invalid	0.44989986100154056	53248	0	1	2	51200	0	51200	0	53248	1	0.7	51200	purple	turquoise	0	6	ml	2.7.3	bip	sub-20_ses-01_task-ml_proj-bip_2021-03-23-10-18-05.348859
61	20	1	2	62	volatile	3	40	2	vs	purple	turquoise	purple	turquoise	left	right	0.7	0.30000000000000004	4	2	2.8	0.6000000000000001	1	0	0.7	0.30000000000000004	4	2	2.8	0.6000000000000001	valid	0.6498430960000405	53248	0	1	2	51200	0	51200	0	51200	0	0.7	51200	purple	turquoise	1	0	ml	2.7.3	bip	sub-20_ses-01_task-ml_proj-bip_2021-03-23-10-18-05.348859
62	20	1	2	63	volatile	3	40	3	vs	purple	turquoise	purple	turquoise	left	right	0.7	0.30000000000000004	4	2	2.8	0.6000000000000001	0	1	0.7	0.30000000000000004	4	2	2.8	0.6000000000000001	invalid	0.7997843289995217	51200	0	0	1	51200	1	51200	1	51200	1	0.7	51200	purple	turquoise	1	0	ml	2.7.3	bip	sub-20_ses-01_task-ml_proj-bip_2021-03-23-10-18-05.348859
63	20	1	2	64	volatile	3	40	4	vs	purple	turquoise	purple	turquoise	left	right	0.7	0.30000000000000004	2	4	1.4	1.2000000000000002	1	0	0.7	0.30000000000000004	2	4	1.4	1.2000000000000002	valid	0.5165458909996232	53248	0	1	2	51200	0	51200	0	53248	1	0.7	51200	purple	turquoise	0	0	ml	2.7.3	bip	sub-20_ses-01_task-ml_proj-bip_2021-03-23-10-18-05.348859
64	20	1	2	65	volatile	3	40	5	vs	turquoise	purple	purple	turquoise	right	left	0.7	0.30000000000000004	2	2	1.4	0.6000000000000001	1	0	0.30000000000000004	0.7	2	2	0.6000000000000001	1.4	valid	0.4832152189992485	51200	0	0	2	53248	0	53248	0	53248	0	0.7	53248	purple	turquoise	0	0	ml	2.7.3	bip	sub-20_ses-01_task-ml_proj-bip_2021-03-23-10-18-05.348859
65	20	1	2	66	volatile	3	40	6	vs	purple	turquoise	purple	turquoise	left	right	0.7	0.30000000000000004	2	6	1.4	1.8000000000000005	1	0	0.7	0.30000000000000004	2	6	1.4	1.8000000000000005	valid	0.4332302389993856	51200	0	0	1	53248	0	51200	1	53248	0	0.7	51200	purple	turquoise	0	2	ml	2.7.3	bip	sub-20_ses-01_task-ml_proj-bip_2021-03-23-10-18-05.348859
66	20	1	2	67	volatile	3	40	7	vs	turquoise	purple	purple	turquoise	right	left	0.7	0.30000000000000004	4	6	2.8	1.8000000000000005	0	1	0.30000000000000004	0.7	6	4	1.8000000000000005	2.8	invalid	0.5498705659992993	53248	0	1	1	53248	1	53248	1	51200	0	0.7	53248	purple	turquoise	0	0	ml	2.7.3	bip	sub-20_ses-01_task-ml_proj-bip_2021-03-23-10-18-05.348859
67	20	1	2	68	volatile	3	40	8	vs	purple	turquoise	purple	turquoise	left	right	0.7	0.30000000000000004	6	6	4.199999999999998	1.8000000000000005	1	0	0.7	0.30000000000000004	6	6	4.199999999999998	1.8000000000000005	valid	0.4665574350001407	51200	0	0	1	51200	1	51200	1	53248	0	0.7	51200	purple	turquoise	1	6	ml	2.7.3	bip	sub-20_ses-01_task-ml_proj-bip_2021-03-23-10-18-05.348859
68	20	1	2	69	volatile	3	40	9	vs	purple	turquoise	purple	turquoise	left	right	0.7	0.30000000000000004	6	6	4.199999999999998	1.8000000000000005	1	0	0.7	0.30000000000000004	6	6	4.199999999999998	1.8000000000000005	valid	0.6498313349984528	51200	0	0	1	51200	1	51200	1	53248	0	0.7	51200	purple	turquoise	1	6	ml	2.7.3	bip	sub-20_ses-01_task-ml_proj-bip_2021-03-23-10-18-05.348859
69	20	1	2	70	volatile	3	40	10	vs	turquoise	purple	purple	turquoise	right	left	0.7	0.30000000000000004	4	6	2.8	1.8000000000000005	1	0	0.30000000000000004	0.7	6	4	1.8000000000000005	2.8	valid	0.7498149769999145	53248	0	1	1	53248	1	53248	1	51200	0	0.7	53248	purple	turquoise	0	4	ml	2.7.3	bip	sub-20_ses-01_task-ml_proj-bip_2021-03-23-10-18-05.348859
70	20	1	2	71	volatile	3	40	11	vs	purple	turquoise	purple	turquoise	left	right	0.7	0.30000000000000004	2	10	1.4	3.0000000000000004	0	1	0.7	0.30000000000000004	2	10	1.4	3.0000000000000004	invalid	0.4332289989997662	51200	0	0	1	53248	0	51200	1	53248	0	0.7	51200	purple	turquoise	0	0	ml	2.7.3	bip	sub-20_ses-01_task-ml_proj-bip_2021-03-23-10-18-05.348859
71	20	1	2	72	volatile	3	40	12	vs	purple	turquoise	purple	turquoise	left	right	0.7	0.30000000000000004	2	4	1.4	1.2000000000000002	0	1	0.7	0.30000000000000004	2	4	1.4	1.2000000000000002	invalid	0.5165437830000883	51200	0	0	1	51200	1	51200	1	53248	0	0.7	51200	purple	turquoise	0	0	ml	2.7.3	bip	sub-20_ses-01_task-ml_proj-bip_2021-03-23-10-18-05.348859
72	20	1	2	73	volatile	3	40	13	vs	purple	turquoise	purple	turquoise	left	right	0.7	0.30000000000000004	6	2	4.199999999999998	0.6000000000000001	1	0	0.7	0.30000000000000004	6	2	4.199999999999998	0.6000000000000001	valid	0.5331976430006762	51200	0	0	1	51200	1	51200	1	51200	1	0.7	51200	purple	turquoise	1	6	ml	2.7.3	bip	sub-20_ses-01_task-ml_proj-bip_2021-03-23-10-18-05.348859
73	20	1	2	74	volatile	3	40	14	vs	purple	turquoise	purple	turquoise	left	right	0.7	0.30000000000000004	2	10	1.4	3.0000000000000004	1	0	0.7	0.30000000000000004	2	10	1.4	3.0000000000000004	valid	0.583184955001343	51200	0	0	1	53248	0	51200	1	53248	0	0.7	51200	purple	turquoise	0	2	ml	2.7.3	bip	sub-20_ses-01_task-ml_proj-bip_2021-03-23-10-18-05.348859
74	20	1	2	75	volatile	3	40	15	vs	purple	turquoise	purple	turquoise	left	right	0.7	0.30000000000000004	2	10	1.4	3.0000000000000004	1	0	0.7	0.30000000000000004	2	10	1.4	3.0000000000000004	valid	0.5998453150004934	51200	0	0	1	53248	0	51200	1	53248	0	0.7	51200	purple	turquoise	0	2	ml	2.7.3	bip	sub-20_ses-01_task-ml_proj-bip_2021-03-23-10-18-05.348859
75	20	1	2	76	volatile	3	40	16	vs	turquoise	purple	purple	turquoise	right	left	0.7	0.30000000000000004	2	2	1.4	0.6000000000000001	1	0	0.30000000000000004	0.7	2	2	0.6000000000000001	1.4	valid	0.6165085480006383	53248	0	1	1	53248	1	53248	1	53248	1	0.7	53248	purple	turquoise	0	2	ml	2.7.3	bip	sub-20_ses-01_task-ml_proj-bip_2021-03-23-10-18-05.348859
76	20	1	2	77	volatile	3	40	17	vs	turquoise	purple	purple	turquoise	right	left	0.7	0.30000000000000004	2	2	1.4	0.6000000000000001	1	0	0.30000000000000004	0.7	2	2	0.6000000000000001	1.4	valid	0.5998502469992673	53248	0	1	1	53248	1	53248	1	53248	1	0.7	53248	purple	turquoise	0	2	ml	2.7.3	bip	sub-20_ses-01_task-ml_proj-bip_2021-03-23-10-18-05.348859
77	20	1	2	78	volatile	3	40	18	vs	turquoise	purple	purple	turquoise	right	left	0.7	0.30000000000000004	6	4	4.199999999999998	1.2000000000000002	1	0	0.30000000000000004	0.7	4	6	1.2000000000000002	4.199999999999998	valid	0.633181750001313	53248	0	1	1	53248	1	53248	1	53248	1	0.7	53248	purple	turquoise	1	6	ml	2.7.3	bip	sub-20_ses-01_task-ml_proj-bip_2021-03-23-10-18-05.348859
78	20	1	2	79	volatile	3	40	19	vs	purple	turquoise	purple	turquoise	left	right	0.7	0.30000000000000004	10	2	7.0	0.6000000000000001	0	1	0.7	0.30000000000000004	10	2	7.0	0.6000000000000001	invalid	0.8497694750003575	51200	0	0	1	51200	1	51200	1	51200	1	0.7	51200	purple	turquoise	1	0	ml	2.7.3	bip	sub-20_ses-01_task-ml_proj-bip_2021-03-23-10-18-05.348859
79	20	1	2	80	volatile	3	40	20	vs	turquoise	purple	purple	turquoise	right	left	0.7	0.30000000000000004	2	6	1.4	1.8000000000000005	1	0	0.30000000000000004	0.7	6	2	1.8000000000000005	1.4	valid	0.6665040459993179	53248	0	1	1	51200	0	53248	1	51200	0	0.7	53248	purple	turquoise	0	2	ml	2.7.3	bip	sub-20_ses-01_task-ml_proj-bip_2021-03-23-10-18-05.348859
80	20	1	2	81	volatile	3	40	21	vs	purple	turquoise	purple	turquoise	left	right	0.7	0.30000000000000004	4	2	2.8	0.6000000000000001	1	0	0.7	0.30000000000000004	4	2	2.8	0.6000000000000001	valid	0.4832123470005172	51200	0	0	1	51200	1	51200	1	51200	1	0.7	51200	purple	turquoise	1	4	ml	2.7.3	bip	sub-20_ses-01_task-ml_proj-bip_2021-03-23-10-18-05.348859
81	20	1	2	82	volatile	3	40	22	vs	turquoise	purple	purple	turquoise	right	left	0.7	0.30000000000000004	6	2	4.199999999999998	0.6000000000000001	1	0	0.30000000000000004	0.7	2	6	0.6000000000000001	4.199999999999998	valid	0.44990180999957374	53248	0	1	1	53248	1	53248	1	53248	1	0.7	53248	purple	turquoise	1	6	ml	2.7.3	bip	sub-20_ses-01_task-ml_proj-bip_2021-03-23-10-18-05.348859
82	20	1	2	83	volatile	3	40	23	vs	turquoise	purple	purple	turquoise	right	left	0.7	0.30000000000000004	4	2	2.8	0.6000000000000001	1	0	0.30000000000000004	0.7	2	4	0.6000000000000001	2.8	valid	0.4998876640001981	53248	0	1	1	53248	1	53248	1	53248	1	0.7	53248	purple	turquoise	1	4	ml	2.7.3	bip	sub-20_ses-01_task-ml_proj-bip_2021-03-23-10-18-05.348859
83	20	1	2	84	volatile	3	40	24	vs	turquoise	purple	purple	turquoise	right	left	0.7	0.30000000000000004	2	10	1.4	3.0000000000000004	1	0	0.30000000000000004	0.7	10	2	3.0000000000000004	1.4	valid	0.6331787470007839	53248	0	1	1	51200	0	53248	1	51200	0	0.7	53248	purple	turquoise	0	2	ml	2.7.3	bip	sub-20_ses-01_task-ml_proj-bip_2021-03-23-10-18-05.348859
84	20	1	2	85	volatile	3	40	25	vs	turquoise	purple	purple	turquoise	right	left	0.7	0.30000000000000004	2	2	1.4	0.6000000000000001	0	1	0.30000000000000004	0.7	2	2	0.6000000000000001	1.4	invalid	0.4665573130005214	53248	0	1	1	53248	1	53248	1	53248	1	0.7	53248	purple	turquoise	0	0	ml	2.7.3	bip	sub-20_ses-01_task-ml_proj-bip_2021-03-23-10-18-05.348859
85	20	1	2	86	volatile	3	40	26	vs	turquoise	purple	purple	turquoise	right	left	0.7	0.30000000000000004	10	2	7.0	0.6000000000000001	1	0	0.30000000000000004	0.7	2	10	0.6000000000000001	7.0	valid	0.6498387229985383	53248	0	1	1	53248	1	53248	1	53248	1	0.7	53248	purple	turquoise	1	10	ml	2.7.3	bip	sub-20_ses-01_task-ml_proj-bip_2021-03-23-10-18-05.348859
86	20	1	2	87	volatile	3	40	27	vs	turquoise	purple	purple	turquoise	right	left	0.7	0.30000000000000004	6	2	4.199999999999998	0.6000000000000001	1	0	0.30000000000000004	0.7	2	6	0.6000000000000001	4.199999999999998	valid	0.3832529280007293	53248	0	1	1	53248	1	53248	1	53248	1	0.7	53248	purple	turquoise	1	6	ml	2.7.3	bip	sub-20_ses-01_task-ml_proj-bip_2021-03-23-10-18-05.348859
87	20	1	2	88	volatile	3	40	28	vs	turquoise	purple	purple	turquoise	right	left	0.7	0.30000000000000004	2	6	1.4	1.8000000000000005	1	0	0.30000000000000004	0.7	6	2	1.8000000000000005	1.4	valid	0.4165773699987767	53248	0	1	1	51200	0	53248	1	51200	0	0.7	53248	purple	turquoise	0	2	ml	2.7.3	bip	sub-20_ses-01_task-ml_proj-bip_2021-03-23-10-18-05.348859
88	20	1	2	89	volatile	3	40	29	vs	turquoise	purple	purple	turquoise	right	left	0.7	0.30000000000000004	2	10	1.4	3.0000000000000004	1	0	0.30000000000000004	0.7	10	2	3.0000000000000004	1.4	valid	0.5665377900004387	53248	0	1	1	51200	0	53248	1	51200	0	0.7	53248	purple	turquoise	0	2	ml	2.7.3	bip	sub-20_ses-01_task-ml_proj-bip_2021-03-23-10-18-05.348859
89	20	1	2	90	volatile	3	40	30	vs	turquoise	purple	purple	turquoise	right	left	0.7	0.30000000000000004	6	4	4.199999999999998	1.2000000000000002	0	1	0.30000000000000004	0.7	4	6	1.2000000000000002	4.199999999999998	invalid	0.5332192300011229	53248	0	1	1	53248	1	53248	1	53248	1	0.7	53248	purple	turquoise	1	0	ml	2.7.3	bip	sub-20_ses-01_task-ml_proj-bip_2021-03-23-10-18-05.348859
90	20	1	2	91	volatile	3	40	31	vs	purple	turquoise	purple	turquoise	left	right	0.7	0.30000000000000004	10	2	7.0	0.6000000000000001	1	0	0.7	0.30000000000000004	10	2	7.0	0.6000000000000001	valid	0.7164861090004706	53248	0	1	2	51200	0	51200	0	51200	0	0.7	51200	purple	turquoise	1	0	ml	2.7.3	bip	sub-20_ses-01_task-ml_proj-bip_2021-03-23-10-18-05.348859
91	20	1	2	92	volatile	3	40	32	vs	purple	turquoise	purple	turquoise	left	right	0.7	0.30000000000000004	6	4	4.199999999999998	1.2000000000000002	1	0	0.7	0.30000000000000004	6	4	4.199999999999998	1.2000000000000002	valid	0.39990610499990004	51200	0	0	1	51200	1	51200	1	51200	1	0.7	51200	purple	turquoise	1	6	ml	2.7.3	bip	sub-20_ses-01_task-ml_proj-bip_2021-03-23-10-18-05.348859
92	20	1	2	93	volatile	3	40	33	vs	purple	turquoise	purple	turquoise	left	right	0.7	0.30000000000000004	4	2	2.8	0.6000000000000001	1	0	0.7	0.30000000000000004	4	2	2.8	0.6000000000000001	valid	0.416567470998416	51200	0	0	1	51200	1	51200	1	51200	1	0.7	51200	purple	turquoise	1	4	ml	2.7.3	bip	sub-20_ses-01_task-ml_proj-bip_2021-03-23-10-18-05.348859
93	20	1	2	94	volatile	3	40	34	vs	purple	turquoise	purple	turquoise	left	right	0.7	0.30000000000000004	2	4	1.4	1.2000000000000002	1	0	0.7	0.30000000000000004	2	4	1.4	1.2000000000000002	valid	0.4832204949998413	51200	0	0	1	51200	1	51200	1	53248	0	0.7	51200	purple	turquoise	0	2	ml	2.7.3	bip	sub-20_ses-01_task-ml_proj-bip_2021-03-23-10-18-05.348859
94	20	1	2	95	volatile	3	40	35	vs	turquoise	purple	purple	turquoise	right	left	0.7	0.30000000000000004	6	6	4.199999999999998	1.8000000000000005	1	0	0.30000000000000004	0.7	6	6	1.8000000000000005	4.199999999999998	valid	0.4665631380012201	53248	0	1	1	53248	1	53248	1	53248	1	0.7	53248	purple	turquoise	0	6	ml	2.7.3	bip	sub-20_ses-01_task-ml_proj-bip_2021-03-23-10-18-05.348859
95	20	1	2	96	volatile	3	40	36	vs	turquoise	purple	purple	turquoise	right	left	0.7	0.30000000000000004	6	6	4.199999999999998	1.8000000000000005	0	1	0.30000000000000004	0.7	6	6	1.8000000000000005	4.199999999999998	invalid	0.533209479001016	53248	0	1	1	53248	1	53248	1	53248	1	0.7	53248	purple	turquoise	0	0	ml	2.7.3	bip	sub-20_ses-01_task-ml_proj-bip_2021-03-23-10-18-05.348859
96	20	1	2	97	volatile	3	40	37	vs	purple	turquoise	purple	turquoise	left	right	0.7	0.30000000000000004	6	4	4.199999999999998	1.2000000000000002	1	0	0.7	0.30000000000000004	6	4	4.199999999999998	1.2000000000000002	valid	0.7331402489999164	51200	0	0	1	51200	1	51200	1	51200	1	0.7	51200	purple	turquoise	1	6	ml	2.7.3	bip	sub-20_ses-01_task-ml_proj-bip_2021-03-23-10-18-05.348859
97	20	1	2	98	volatile	3	40	38	vs	turquoise	purple	purple	turquoise	right	left	0.7	0.30000000000000004	6	4	4.199999999999998	1.2000000000000002	0	1	0.30000000000000004	0.7	4	6	1.2000000000000002	4.199999999999998	invalid	0.5998626059990784	53248	0	1	1	53248	1	53248	1	53248	1	0.7	53248	purple	turquoise	1	0	ml	2.7.3	bip	sub-20_ses-01_task-ml_proj-bip_2021-03-23-10-18-05.348859
98	20	1	2	99	volatile	3	40	39	vs	purple	turquoise	purple	turquoise	left	right	0.7	0.30000000000000004	6	2	4.199999999999998	0.6000000000000001	0	1	0.7	0.30000000000000004	6	2	4.199999999999998	0.6000000000000001	invalid	0.516542348999792	51200	0	0	1	51200	1	51200	1	51200	1	0.7	51200	purple	turquoise	1	0	ml	2.7.3	bip	sub-20_ses-01_task-ml_proj-bip_2021-03-23-10-18-05.348859
99	20	1	2	100	volatile	3	40	40	vs	turquoise	purple	purple	turquoise	right	left	0.7	0.30000000000000004	6	2	4.199999999999998	0.6000000000000001	0	1	0.30000000000000004	0.7	2	6	0.6000000000000001	4.199999999999998	invalid	0.4998731729992869	51200	0	0	2	53248	0	53248	0	53248	0	0.7	53248	purple	turquoise	1	2	ml	2.7.3	bip	sub-20_ses-01_task-ml_proj-bip_2021-03-23-10-18-05.348859
100	20	1	3	101	volatile	4	40	1	vs	turquoise	purple	purple	turquoise	right	left	0.30000000000000004	0.7	2	2	0.6000000000000001	1.4	0	1	0.7	0.30000000000000004	2	2	1.4	0.6000000000000001	valid	1.0330595320010616	53248	0	1	1	51200	0	51200	0	53248	1	0.7	51200	turquoise	purple	1	0	ml	2.7.3	bip	sub-20_ses-01_task-ml_proj-bip_2021-03-23-10-18-05.348859
101	20	1	3	102	volatile	4	40	2	vs	turquoise	purple	purple	turquoise	right	left	0.30000000000000004	0.7	2	4	0.6000000000000001	2.8	0	1	0.7	0.30000000000000004	4	2	2.8	0.6000000000000001	valid	0.3499203720002697	51200	0	0	2	51200	1	51200	1	51200	1	0.7	51200	turquoise	purple	1	4	ml	2.7.3	bip	sub-20_ses-01_task-ml_proj-bip_2021-03-23-10-18-05.348859
102	20	1	3	103	volatile	4	40	3	vs	turquoise	purple	purple	turquoise	right	left	0.30000000000000004	0.7	4	6	1.2000000000000002	4.199999999999998	1	0	0.7	0.30000000000000004	6	4	4.199999999999998	1.2000000000000002	invalid	0.3999029160004284	51200	0	0	2	51200	1	51200	1	51200	1	0.7	51200	turquoise	purple	1	0	ml	2.7.3	bip	sub-20_ses-01_task-ml_proj-bip_2021-03-23-10-18-05.348859
103	20	1	3	104	volatile	4	40	4	vs	turquoise	purple	purple	turquoise	right	left	0.30000000000000004	0.7	10	2	3.0000000000000004	1.4	0	1	0.7	0.30000000000000004	2	10	1.4	3.0000000000000004	valid	0.4998711070002173	51200	0	0	2	53248	0	51200	1	53248	0	0.7	51200	turquoise	purple	0	2	ml	2.7.3	bip	sub-20_ses-01_task-ml_proj-bip_2021-03-23-10-18-05.348859
104	20	1	3	105	volatile	4	40	5	vs	purple	turquoise	purple	turquoise	left	right	0.30000000000000004	0.7	6	2	1.8000000000000005	1.4	1	0	0.30000000000000004	0.7	6	2	1.8000000000000005	1.4	invalid	0.6331719779991545	53248	0	1	2	51200	0	53248	1	51200	0	0.7	53248	turquoise	purple	0	0	ml	2.7.3	bip	sub-20_ses-01_task-ml_proj-bip_2021-03-23-10-18-05.348859
105	20	1	3	106	volatile	4	40	6	vs	turquoise	purple	purple	turquoise	right	left	0.30000000000000004	0.7	2	2	0.6000000000000001	1.4	0	1	0.7	0.30000000000000004	2	2	1.4	0.6000000000000001	valid	0.4332299510006124	51200	0	0	2	51200	1	51200	1	53248	0	0.7	51200	turquoise	purple	1	2	ml	2.7.3	bip	sub-20_ses-01_task-ml_proj-bip_2021-03-23-10-18-05.348859
106	20	1	3	107	volatile	4	40	7	vs	purple	turquoise	purple	turquoise	left	right	0.30000000000000004	0.7	2	4	0.6000000000000001	2.8	0	1	0.30000000000000004	0.7	2	4	0.6000000000000001	2.8	valid	0.5831949439998425	53248	0	1	2	53248	1	53248	1	53248	1	0.7	53248	turquoise	purple	1	4	ml	2.7.3	bip	sub-20_ses-01_task-ml_proj-bip_2021-03-23-10-18-05.348859
107	20	1	3	108	volatile	4	40	8	vs	purple	turquoise	purple	turquoise	left	right	0.30000000000000004	0.7	2	6	0.6000000000000001	4.199999999999998	0	1	0.30000000000000004	0.7	2	6	0.6000000000000001	4.199999999999998	valid	0.4665576360002888	53248	0	1	2	53248	1	53248	1	53248	1	0.7	53248	turquoise	purple	1	6	ml	2.7.3	bip	sub-20_ses-01_task-ml_proj-bip_2021-03-23-10-18-05.348859
108	20	1	3	109	volatile	4	40	9	vs	turquoise	purple	purple	turquoise	right	left	0.30000000000000004	0.7	2	2	0.6000000000000001	1.4	0	1	0.7	0.30000000000000004	2	2	1.4	0.6000000000000001	valid	0.3665797749999911	51200	0	0	2	51200	1	51200	1	53248	0	0.7	51200	turquoise	purple	1	2	ml	2.7.3	bip	sub-20_ses-01_task-ml_proj-bip_2021-03-23-10-18-05.348859
109	20	1	3	110	volatile	4	40	10	vs	purple	turquoise	purple	turquoise	left	right	0.30000000000000004	0.7	4	6	1.2000000000000002	4.199999999999998	0	1	0.30000000000000004	0.7	4	6	1.2000000000000002	4.199999999999998	valid	0.4332395219989849	53248	0	1	2	53248	1	53248	1	53248	1	0.7	53248	turquoise	purple	1	6	ml	2.7.3	bip	sub-20_ses-01_task-ml_proj-bip_2021-03-23-10-18-05.348859
110	20	1	3	111	volatile	4	40	11	vs	purple	turquoise	purple	turquoise	left	right	0.30000000000000004	0.7	6	2	1.8000000000000005	1.4	0	1	0.30000000000000004	0.7	6	2	1.8000000000000005	1.4	valid	0.5665346890000365	53248	0	1	2	51200	0	53248	1	51200	0	0.7	53248	turquoise	purple	0	2	ml	2.7.3	bip	sub-20_ses-01_task-ml_proj-bip_2021-03-23-10-18-05.348859
111	20	1	3	112	volatile	4	40	12	vs	purple	turquoise	purple	turquoise	left	right	0.30000000000000004	0.7	6	6	1.8000000000000005	4.199999999999998	1	0	0.30000000000000004	0.7	6	6	1.8000000000000005	4.199999999999998	invalid	0.416578048001611	53248	0	1	2	53248	1	53248	1	53248	1	0.7	53248	turquoise	purple	0	0	ml	2.7.3	bip	sub-20_ses-01_task-ml_proj-bip_2021-03-23-10-18-05.348859
112	20	1	3	113	volatile	4	40	13	vs	purple	turquoise	purple	turquoise	left	right	0.30000000000000004	0.7	6	4	1.8000000000000005	2.8	1	0	0.30000000000000004	0.7	6	4	1.8000000000000005	2.8	invalid	0.4499014610009908	53248	0	1	2	53248	1	53248	1	51200	0	0.7	53248	turquoise	purple	0	0	ml	2.7.3	bip	sub-20_ses-01_task-ml_proj-bip_2021-03-23-10-18-05.348859
113	20	1	3	114	volatile	4	40	14	vs	turquoise	purple	purple	turquoise	right	left	0.30000000000000004	0.7	4	2	1.2000000000000002	1.4	0	1	0.7	0.30000000000000004	2	4	1.4	1.2000000000000002	valid	0.5831956990004983	53248	0	1	1	51200	0	51200	0	53248	1	0.7	51200	turquoise	purple	0	0	ml	2.7.3	bip	sub-20_ses-01_task-ml_proj-bip_2021-03-23-10-18-05.348859
114	20	1	3	115	volatile	4	40	15	vs	turquoise	purple	purple	turquoise	right	left	0.30000000000000004	0.7	10	2	3.0000000000000004	1.4	1	0	0.7	0.30000000000000004	2	10	1.4	3.0000000000000004	invalid	0.3499198159988737	51200	0	0	2	53248	0	51200	1	53248	0	0.7	51200	turquoise	purple	0	0	ml	2.7.3	bip	sub-20_ses-01_task-ml_proj-bip_2021-03-23-10-18-05.348859
115	20	1	3	116	volatile	4	40	16	vs	turquoise	purple	purple	turquoise	right	left	0.30000000000000004	0.7	6	4	1.8000000000000005	2.8	0	1	0.7	0.30000000000000004	4	6	2.8	1.8000000000000005	valid	0.33326913400014746	53248	0	1	1	51200	0	51200	0	53248	1	0.7	51200	turquoise	purple	0	0	ml	2.7.3	bip	sub-20_ses-01_task-ml_proj-bip_2021-03-23-10-18-05.348859
116	20	1	3	117	volatile	4	40	17	vs	turquoise	purple	purple	turquoise	right	left	0.30000000000000004	0.7	4	2	1.2000000000000002	1.4	0	1	0.7	0.30000000000000004	2	4	1.4	1.2000000000000002	valid	0.3832457800017437	51200	0	0	2	51200	1	51200	1	53248	0	0.7	51200	turquoise	purple	0	2	ml	2.7.3	bip	sub-20_ses-01_task-ml_proj-bip_2021-03-23-10-18-05.348859
117	20	1	3	118	volatile	4	40	18	vs	turquoise	purple	purple	turquoise	right	left	0.30000000000000004	0.7	6	4	1.8000000000000005	2.8	1	0	0.7	0.30000000000000004	4	6	2.8	1.8000000000000005	invalid	0.4332324509996397	51200	0	0	2	51200	1	51200	1	53248	0	0.7	51200	turquoise	purple	0	0	ml	2.7.3	bip	sub-20_ses-01_task-ml_proj-bip_2021-03-23-10-18-05.348859
118	20	1	3	119	volatile	4	40	19	vs	purple	turquoise	purple	turquoise	left	right	0.30000000000000004	0.7	6	4	1.8000000000000005	2.8	0	1	0.30000000000000004	0.7	6	4	1.8000000000000005	2.8	valid	0.483224853000138	53248	0	1	2	53248	1	53248	1	51200	0	0.7	53248	turquoise	purple	0	4	ml	2.7.3	bip	sub-20_ses-01_task-ml_proj-bip_2021-03-23-10-18-05.348859
119	20	1	3	120	volatile	4	40	20	vs	turquoise	purple	purple	turquoise	right	left	0.30000000000000004	0.7	2	4	0.6000000000000001	2.8	0	1	0.7	0.30000000000000004	4	2	2.8	0.6000000000000001	valid	0.4665512499996112	51200	0	0	2	51200	1	51200	1	51200	1	0.7	51200	turquoise	purple	1	4	ml	2.7.3	bip	sub-20_ses-01_task-ml_proj-bip_2021-03-23-10-18-05.348859
120	20	1	3	121	volatile	4	40	21	vs	turquoise	purple	purple	turquoise	right	left	0.30000000000000004	0.7	2	6	0.6000000000000001	4.199999999999998	1	0	0.7	0.30000000000000004	6	2	4.199999999999998	0.6000000000000001	invalid	0.4832148880013847	51200	0	0	2	51200	1	51200	1	51200	1	0.7	51200	turquoise	purple	1	0	ml	2.7.3	bip	sub-20_ses-01_task-ml_proj-bip_2021-03-23-10-18-05.348859
121	20	1	3	122	volatile	4	40	22	vs	turquoise	purple	purple	turquoise	right	left	0.30000000000000004	0.7	2	10	0.6000000000000001	7.0	1	0	0.7	0.30000000000000004	10	2	7.0	0.6000000000000001	invalid	0.5165429209991999	51200	0	0	2	51200	1	51200	1	51200	1	0.7	51200	turquoise	purple	1	0	ml	2.7.3	bip	sub-20_ses-01_task-ml_proj-bip_2021-03-23-10-18-05.348859
122	20	1	3	123	volatile	4	40	23	vs	turquoise	purple	purple	turquoise	right	left	0.30000000000000004	0.7	4	2	1.2000000000000002	1.4	0	1	0.7	0.30000000000000004	2	4	1.4	1.2000000000000002	valid	0.4665628429993376	53248	0	1	1	51200	0	51200	0	53248	1	0.7	51200	turquoise	purple	0	0	ml	2.7.3	bip	sub-20_ses-01_task-ml_proj-bip_2021-03-23-10-18-05.348859
123	20	1	3	124	volatile	4	40	24	vs	turquoise	purple	purple	turquoise	right	left	0.30000000000000004	0.7	2	4	0.6000000000000001	2.8	0	1	0.7	0.30000000000000004	4	2	2.8	0.6000000000000001	valid	0.5332113330005086	53248	0	1	1	51200	0	51200	0	51200	0	0.7	51200	turquoise	purple	1	0	ml	2.7.3	bip	sub-20_ses-01_task-ml_proj-bip_2021-03-23-10-18-05.348859
124	20	1	3	125	volatile	4	40	25	vs	turquoise	purple	purple	turquoise	right	left	0.30000000000000004	0.7	6	2	1.8000000000000005	1.4	0	1	0.7	0.30000000000000004	2	6	1.4	1.8000000000000005	valid	0.3499206050000794	51200	0	0	2	53248	0	51200	1	53248	0	0.7	51200	turquoise	purple	0	2	ml	2.7.3	bip	sub-20_ses-01_task-ml_proj-bip_2021-03-23-10-18-05.348859
125	20	1	3	126	volatile	4	40	26	vs	purple	turquoise	purple	turquoise	left	right	0.30000000000000004	0.7	6	6	1.8000000000000005	4.199999999999998	0	1	0.30000000000000004	0.7	6	6	1.8000000000000005	4.199999999999998	valid	0.4665609509993374	53248	0	1	2	53248	1	53248	1	53248	1	0.7	53248	turquoise	purple	0	6	ml	2.7.3	bip	sub-20_ses-01_task-ml_proj-bip_2021-03-23-10-18-05.348859
126	20	1	3	127	volatile	4	40	27	vs	turquoise	purple	purple	turquoise	right	left	0.30000000000000004	0.7	6	2	1.8000000000000005	1.4	1	0	0.7	0.30000000000000004	2	6	1.4	1.8000000000000005	invalid	0.6831540710008994	51200	0	0	2	53248	0	51200	1	53248	0	0.7	51200	turquoise	purple	0	0	ml	2.7.3	bip	sub-20_ses-01_task-ml_proj-bip_2021-03-23-10-18-05.348859
127	20	1	3	128	volatile	4	40	28	vs	turquoise	purple	purple	turquoise	right	left	0.30000000000000004	0.7	2	10	0.6000000000000001	7.0	0	1	0.7	0.30000000000000004	10	2	7.0	0.6000000000000001	valid	0.3999063949995616	51200	0	0	2	51200	1	51200	1	51200	1	0.7	51200	turquoise	purple	1	10	ml	2.7.3	bip	sub-20_ses-01_task-ml_proj-bip_2021-03-23-10-18-05.348859
128	20	1	3	129	volatile	4	40	29	vs	purple	turquoise	purple	turquoise	left	right	0.30000000000000004	0.7	2	2	0.6000000000000001	1.4	0	1	0.30000000000000004	0.7	2	2	0.6000000000000001	1.4	valid	0.5831948139984888	53248	0	1	2	53248	1	53248	1	53248	1	0.7	53248	turquoise	purple	0	2	ml	2.7.3	bip	sub-20_ses-01_task-ml_proj-bip_2021-03-23-10-18-05.348859
129	20	1	3	130	volatile	4	40	30	vs	purple	turquoise	purple	turquoise	left	right	0.30000000000000004	0.7	10	2	3.0000000000000004	1.4	0	1	0.30000000000000004	0.7	10	2	3.0000000000000004	1.4	valid	0.6665027610015386	53248	0	1	2	51200	0	53248	1	51200	0	0.7	53248	turquoise	purple	0	2	ml	2.7.3	bip	sub-20_ses-01_task-ml_proj-bip_2021-03-23-10-18-05.348859
130	20	1	3	131	volatile	4	40	31	vs	purple	turquoise	purple	turquoise	left	right	0.30000000000000004	0.7	6	6	1.8000000000000005	4.199999999999998	0	1	0.30000000000000004	0.7	6	6	1.8000000000000005	4.199999999999998	valid	0.6165147940009774	53248	0	1	2	53248	1	53248	1	53248	1	0.7	53248	turquoise	purple	0	6	ml	2.7.3	bip	sub-20_ses-01_task-ml_proj-bip_2021-03-23-10-18-05.348859
131	20	1	3	132	volatile	4	40	32	vs	purple	turquoise	purple	turquoise	left	right	0.30000000000000004	0.7	2	10	0.6000000000000001	7.0	0	1	0.30000000000000004	0.7	2	10	0.6000000000000001	7.0	valid	0.5332032489986887	53248	0	1	2	53248	1	53248	1	53248	1	0.7	53248	turquoise	purple	1	10	ml	2.7.3	bip	sub-20_ses-01_task-ml_proj-bip_2021-03-23-10-18-05.348859
132	20	1	3	133	volatile	4	40	33	vs	purple	turquoise	purple	turquoise	left	right	0.30000000000000004	0.7	2	6	0.6000000000000001	4.199999999999998	0	1	0.30000000000000004	0.7	2	6	0.6000000000000001	4.199999999999998	valid	0.5332083960001911	53248	0	1	2	53248	1	53248	1	53248	1	0.7	53248	turquoise	purple	1	6	ml	2.7.3	bip	sub-20_ses-01_task-ml_proj-bip_2021-03-23-10-18-05.348859
133	20	1	3	134	volatile	4	40	34	vs	purple	turquoise	purple	turquoise	left	right	0.30000000000000004	0.7	4	6	1.2000000000000002	4.199999999999998	1	0	0.30000000000000004	0.7	4	6	1.2000000000000002	4.199999999999998	invalid	0.683206367000821	53248	0	1	2	53248	1	53248	1	53248	1	0.7	53248	turquoise	purple	1	0	ml	2.7.3	bip	sub-20_ses-01_task-ml_proj-bip_2021-03-23-10-18-05.348859
134	20	1	3	135	volatile	4	40	35	vs	purple	turquoise	purple	turquoise	left	right	0.30000000000000004	0.7	6	4	1.8000000000000005	2.8	0	1	0.30000000000000004	0.7	6	4	1.8000000000000005	2.8	valid	0.6498322319985164	51200	0	0	1	53248	0	53248	0	51200	1	0.7	53248	turquoise	purple	0	0	ml	2.7.3	bip	sub-20_ses-01_task-ml_proj-bip_2021-03-23-10-18-05.348859
135	20	1	3	136	volatile	4	40	36	vs	purple	turquoise	purple	turquoise	left	right	0.30000000000000004	0.7	4	2	1.2000000000000002	1.4	0	1	0.30000000000000004	0.7	4	2	1.2000000000000002	1.4	valid	0.4499024479991931	53248	0	1	2	53248	1	53248	1	51200	0	0.7	53248	turquoise	purple	0	2	ml	2.7.3	bip	sub-20_ses-01_task-ml_proj-bip_2021-03-23-10-18-05.348859
136	20	1	3	137	volatile	4	40	37	vs	turquoise	purple	purple	turquoise	right	left	0.30000000000000004	0.7	2	10	0.6000000000000001	7.0	0	1	0.7	0.30000000000000004	10	2	7.0	0.6000000000000001	valid	1.4162653450002836	51200	0	0	2	51200	1	51200	1	51200	1	0.7	51200	turquoise	purple	1	10	ml	2.7.3	bip	sub-20_ses-01_task-ml_proj-bip_2021-03-23-10-18-05.348859
137	20	1	3	138	volatile	4	40	38	vs	purple	turquoise	purple	turquoise	left	right	0.30000000000000004	0.7	2	10	0.6000000000000001	7.0	1	0	0.30000000000000004	0.7	2	10	0.6000000000000001	7.0	invalid	1.1996651929985092	51200	0	0	1	53248	0	53248	0	53248	0	0.7	53248	turquoise	purple	1	2	ml	2.7.3	bip	sub-20_ses-01_task-ml_proj-bip_2021-03-23-10-18-05.348859
138	20	1	3	139	volatile	4	40	39	vs	purple	turquoise	purple	turquoise	left	right	0.30000000000000004	0.7	6	2	1.8000000000000005	1.4	1	0	0.30000000000000004	0.7	6	2	1.8000000000000005	1.4	invalid	1.3662910759994702	53248	0	1	2	51200	0	53248	1	51200	0	0.7	53248	turquoise	purple	0	0	ml	2.7.3	bip	sub-20_ses-01_task-ml_proj-bip_2021-03-23-10-18-05.348859
139	20	1	3	140	volatile	4	40	40	vs	purple	turquoise	purple	turquoise	left	right	0.30000000000000004	0.7	6	6	1.8000000000000005	4.199999999999998	0	1	0.30000000000000004	0.7	6	6	1.8000000000000005	4.199999999999998	valid	0.44988363199990994	51200	0	0	1	53248	0	53248	0	53248	0	0.7	53248	turquoise	purple	0	0	ml	2.7.3	bip	sub-20_ses-01_task-ml_proj-bip_2021-03-23-10-18-05.348859
140	20	1	3	141	volatile	5	20	1	vs	turquoise	purple	purple	turquoise	right	left	0.7	0.30000000000000004	4	2	2.8	0.6000000000000001	1	0	0.30000000000000004	0.7	2	4	0.6000000000000001	2.8	valid	0.6998161779993097	51200	0	0	2	53248	0	53248	0	53248	0	0.7	53248	purple	turquoise	1	0	ml	2.7.3	bip	sub-20_ses-01_task-ml_proj-bip_2021-03-23-10-18-05.348859
141	20	1	3	142	volatile	5	20	2	vs	purple	turquoise	purple	turquoise	left	right	0.7	0.30000000000000004	4	6	2.8	1.8000000000000005	1	0	0.7	0.30000000000000004	4	6	2.8	1.8000000000000005	valid	0.5165478059989255	53248	0	1	2	51200	0	51200	0	53248	1	0.7	51200	purple	turquoise	0	0	ml	2.7.3	bip	sub-20_ses-01_task-ml_proj-bip_2021-03-23-10-18-05.348859
142	20	1	3	143	volatile	5	20	3	vs	turquoise	purple	purple	turquoise	right	left	0.7	0.30000000000000004	6	4	4.199999999999998	1.2000000000000002	0	1	0.30000000000000004	0.7	4	6	1.2000000000000002	4.199999999999998	invalid	0.8664326440011791	51200	0	0	2	53248	0	53248	0	53248	0	0.7	53248	purple	turquoise	1	4	ml	2.7.3	bip	sub-20_ses-01_task-ml_proj-bip_2021-03-23-10-18-05.348859
143	20	1	3	144	volatile	5	20	4	vs	turquoise	purple	purple	turquoise	right	left	0.7	0.30000000000000004	4	6	2.8	1.8000000000000005	1	0	0.30000000000000004	0.7	6	4	1.8000000000000005	2.8	valid	0.5998451710001973	51200	0	0	2	53248	0	53248	0	51200	1	0.7	53248	purple	turquoise	0	0	ml	2.7.3	bip	sub-20_ses-01_task-ml_proj-bip_2021-03-23-10-18-05.348859
144	20	1	3	145	volatile	5	20	5	vs	purple	turquoise	purple	turquoise	left	right	0.7	0.30000000000000004	2	6	1.4	1.8000000000000005	1	0	0.7	0.30000000000000004	2	6	1.4	1.8000000000000005	valid	0.7331500899999809	53248	0	1	2	53248	1	51200	0	53248	1	0.7	51200	purple	turquoise	0	0	ml	2.7.3	bip	sub-20_ses-01_task-ml_proj-bip_2021-03-23-10-18-05.348859
145	20	1	3	146	volatile	5	20	6	vs	turquoise	purple	purple	turquoise	right	left	0.7	0.30000000000000004	10	2	7.0	0.6000000000000001	1	0	0.30000000000000004	0.7	2	10	0.6000000000000001	7.0	valid	0.4665571629993792	53248	0	1	1	53248	1	53248	1	53248	1	0.7	53248	purple	turquoise	1	10	ml	2.7.3	bip	sub-20_ses-01_task-ml_proj-bip_2021-03-23-10-18-05.348859
146	20	1	3	147	volatile	5	20	7	vs	purple	turquoise	purple	turquoise	left	right	0.7	0.30000000000000004	6	2	4.199999999999998	0.6000000000000001	1	0	0.7	0.30000000000000004	6	2	4.199999999999998	0.6000000000000001	valid	0.4832120369992481	51200	0	0	1	51200	1	51200	1	51200	1	0.7	51200	purple	turquoise	1	6	ml	2.7.3	bip	sub-20_ses-01_task-ml_proj-bip_2021-03-23-10-18-05.348859
147	20	1	3	148	volatile	5	20	8	vs	turquoise	purple	purple	turquoise	right	left	0.7	0.30000000000000004	2	2	1.4	0.6000000000000001	1	0	0.30000000000000004	0.7	2	2	0.6000000000000001	1.4	valid	0.9497523739992176	53248	0	1	1	53248	1	53248	1	53248	1	0.7	53248	purple	turquoise	0	2	ml	2.7.3	bip	sub-20_ses-01_task-ml_proj-bip_2021-03-23-10-18-05.348859
148	20	1	3	149	volatile	5	20	9	vs	turquoise	purple	purple	turquoise	right	left	0.7	0.30000000000000004	4	6	2.8	1.8000000000000005	1	0	0.30000000000000004	0.7	6	4	1.8000000000000005	2.8	valid	0.5998641160003899	53248	0	1	1	53248	1	53248	1	51200	0	0.7	53248	purple	turquoise	0	4	ml	2.7.3	bip	sub-20_ses-01_task-ml_proj-bip_2021-03-23-10-18-05.348859
149	20	1	3	150	volatile	5	20	10	vs	purple	turquoise	purple	turquoise	left	right	0.7	0.30000000000000004	2	6	1.4	1.8000000000000005	1	0	0.7	0.30000000000000004	2	6	1.4	1.8000000000000005	valid	0.4998761510014447	51200	0	0	1	53248	0	51200	1	53248	0	0.7	51200	purple	turquoise	0	2	ml	2.7.3	bip	sub-20_ses-01_task-ml_proj-bip_2021-03-23-10-18-05.348859
150	20	1	4	151	volatile	5	20	11	vs	purple	turquoise	purple	turquoise	left	right	0.7	0.30000000000000004	10	2	7.0	0.6000000000000001	0	1	0.7	0.30000000000000004	10	2	7.0	0.6000000000000001	invalid	0.8331142360002559	51200	0	0	1	51200	1	51200	1	51200	1	0.7	51200	purple	turquoise	1	0	ml	2.7.3	bip	sub-20_ses-01_task-ml_proj-bip_2021-03-23-10-18-05.348859
151	20	1	4	152	volatile	5	20	12	vs	purple	turquoise	purple	turquoise	left	right	0.7	0.30000000000000004	10	2	7.0	0.6000000000000001	1	0	0.7	0.30000000000000004	10	2	7.0	0.6000000000000001	valid	0.39988731399898825	51200	0	0	1	51200	1	51200	1	51200	1	0.7	51200	purple	turquoise	1	10	ml	2.7.3	bip	sub-20_ses-01_task-ml_proj-bip_2021-03-23-10-18-05.348859
152	20	1	4	153	volatile	5	20	13	vs	purple	turquoise	purple	turquoise	left	right	0.7	0.30000000000000004	4	2	2.8	0.6000000000000001	1	0	0.7	0.30000000000000004	4	2	2.8	0.6000000000000001	valid	0.5665226380006061	51200	0	0	1	51200	1	51200	1	51200	1	0.7	51200	purple	turquoise	1	4	ml	2.7.3	bip	sub-20_ses-01_task-ml_proj-bip_2021-03-23-10-18-05.348859
153	20	1	4	154	volatile	5	20	14	vs	turquoise	purple	purple	turquoise	right	left	0.7	0.30000000000000004	4	2	2.8	0.6000000000000001	0	1	0.30000000000000004	0.7	2	4	0.6000000000000001	2.8	invalid	0.3665952700011985	53248	0	1	1	53248	1	53248	1	53248	1	0.7	53248	purple	turquoise	1	0	ml	2.7.3	bip	sub-20_ses-01_task-ml_proj-bip_2021-03-23-10-18-05.348859
154	20	1	4	155	volatile	5	20	15	vs	turquoise	purple	purple	turquoise	right	left	0.7	0.30000000000000004	6	6	4.199999999999998	1.8000000000000005	1	0	0.30000000000000004	0.7	6	6	1.8000000000000005	4.199999999999998	valid	0.3999141940003028	53248	0	1	1	53248	1	53248	1	53248	1	0.7	53248	purple	turquoise	0	6	ml	2.7.3	bip	sub-20_ses-01_task-ml_proj-bip_2021-03-23-10-18-05.348859
155	20	1	4	156	volatile	5	20	16	vs	turquoise	purple	purple	turquoise	right	left	0.7	0.30000000000000004	2	2	1.4	0.6000000000000001	1	0	0.30000000000000004	0.7	2	2	0.6000000000000001	1.4	valid	0.3832550870010891	53248	0	1	1	53248	1	53248	1	53248	1	0.7	53248	purple	turquoise	0	2	ml	2.7.3	bip	sub-20_ses-01_task-ml_proj-bip_2021-03-23-10-18-05.348859
156	20	1	4	157	volatile	5	20	17	vs	turquoise	purple	purple	turquoise	right	left	0.7	0.30000000000000004	2	6	1.4	1.8000000000000005	0	1	0.30000000000000004	0.7	6	2	1.8000000000000005	1.4	invalid	0.4332388370003173	53248	0	1	1	51200	0	53248	1	51200	0	0.7	53248	purple	turquoise	0	0	ml	2.7.3	bip	sub-20_ses-01_task-ml_proj-bip_2021-03-23-10-18-05.348859
157	20	1	4	158	volatile	5	20	18	vs	purple	turquoise	purple	turquoise	left	right	0.7	0.30000000000000004	6	6	4.199999999999998	1.8000000000000005	1	0	0.7	0.30000000000000004	6	6	4.199999999999998	1.8000000000000005	valid	0.4498916020002071	51200	0	0	1	51200	1	51200	1	53248	0	0.7	51200	purple	turquoise	1	6	ml	2.7.3	bip	sub-20_ses-01_task-ml_proj-bip_2021-03-23-10-18-05.348859
158	20	1	4	159	volatile	5	20	19	vs	purple	turquoise	purple	turquoise	left	right	0.7	0.30000000000000004	2	10	1.4	3.0000000000000004	0	1	0.7	0.30000000000000004	2	10	1.4	3.0000000000000004	invalid	0.3998998480001319	51200	0	0	1	53248	0	51200	1	53248	0	0.7	51200	purple	turquoise	0	0	ml	2.7.3	bip	sub-20_ses-01_task-ml_proj-bip_2021-03-23-10-18-05.348859
159	20	1	4	160	volatile	5	20	20	vs	purple	turquoise	purple	turquoise	left	right	0.7	0.30000000000000004	4	2	2.8	0.6000000000000001	0	1	0.7	0.30000000000000004	4	2	2.8	0.6000000000000001	invalid	0.4165672719991562	51200	0	0	1	51200	1	51200	1	51200	1	0.7	51200	purple	turquoise	1	0	ml	2.7.3	bip	sub-20_ses-01_task-ml_proj-bip_2021-03-23-10-18-05.348859
160	20	1	4	161	volatile	6	20	1	vs	turquoise	purple	purple	turquoise	right	left	0.30000000000000004	0.7	2	2	0.6000000000000001	1.4	0	1	0.7	0.30000000000000004	2	2	1.4	0.6000000000000001	valid	0.41657832200144185	53248	0	1	1	51200	0	51200	0	53248	1	0.7	51200	turquoise	purple	1	0	ml	2.7.3	bip	sub-20_ses-01_task-ml_proj-bip_2021-03-23-10-18-05.348859
161	20	1	4	162	volatile	6	20	2	vs	purple	turquoise	purple	turquoise	left	right	0.30000000000000004	0.7	6	6	1.8000000000000005	4.199999999999998	1	0	0.30000000000000004	0.7	6	6	1.8000000000000005	4.199999999999998	invalid	0.3999097879986948	51200	0	0	1	53248	0	53248	0	53248	0	0.7	53248	turquoise	purple	0	6	ml	2.7.3	bip	sub-20_ses-01_task-ml_proj-bip_2021-03-23-10-18-05.348859
162	20	1	4	163	volatile	6	20	3	vs	turquoise	purple	purple	turquoise	right	left	0.30000000000000004	0.7	10	2	3.0000000000000004	1.4	1	0	0.7	0.30000000000000004	2	10	1.4	3.0000000000000004	invalid	0.4499051220009278	53248	0	1	1	53248	1	51200	0	53248	1	0.7	51200	turquoise	purple	0	10	ml	2.7.3	bip	sub-20_ses-01_task-ml_proj-bip_2021-03-23-10-18-05.348859
163	20	1	4	164	volatile	6	20	4	vs	purple	turquoise	purple	turquoise	left	right	0.30000000000000004	0.7	2	4	0.6000000000000001	2.8	1	0	0.30000000000000004	0.7	2	4	0.6000000000000001	2.8	invalid	0.5165408320008282	51200	0	0	1	53248	0	53248	0	53248	0	0.7	53248	turquoise	purple	1	2	ml	2.7.3	bip	sub-20_ses-01_task-ml_proj-bip_2021-03-23-10-18-05.348859
164	20	1	4	165	volatile	6	20	5	vs	purple	turquoise	purple	turquoise	left	right	0.30000000000000004	0.7	6	4	1.8000000000000005	2.8	0	1	0.30000000000000004	0.7	6	4	1.8000000000000005	2.8	valid	0.41656526699989627	51200	0	0	1	53248	0	53248	0	51200	1	0.7	53248	turquoise	purple	0	0	ml	2.7.3	bip	sub-20_ses-01_task-ml_proj-bip_2021-03-23-10-18-05.348859
165	20	1	4	166	volatile	6	20	6	vs	purple	turquoise	purple	turquoise	left	right	0.30000000000000004	0.7	6	2	1.8000000000000005	1.4	0	1	0.30000000000000004	0.7	6	2	1.8000000000000005	1.4	valid	0.4165680699989025	51200	0	0	1	51200	1	53248	0	51200	1	0.7	53248	turquoise	purple	0	0	ml	2.7.3	bip	sub-20_ses-01_task-ml_proj-bip_2021-03-23-10-18-05.348859
166	20	1	4	167	volatile	6	20	7	vs	purple	turquoise	purple	turquoise	left	right	0.30000000000000004	0.7	4	2	1.2000000000000002	1.4	0	1	0.30000000000000004	0.7	4	2	1.2000000000000002	1.4	valid	0.4332208569994691	51200	0	0	1	53248	0	53248	0	51200	1	0.7	53248	turquoise	purple	0	0	ml	2.7.3	bip	sub-20_ses-01_task-ml_proj-bip_2021-03-23-10-18-05.348859
167	20	1	4	168	volatile	6	20	8	vs	turquoise	purple	purple	turquoise	right	left	0.30000000000000004	0.7	2	6	0.6000000000000001	4.199999999999998	1	0	0.7	0.30000000000000004	6	2	4.199999999999998	0.6000000000000001	invalid	0.4165572879992396	51200	0	0	2	51200	1	51200	1	51200	1	0.7	51200	turquoise	purple	1	0	ml	2.7.3	bip	sub-20_ses-01_task-ml_proj-bip_2021-03-23-10-18-05.348859
168	20	1	4	169	volatile	6	20	9	vs	purple	turquoise	purple	turquoise	left	right	0.30000000000000004	0.7	10	2	3.0000000000000004	1.4	0	1	0.30000000000000004	0.7	10	2	3.0000000000000004	1.4	valid	1.21633877900058	53248	0	1	2	51200	0	53248	1	51200	0	0.7	53248	turquoise	purple	0	2	ml	2.7.3	bip	sub-20_ses-01_task-ml_proj-bip_2021-03-23-10-18-05.348859
169	20	1	4	170	volatile	6	20	10	vs	purple	turquoise	purple	turquoise	left	right	0.30000000000000004	0.7	2	2	0.6000000000000001	1.4	0	1	0.30000000000000004	0.7	2	2	0.6000000000000001	1.4	valid	0.4165705799987336	51200	0	0	1	53248	0	53248	0	53248	0	0.7	53248	turquoise	purple	0	0	ml	2.7.3	bip	sub-20_ses-01_task-ml_proj-bip_2021-03-23-10-18-05.348859
170	20	1	4	171	volatile	6	20	11	vs	turquoise	purple	purple	turquoise	right	left	0.30000000000000004	0.7	2	10	0.6000000000000001	7.0	0	1	0.7	0.30000000000000004	10	2	7.0	0.6000000000000001	valid	0.4165646629990079	51200	0	0	2	51200	1	51200	1	51200	1	0.7	51200	turquoise	purple	1	10	ml	2.7.3	bip	sub-20_ses-01_task-ml_proj-bip_2021-03-23-10-18-05.348859
171	20	1	4	172	volatile	6	20	12	vs	turquoise	purple	purple	turquoise	right	left	0.30000000000000004	0.7	4	2	1.2000000000000002	1.4	0	1	0.7	0.30000000000000004	2	4	1.4	1.2000000000000002	valid	0.5998412689987163	51200	0	0	2	51200	1	51200	1	53248	0	0.7	51200	turquoise	purple	0	2	ml	2.7.3	bip	sub-20_ses-01_task-ml_proj-bip_2021-03-23-10-18-05.348859
172	20	1	4	173	volatile	6	20	13	vs	purple	turquoise	purple	turquoise	left	right	0.30000000000000004	0.7	4	6	1.2000000000000002	4.199999999999998	0	1	0.30000000000000004	0.7	4	6	1.2000000000000002	4.199999999999998	valid	0.6331793709996418	53248	0	1	2	53248	1	53248	1	53248	1	0.7	53248	turquoise	purple	1	6	ml	2.7.3	bip	sub-20_ses-01_task-ml_proj-bip_2021-03-23-10-18-05.348859
173	20	1	4	174	volatile	6	20	14	vs	purple	turquoise	purple	turquoise	left	right	0.30000000000000004	0.7	4	2	1.2000000000000002	1.4	0	1	0.30000000000000004	0.7	4	2	1.2000000000000002	1.4	valid	0.4832174000002851	53248	0	1	2	53248	1	53248	1	51200	0	0.7	53248	turquoise	purple	0	2	ml	2.7.3	bip	sub-20_ses-01_task-ml_proj-bip_2021-03-23-10-18-05.348859
174	20	1	4	175	volatile	6	20	15	vs	turquoise	purple	purple	turquoise	right	left	0.30000000000000004	0.7	10	2	3.0000000000000004	1.4	0	1	0.7	0.30000000000000004	2	10	1.4	3.0000000000000004	valid	0.6331730510009947	51200	0	0	2	53248	0	51200	1	53248	0	0.7	51200	turquoise	purple	0	2	ml	2.7.3	bip	sub-20_ses-01_task-ml_proj-bip_2021-03-23-10-18-05.348859
175	20	1	4	176	volatile	6	20	16	vs	purple	turquoise	purple	turquoise	left	right	0.30000000000000004	0.7	4	6	1.2000000000000002	4.199999999999998	1	0	0.30000000000000004	0.7	4	6	1.2000000000000002	4.199999999999998	invalid	0.3999128759987798	53248	0	1	2	53248	1	53248	1	53248	1	0.7	53248	turquoise	purple	1	0	ml	2.7.3	bip	sub-20_ses-01_task-ml_proj-bip_2021-03-23-10-18-05.348859
176	20	1	4	177	volatile	6	20	17	vs	turquoise	purple	purple	turquoise	right	left	0.30000000000000004	0.7	6	2	1.8000000000000005	1.4	0	1	0.7	0.30000000000000004	2	6	1.4	1.8000000000000005	valid	0.7997847360002197	51200	0	0	2	53248	0	51200	1	53248	0	0.7	51200	turquoise	purple	0	2	ml	2.7.3	bip	sub-20_ses-01_task-ml_proj-bip_2021-03-23-10-18-05.348859
177	20	1	4	178	volatile	6	20	18	vs	turquoise	purple	purple	turquoise	right	left	0.30000000000000004	0.7	4	6	1.2000000000000002	4.199999999999998	0	1	0.7	0.30000000000000004	6	4	4.199999999999998	1.2000000000000002	valid	0.5998475169999438	51200	0	0	2	51200	1	51200	1	51200	1	0.7	51200	turquoise	purple	1	6	ml	2.7.3	bip	sub-20_ses-01_task-ml_proj-bip_2021-03-23-10-18-05.348859
178	20	1	4	179	volatile	6	20	19	vs	turquoise	purple	purple	turquoise	right	left	0.30000000000000004	0.7	6	6	1.8000000000000005	4.199999999999998	1	0	0.7	0.30000000000000004	6	6	4.199999999999998	1.8000000000000005	invalid	0.6331711269995141	51200	0	0	2	51200	1	51200	1	53248	0	0.7	51200	turquoise	purple	1	0	ml	2.7.3	bip	sub-20_ses-01_task-ml_proj-bip_2021-03-23-10-18-05.348859
179	20	1	4	180	volatile	6	20	20	vs	turquoise	purple	purple	turquoise	right	left	0.30000000000000004	0.7	6	2	1.8000000000000005	1.4	0	1	0.7	0.30000000000000004	2	6	1.4	1.8000000000000005	valid	0.5331980290011415	51200	0	0	2	53248	0	51200	1	53248	0	0.7	51200	turquoise	purple	0	2	ml	2.7.3	bip	sub-20_ses-01_task-ml_proj-bip_2021-03-23-10-18-05.348859
180	20	1	4	181	volatile	7	20	1	vs	purple	turquoise	purple	turquoise	left	right	0.7	0.30000000000000004	6	2	4.199999999999998	0.6000000000000001	1	0	0.7	0.30000000000000004	6	2	4.199999999999998	0.6000000000000001	valid	0.5831950989995676	53248	0	1	2	51200	0	51200	0	51200	0	0.7	51200	purple	turquoise	1	0	ml	2.7.3	bip	sub-20_ses-01_task-ml_proj-bip_2021-03-23-10-18-05.348859
181	20	1	4	182	volatile	7	20	2	vs	purple	turquoise	purple	turquoise	left	right	0.7	0.30000000000000004	2	6	1.4	1.8000000000000005	1	0	0.7	0.30000000000000004	2	6	1.4	1.8000000000000005	valid	0.6331797479997476	53248	0	1	2	53248	1	51200	0	53248	1	0.7	51200	purple	turquoise	0	0	ml	2.7.3	bip	sub-20_ses-01_task-ml_proj-bip_2021-03-23-10-18-05.348859
182	20	1	4	183	volatile	7	20	3	vs	turquoise	purple	purple	turquoise	right	left	0.7	0.30000000000000004	2	2	1.4	0.6000000000000001	1	0	0.30000000000000004	0.7	2	2	0.6000000000000001	1.4	valid	0.5665153569989343	51200	0	0	2	53248	0	53248	0	53248	0	0.7	53248	purple	turquoise	0	0	ml	2.7.3	bip	sub-20_ses-01_task-ml_proj-bip_2021-03-23-10-18-05.348859
183	20	1	4	184	volatile	7	20	4	vs	purple	turquoise	purple	turquoise	left	right	0.7	0.30000000000000004	6	4	4.199999999999998	1.2000000000000002	0	1	0.7	0.30000000000000004	6	4	4.199999999999998	1.2000000000000002	invalid	0.4332282169998507	51200	0	0	1	51200	1	51200	1	51200	1	0.7	51200	purple	turquoise	1	0	ml	2.7.3	bip	sub-20_ses-01_task-ml_proj-bip_2021-03-23-10-18-05.348859
184	20	1	4	185	volatile	7	20	5	vs	turquoise	purple	purple	turquoise	right	left	0.7	0.30000000000000004	4	6	2.8	1.8000000000000005	1	0	0.30000000000000004	0.7	6	4	1.8000000000000005	2.8	valid	0.3665839929999493	53248	0	1	1	53248	1	53248	1	51200	0	0.7	53248	purple	turquoise	0	4	ml	2.7.3	bip	sub-20_ses-01_task-ml_proj-bip_2021-03-23-10-18-05.348859
185	20	1	4	186	volatile	7	20	6	vs	turquoise	purple	purple	turquoise	right	left	0.7	0.30000000000000004	10	2	7.0	0.6000000000000001	1	0	0.30000000000000004	0.7	2	10	0.6000000000000001	7.0	valid	0.8497805629995128	53248	0	1	1	53248	1	53248	1	53248	1	0.7	53248	purple	turquoise	1	10	ml	2.7.3	bip	sub-20_ses-01_task-ml_proj-bip_2021-03-23-10-18-05.348859
186	20	1	4	187	volatile	7	20	7	vs	turquoise	purple	purple	turquoise	right	left	0.7	0.30000000000000004	10	2	7.0	0.6000000000000001	0	1	0.30000000000000004	0.7	2	10	0.6000000000000001	7.0	invalid	0.5831930690001172	53248	0	1	1	53248	1	53248	1	53248	1	0.7	53248	purple	turquoise	1	0	ml	2.7.3	bip	sub-20_ses-01_task-ml_proj-bip_2021-03-23-10-18-05.348859
187	20	1	4	188	volatile	7	20	8	vs	purple	turquoise	purple	turquoise	left	right	0.7	0.30000000000000004	2	6	1.4	1.8000000000000005	1	0	0.7	0.30000000000000004	2	6	1.4	1.8000000000000005	valid	0.56654824799989	51200	0	0	1	53248	0	51200	1	53248	0	0.7	51200	purple	turquoise	0	2	ml	2.7.3	bip	sub-20_ses-01_task-ml_proj-bip_2021-03-23-10-18-05.348859
188	20	1	4	189	volatile	7	20	9	vs	turquoise	purple	purple	turquoise	right	left	0.7	0.30000000000000004	2	10	1.4	3.0000000000000004	1	0	0.30000000000000004	0.7	10	2	3.0000000000000004	1.4	valid	0.3999154179982725	53248	0	1	1	51200	0	53248	1	51200	0	0.7	53248	purple	turquoise	0	2	ml	2.7.3	bip	sub-20_ses-01_task-ml_proj-bip_2021-03-23-10-18-05.348859
189	20	1	4	190	volatile	7	20	10	vs	turquoise	purple	purple	turquoise	right	left	0.7	0.30000000000000004	2	10	1.4	3.0000000000000004	1	0	0.30000000000000004	0.7	10	2	3.0000000000000004	1.4	valid	0.666510818999086	53248	0	1	1	51200	0	53248	1	51200	0	0.7	53248	purple	turquoise	0	2	ml	2.7.3	bip	sub-20_ses-01_task-ml_proj-bip_2021-03-23-10-18-05.348859
190	20	1	4	191	volatile	7	20	11	vs	purple	turquoise	purple	turquoise	left	right	0.7	0.30000000000000004	4	6	2.8	1.8000000000000005	1	0	0.7	0.30000000000000004	4	6	2.8	1.8000000000000005	valid	0.5831866699991224	51200	0	0	1	51200	1	51200	1	53248	0	0.7	51200	purple	turquoise	0	4	ml	2.7.3	bip	sub-20_ses-01_task-ml_proj-bip_2021-03-23-10-18-05.348859
191	20	1	4	192	volatile	7	20	12	vs	purple	turquoise	purple	turquoise	left	right	0.7	0.30000000000000004	6	6	4.199999999999998	1.8000000000000005	1	0	0.7	0.30000000000000004	6	6	4.199999999999998	1.8000000000000005	valid	0.5331955929996184	51200	0	0	1	51200	1	51200	1	53248	0	0.7	51200	purple	turquoise	1	6	ml	2.7.3	bip	sub-20_ses-01_task-ml_proj-bip_2021-03-23-10-18-05.348859
192	20	1	4	193	volatile	7	20	13	vs	purple	turquoise	purple	turquoise	left	right	0.7	0.30000000000000004	2	4	1.4	1.2000000000000002	1	0	0.7	0.30000000000000004	2	4	1.4	1.2000000000000002	valid	0.9164139669992436	51200	0	0	1	51200	1	51200	1	53248	0	0.7	51200	purple	turquoise	0	2	ml	2.7.3	bip	sub-20_ses-01_task-ml_proj-bip_2021-03-23-10-18-05.348859
193	20	1	4	194	volatile	7	20	14	vs	turquoise	purple	purple	turquoise	right	left	0.7	0.30000000000000004	6	4	4.199999999999998	1.2000000000000002	1	0	0.30000000000000004	0.7	4	6	1.2000000000000002	4.199999999999998	valid	0.8664408109998476	53248	0	1	1	53248	1	53248	1	53248	1	0.7	53248	purple	turquoise	1	6	ml	2.7.3	bip	sub-20_ses-01_task-ml_proj-bip_2021-03-23-10-18-05.348859
194	20	1	4	195	volatile	7	20	15	vs	purple	turquoise	purple	turquoise	left	right	0.7	0.30000000000000004	6	2	4.199999999999998	0.6000000000000001	0	1	0.7	0.30000000000000004	6	2	4.199999999999998	0.6000000000000001	invalid	0.7331308370012266	51200	0	0	1	51200	1	51200	1	51200	1	0.7	51200	purple	turquoise	1	0	ml	2.7.3	bip	sub-20_ses-01_task-ml_proj-bip_2021-03-23-10-18-05.348859
195	20	1	4	196	volatile	7	20	16	vs	turquoise	purple	purple	turquoise	right	left	0.7	0.30000000000000004	2	4	1.4	1.2000000000000002	0	1	0.30000000000000004	0.7	4	2	1.2000000000000002	1.4	invalid	0.8331156750009541	53248	0	1	1	53248	1	53248	1	51200	0	0.7	53248	purple	turquoise	0	0	ml	2.7.3	bip	sub-20_ses-01_task-ml_proj-bip_2021-03-23-10-18-05.348859
196	20	1	4	197	volatile	7	20	17	vs	purple	turquoise	purple	turquoise	left	right	0.7	0.30000000000000004	6	6	4.199999999999998	1.8000000000000005	0	1	0.7	0.30000000000000004	6	6	4.199999999999998	1.8000000000000005	invalid	0.699812214999838	51200	0	0	1	51200	1	51200	1	53248	0	0.7	51200	purple	turquoise	1	0	ml	2.7.3	bip	sub-20_ses-01_task-ml_proj-bip_2021-03-23-10-18-05.348859
197	20	1	4	198	volatile	7	20	18	vs	turquoise	purple	purple	turquoise	right	left	0.7	0.30000000000000004	2	4	1.4	1.2000000000000002	1	0	0.30000000000000004	0.7	4	2	1.2000000000000002	1.4	valid	0.6165163270015911	53248	0	1	1	53248	1	53248	1	51200	0	0.7	53248	purple	turquoise	0	2	ml	2.7.3	bip	sub-20_ses-01_task-ml_proj-bip_2021-03-23-10-18-05.348859
198	20	1	4	199	volatile	7	20	19	vs	purple	turquoise	purple	turquoise	left	right	0.7	0.30000000000000004	2	2	1.4	0.6000000000000001	1	0	0.7	0.30000000000000004	2	2	1.4	0.6000000000000001	valid	0.5498554619989591	51200	0	0	1	51200	1	51200	1	53248	0	0.7	51200	purple	turquoise	1	2	ml	2.7.3	bip	sub-20_ses-01_task-ml_proj-bip_2021-03-23-10-18-05.348859
199	20	1	4	200	volatile	7	20	20	vs	turquoise	purple	purple	turquoise	right	left	0.7	0.30000000000000004	4	2	2.8	0.6000000000000001	0	1	0.30000000000000004	0.7	2	4	0.6000000000000001	2.8	invalid	0.6498409849991731	53248	0	1	1	53248	1	53248	1	53248	1	0.7	53248	purple	turquoise	1	0	ml	2.7.3	bip	sub-20_ses-01_task-ml_proj-bip_2021-03-23-10-18-05.348859
200	20	1	5	201	stable	8	200	1	vs	purple	turquoise	purple	turquoise	left	right	0.30000000000000004	0.7	2	4	0.6000000000000001	2.8	0	1	0.30000000000000004	0.7	2	4	0.6000000000000001	2.8	valid	0.8164450370004488	51200	0	0	1	53248	0	53248	0	53248	0	0.7	53248	turquoise	purple	1	0	ml	2.7.3	bip	sub-20_ses-01_task-ml_proj-bip_2021-03-23-10-18-05.348859
201	20	1	5	202	stable	8	200	2	vs	purple	turquoise	purple	turquoise	left	right	0.30000000000000004	0.7	4	2	1.2000000000000002	1.4	0	1	0.30000000000000004	0.7	4	2	1.2000000000000002	1.4	valid	0.9664023170007568	51200	0	0	1	53248	0	53248	0	51200	1	0.7	53248	turquoise	purple	0	0	ml	2.7.3	bip	sub-20_ses-01_task-ml_proj-bip_2021-03-23-10-18-05.348859
202	20	1	5	203	stable	8	200	3	vs	turquoise	purple	purple	turquoise	right	left	0.30000000000000004	0.7	2	10	0.6000000000000001	7.0	0	1	0.7	0.30000000000000004	10	2	7.0	0.6000000000000001	valid	0.8664333429987892	51200	0	0	2	51200	1	51200	1	51200	1	0.7	51200	turquoise	purple	1	10	ml	2.7.3	bip	sub-20_ses-01_task-ml_proj-bip_2021-03-23-10-18-05.348859
203	20	1	5	204	stable	8	200	4	vs	purple	turquoise	purple	turquoise	left	right	0.30000000000000004	0.7	6	2	1.8000000000000005	1.4	0	1	0.30000000000000004	0.7	6	2	1.8000000000000005	1.4	valid	0.5498722290012665	53248	0	1	2	51200	0	53248	1	51200	0	0.7	53248	turquoise	purple	0	2	ml	2.7.3	bip	sub-20_ses-01_task-ml_proj-bip_2021-03-23-10-18-05.348859
204	20	1	5	205	stable	8	200	5	vs	purple	turquoise	purple	turquoise	left	right	0.30000000000000004	0.7	4	2	1.2000000000000002	1.4	0	1	0.30000000000000004	0.7	4	2	1.2000000000000002	1.4	valid	0.4998810300003242	53248	0	1	2	53248	1	53248	1	51200	0	0.7	53248	turquoise	purple	0	2	ml	2.7.3	bip	sub-20_ses-01_task-ml_proj-bip_2021-03-23-10-18-05.348859
205	20	1	5	206	stable	8	200	6	vs	turquoise	purple	purple	turquoise	right	left	0.30000000000000004	0.7	6	2	1.8000000000000005	1.4	0	1	0.7	0.30000000000000004	2	6	1.4	1.8000000000000005	valid	0.4498933239992766	51200	0	0	2	53248	0	51200	1	53248	0	0.7	51200	turquoise	purple	0	2	ml	2.7.3	bip	sub-20_ses-01_task-ml_proj-bip_2021-03-23-10-18-05.348859
206	20	1	5	207	stable	8	200	7	vs	turquoise	purple	purple	turquoise	right	left	0.30000000000000004	0.7	6	6	1.8000000000000005	4.199999999999998	0	1	0.7	0.30000000000000004	6	6	4.199999999999998	1.8000000000000005	valid	0.5165314229998329	51200	0	0	2	51200	1	51200	1	53248	0	0.7	51200	turquoise	purple	1	6	ml	2.7.3	bip	sub-20_ses-01_task-ml_proj-bip_2021-03-23-10-18-05.348859
207	20	1	5	208	stable	8	200	8	vs	purple	turquoise	purple	turquoise	left	right	0.30000000000000004	0.7	2	2	0.6000000000000001	1.4	0	1	0.30000000000000004	0.7	2	2	0.6000000000000001	1.4	valid	0.4998876849986118	53248	0	1	2	53248	1	53248	1	53248	1	0.7	53248	turquoise	purple	0	2	ml	2.7.3	bip	sub-20_ses-01_task-ml_proj-bip_2021-03-23-10-18-05.348859
208	20	1	5	209	stable	8	200	9	vs	purple	turquoise	purple	turquoise	left	right	0.30000000000000004	0.7	4	6	1.2000000000000002	4.199999999999998	0	1	0.30000000000000004	0.7	4	6	1.2000000000000002	4.199999999999998	valid	0.5332080770003813	53248	0	1	2	53248	1	53248	1	53248	1	0.7	53248	turquoise	purple	1	6	ml	2.7.3	bip	sub-20_ses-01_task-ml_proj-bip_2021-03-23-10-18-05.348859
209	20	1	5	210	stable	8	200	10	vs	turquoise	purple	purple	turquoise	right	left	0.30000000000000004	0.7	4	6	1.2000000000000002	4.199999999999998	0	1	0.7	0.30000000000000004	6	4	4.199999999999998	1.2000000000000002	valid	0.5331995680007822	51200	0	0	2	51200	1	51200	1	51200	1	0.7	51200	turquoise	purple	1	6	ml	2.7.3	bip	sub-20_ses-01_task-ml_proj-bip_2021-03-23-10-18-05.348859
210	20	1	5	211	stable	8	200	11	vs	purple	turquoise	purple	turquoise	left	right	0.30000000000000004	0.7	6	2	1.8000000000000005	1.4	0	1	0.30000000000000004	0.7	6	2	1.8000000000000005	1.4	valid	0.4665635620003741	53248	0	1	2	51200	0	53248	1	51200	0	0.7	53248	turquoise	purple	0	2	ml	2.7.3	bip	sub-20_ses-01_task-ml_proj-bip_2021-03-23-10-18-05.348859
211	20	1	5	212	stable	8	200	12	vs	purple	turquoise	purple	turquoise	left	right	0.30000000000000004	0.7	6	6	1.8000000000000005	4.199999999999998	0	1	0.30000000000000004	0.7	6	6	1.8000000000000005	4.199999999999998	valid	0.4332398520000425	53248	0	1	2	53248	1	53248	1	53248	1	0.7	53248	turquoise	purple	0	6	ml	2.7.3	bip	sub-20_ses-01_task-ml_proj-bip_2021-03-23-10-18-05.348859
212	20	1	5	213	stable	8	200	13	vs	purple	turquoise	purple	turquoise	left	right	0.30000000000000004	0.7	4	6	1.2000000000000002	4.199999999999998	1	0	0.30000000000000004	0.7	4	6	1.2000000000000002	4.199999999999998	invalid	0.6498399869997229	53248	0	1	2	53248	1	53248	1	53248	1	0.7	53248	turquoise	purple	1	0	ml	2.7.3	bip	sub-20_ses-01_task-ml_proj-bip_2021-03-23-10-18-05.348859
213	20	1	5	214	stable	8	200	14	vs	turquoise	purple	purple	turquoise	right	left	0.30000000000000004	0.7	2	6	0.6000000000000001	4.199999999999998	0	1	0.7	0.30000000000000004	6	2	4.199999999999998	0.6000000000000001	valid	0.6664973229999305	51200	0	0	2	51200	1	51200	1	51200	1	0.7	51200	turquoise	purple	1	6	ml	2.7.3	bip	sub-20_ses-01_task-ml_proj-bip_2021-03-23-10-18-05.348859
214	20	1	5	215	stable	8	200	15	vs	purple	turquoise	purple	turquoise	left	right	0.30000000000000004	0.7	2	10	0.6000000000000001	7.0	0	1	0.30000000000000004	0.7	2	10	0.6000000000000001	7.0	valid	0.5498662770005467	53248	0	1	2	53248	1	53248	1	53248	1	0.7	53248	turquoise	purple	1	10	ml	2.7.3	bip	sub-20_ses-01_task-ml_proj-bip_2021-03-23-10-18-05.348859
215	20	1	5	216	stable	8	200	16	vs	turquoise	purple	purple	turquoise	right	left	0.30000000000000004	0.7	6	4	1.8000000000000005	2.8	0	1	0.7	0.30000000000000004	4	6	2.8	1.8000000000000005	valid	0.7164767410013155	51200	0	0	2	51200	1	51200	1	53248	0	0.7	51200	turquoise	purple	0	4	ml	2.7.3	bip	sub-20_ses-01_task-ml_proj-bip_2021-03-23-10-18-05.348859
216	20	1	5	217	stable	8	200	17	vs	turquoise	purple	purple	turquoise	right	left	0.30000000000000004	0.7	4	6	1.2000000000000002	4.199999999999998	0	1	0.7	0.30000000000000004	6	4	4.199999999999998	1.2000000000000002	valid	0.6165068310001516	51200	0	0	2	51200	1	51200	1	51200	1	0.7	51200	turquoise	purple	1	6	ml	2.7.3	bip	sub-20_ses-01_task-ml_proj-bip_2021-03-23-10-18-05.348859
217	20	1	5	218	stable	8	200	18	vs	turquoise	purple	purple	turquoise	right	left	0.30000000000000004	0.7	6	4	1.8000000000000005	2.8	0	1	0.7	0.30000000000000004	4	6	2.8	1.8000000000000005	valid	0.5331967049987725	51200	0	0	2	51200	1	51200	1	53248	0	0.7	51200	turquoise	purple	0	4	ml	2.7.3	bip	sub-20_ses-01_task-ml_proj-bip_2021-03-23-10-18-05.348859
218	20	1	5	219	stable	8	200	19	vs	purple	turquoise	purple	turquoise	left	right	0.30000000000000004	0.7	10	2	3.0000000000000004	1.4	1	0	0.30000000000000004	0.7	10	2	3.0000000000000004	1.4	invalid	0.5498741810006322	53248	0	1	2	51200	0	53248	1	51200	0	0.7	53248	turquoise	purple	0	0	ml	2.7.3	bip	sub-20_ses-01_task-ml_proj-bip_2021-03-23-10-18-05.348859
219	20	1	5	220	stable	8	200	20	vs	turquoise	purple	purple	turquoise	right	left	0.30000000000000004	0.7	10	2	3.0000000000000004	1.4	1	0	0.7	0.30000000000000004	2	10	1.4	3.0000000000000004	invalid	0.533199000001332	51200	0	0	2	53248	0	51200	1	53248	0	0.7	51200	turquoise	purple	0	0	ml	2.7.3	bip	sub-20_ses-01_task-ml_proj-bip_2021-03-23-10-18-05.348859
220	20	1	5	221	stable	8	200	21	vs	purple	turquoise	purple	turquoise	left	right	0.30000000000000004	0.7	6	2	1.8000000000000005	1.4	0	1	0.30000000000000004	0.7	6	2	1.8000000000000005	1.4	valid	0.7331378639992181	51200	0	0	1	51200	1	53248	0	51200	1	0.7	53248	turquoise	purple	0	0	ml	2.7.3	bip	sub-20_ses-01_task-ml_proj-bip_2021-03-23-10-18-05.348859
221	20	1	5	222	stable	8	200	22	vs	purple	turquoise	purple	turquoise	left	right	0.30000000000000004	0.7	6	6	1.8000000000000005	4.199999999999998	0	1	0.30000000000000004	0.7	6	6	1.8000000000000005	4.199999999999998	valid	0.4998859679999441	53248	0	1	2	53248	1	53248	1	53248	1	0.7	53248	turquoise	purple	0	6	ml	2.7.3	bip	sub-20_ses-01_task-ml_proj-bip_2021-03-23-10-18-05.348859
222	20	1	5	223	stable	8	200	23	vs	turquoise	purple	purple	turquoise	right	left	0.30000000000000004	0.7	2	4	0.6000000000000001	2.8	1	0	0.7	0.30000000000000004	4	2	2.8	0.6000000000000001	invalid	0.5498526730007143	51200	0	0	2	51200	1	51200	1	51200	1	0.7	51200	turquoise	purple	1	0	ml	2.7.3	bip	sub-20_ses-01_task-ml_proj-bip_2021-03-23-10-18-05.348859
223	20	1	5	224	stable	8	200	24	vs	purple	turquoise	purple	turquoise	left	right	0.30000000000000004	0.7	2	2	0.6000000000000001	1.4	0	1	0.30000000000000004	0.7	2	2	0.6000000000000001	1.4	valid	0.4665512899991882	51200	0	0	1	53248	0	53248	0	53248	0	0.7	53248	turquoise	purple	0	0	ml	2.7.3	bip	sub-20_ses-01_task-ml_proj-bip_2021-03-23-10-18-05.348859
224	20	1	5	225	stable	8	200	25	vs	turquoise	purple	purple	turquoise	right	left	0.30000000000000004	0.7	6	6	1.8000000000000005	4.199999999999998	0	1	0.7	0.30000000000000004	6	6	4.199999999999998	1.8000000000000005	valid	0.4998730370007252	51200	0	0	2	51200	1	51200	1	53248	0	0.7	51200	turquoise	purple	1	6	ml	2.7.3	bip	sub-20_ses-01_task-ml_proj-bip_2021-03-23-10-18-05.348859
225	20	1	5	226	stable	8	200	26	vs	purple	turquoise	purple	turquoise	left	right	0.30000000000000004	0.7	6	2	1.8000000000000005	1.4	1	0	0.30000000000000004	0.7	6	2	1.8000000000000005	1.4	invalid	0.6831478299991431	53248	0	1	2	51200	0	53248	1	51200	0	0.7	53248	turquoise	purple	0	0	ml	2.7.3	bip	sub-20_ses-01_task-ml_proj-bip_2021-03-23-10-18-05.348859
226	20	1	5	227	stable	8	200	27	vs	purple	turquoise	purple	turquoise	left	right	0.30000000000000004	0.7	2	6	0.6000000000000001	4.199999999999998	0	1	0.30000000000000004	0.7	2	6	0.6000000000000001	4.199999999999998	valid	0.6165168169991375	53248	0	1	2	53248	1	53248	1	53248	1	0.7	53248	turquoise	purple	1	6	ml	2.7.3	bip	sub-20_ses-01_task-ml_proj-bip_2021-03-23-10-18-05.348859
227	20	1	5	228	stable	8	200	28	vs	purple	turquoise	purple	turquoise	left	right	0.30000000000000004	0.7	10	2	3.0000000000000004	1.4	0	1	0.30000000000000004	0.7	10	2	3.0000000000000004	1.4	valid	0.6664966929984075	53248	0	1	2	51200	0	53248	1	51200	0	0.7	53248	turquoise	purple	0	2	ml	2.7.3	bip	sub-20_ses-01_task-ml_proj-bip_2021-03-23-10-18-05.348859
228	20	1	5	229	stable	8	200	29	vs	purple	turquoise	purple	turquoise	left	right	0.30000000000000004	0.7	4	6	1.2000000000000002	4.199999999999998	0	1	0.30000000000000004	0.7	4	6	1.2000000000000002	4.199999999999998	valid	0.7498196060005284	53248	0	1	2	53248	1	53248	1	53248	1	0.7	53248	turquoise	purple	1	6	ml	2.7.3	bip	sub-20_ses-01_task-ml_proj-bip_2021-03-23-10-18-05.348859
229	20	1	5	230	stable	8	200	30	vs	turquoise	purple	purple	turquoise	right	left	0.30000000000000004	0.7	6	2	1.8000000000000005	1.4	1	0	0.7	0.30000000000000004	2	6	1.4	1.8000000000000005	invalid	0.5831783649991849	51200	0	0	2	53248	0	51200	1	53248	0	0.7	51200	turquoise	purple	0	0	ml	2.7.3	bip	sub-20_ses-01_task-ml_proj-bip_2021-03-23-10-18-05.348859
230	20	1	5	231	stable	8	200	31	vs	purple	turquoise	purple	turquoise	left	right	0.30000000000000004	0.7	2	6	0.6000000000000001	4.199999999999998	0	1	0.30000000000000004	0.7	2	6	0.6000000000000001	4.199999999999998	valid	0.4998940730001778	53248	0	1	2	53248	1	53248	1	53248	1	0.7	53248	turquoise	purple	1	6	ml	2.7.3	bip	sub-20_ses-01_task-ml_proj-bip_2021-03-23-10-18-05.348859
231	20	1	5	232	stable	8	200	32	vs	purple	turquoise	purple	turquoise	left	right	0.30000000000000004	0.7	2	4	0.6000000000000001	2.8	1	0	0.30000000000000004	0.7	2	4	0.6000000000000001	2.8	invalid	0.6165246309992654	53248	0	1	2	53248	1	53248	1	53248	1	0.7	53248	turquoise	purple	1	0	ml	2.7.3	bip	sub-20_ses-01_task-ml_proj-bip_2021-03-23-10-18-05.348859
232	20	1	5	233	stable	8	200	33	vs	purple	turquoise	purple	turquoise	left	right	0.30000000000000004	0.7	6	4	1.8000000000000005	2.8	0	1	0.30000000000000004	0.7	6	4	1.8000000000000005	2.8	valid	0.7831353149995266	53248	0	1	2	53248	1	53248	1	51200	0	0.7	53248	turquoise	purple	0	4	ml	2.7.3	bip	sub-20_ses-01_task-ml_proj-bip_2021-03-23-10-18-05.348859
233	20	1	5	234	stable	8	200	34	vs	turquoise	purple	purple	turquoise	right	left	0.30000000000000004	0.7	6	2	1.8000000000000005	1.4	1	0	0.7	0.30000000000000004	2	6	1.4	1.8000000000000005	invalid	0.5998528910004097	51200	0	0	2	53248	0	51200	1	53248	0	0.7	51200	turquoise	purple	0	0	ml	2.7.3	bip	sub-20_ses-01_task-ml_proj-bip_2021-03-23-10-18-05.348859
234	20	1	5	235	stable	8	200	35	vs	turquoise	purple	purple	turquoise	right	left	0.30000000000000004	0.7	2	6	0.6000000000000001	4.199999999999998	0	1	0.7	0.30000000000000004	6	2	4.199999999999998	0.6000000000000001	valid	0.6331684489996405	51200	0	0	2	51200	1	51200	1	51200	1	0.7	51200	turquoise	purple	1	6	ml	2.7.3	bip	sub-20_ses-01_task-ml_proj-bip_2021-03-23-10-18-05.348859
235	20	1	5	236	stable	8	200	36	vs	turquoise	purple	purple	turquoise	right	left	0.30000000000000004	0.7	6	6	1.8000000000000005	4.199999999999998	0	1	0.7	0.30000000000000004	6	6	4.199999999999998	1.8000000000000005	valid	0.7997779039997113	51200	0	0	2	51200	1	51200	1	53248	0	0.7	51200	turquoise	purple	1	6	ml	2.7.3	bip	sub-20_ses-01_task-ml_proj-bip_2021-03-23-10-18-05.348859
236	20	1	5	237	stable	8	200	37	vs	purple	turquoise	purple	turquoise	left	right	0.30000000000000004	0.7	4	6	1.2000000000000002	4.199999999999998	0	1	0.30000000000000004	0.7	4	6	1.2000000000000002	4.199999999999998	valid	0.8664439389995096	53248	0	1	2	53248	1	53248	1	53248	1	0.7	53248	turquoise	purple	1	6	ml	2.7.3	bip	sub-20_ses-01_task-ml_proj-bip_2021-03-23-10-18-05.348859
237	20	1	5	238	stable	8	200	38	vs	purple	turquoise	purple	turquoise	left	right	0.30000000000000004	0.7	2	10	0.6000000000000001	7.0	1	0	0.30000000000000004	0.7	2	10	0.6000000000000001	7.0	invalid	0.9830635660000552	51200	0	0	1	53248	0	53248	0	53248	0	0.7	53248	turquoise	purple	1	2	ml	2.7.3	bip	sub-20_ses-01_task-ml_proj-bip_2021-03-23-10-18-05.348859
238	20	1	5	239	stable	8	200	39	vs	turquoise	purple	purple	turquoise	right	left	0.30000000000000004	0.7	4	2	1.2000000000000002	1.4	0	1	0.7	0.30000000000000004	2	4	1.4	1.2000000000000002	valid	0.866438194998409	51200	0	0	2	51200	1	51200	1	53248	0	0.7	51200	turquoise	purple	0	2	ml	2.7.3	bip	sub-20_ses-01_task-ml_proj-bip_2021-03-23-10-18-05.348859
239	20	1	5	240	stable	8	200	40	vs	purple	turquoise	purple	turquoise	left	right	0.30000000000000004	0.7	2	6	0.6000000000000001	4.199999999999998	1	0	0.30000000000000004	0.7	2	6	0.6000000000000001	4.199999999999998	invalid	0.6998247600004106	53248	0	1	2	53248	1	53248	1	53248	1	0.7	53248	turquoise	purple	1	0	ml	2.7.3	bip	sub-20_ses-01_task-ml_proj-bip_2021-03-23-10-18-05.348859
240	20	1	5	241	stable	8	200	41	vs	purple	turquoise	purple	turquoise	left	right	0.30000000000000004	0.7	2	6	0.6000000000000001	4.199999999999998	0	1	0.30000000000000004	0.7	2	6	0.6000000000000001	4.199999999999998	valid	1.1830177259998893	53248	0	1	2	53248	1	53248	1	53248	1	0.7	53248	turquoise	purple	1	6	ml	2.7.3	bip	sub-20_ses-01_task-ml_proj-bip_2021-03-23-10-18-05.348859
241	20	1	5	242	stable	8	200	42	vs	turquoise	purple	purple	turquoise	right	left	0.30000000000000004	0.7	2	4	0.6000000000000001	2.8	0	1	0.7	0.30000000000000004	4	2	2.8	0.6000000000000001	valid	0.8497693480003363	51200	0	0	2	51200	1	51200	1	51200	1	0.7	51200	turquoise	purple	1	4	ml	2.7.3	bip	sub-20_ses-01_task-ml_proj-bip_2021-03-23-10-18-05.348859
242	20	1	5	243	stable	8	200	43	vs	turquoise	purple	purple	turquoise	right	left	0.30000000000000004	0.7	6	4	1.8000000000000005	2.8	1	0	0.7	0.30000000000000004	4	6	2.8	1.8000000000000005	invalid	0.6831559099991864	51200	0	0	2	51200	1	51200	1	53248	0	0.7	51200	turquoise	purple	0	0	ml	2.7.3	bip	sub-20_ses-01_task-ml_proj-bip_2021-03-23-10-18-05.348859
243	20	1	5	244	stable	8	200	44	vs	turquoise	purple	purple	turquoise	right	left	0.30000000000000004	0.7	2	2	0.6000000000000001	1.4	0	1	0.7	0.30000000000000004	2	2	1.4	0.6000000000000001	valid	0.7498137869988568	53248	0	1	1	51200	0	51200	0	53248	1	0.7	51200	turquoise	purple	1	0	ml	2.7.3	bip	sub-20_ses-01_task-ml_proj-bip_2021-03-23-10-18-05.348859
244	20	1	5	245	stable	8	200	45	vs	purple	turquoise	purple	turquoise	left	right	0.30000000000000004	0.7	6	4	1.8000000000000005	2.8	0	1	0.30000000000000004	0.7	6	4	1.8000000000000005	2.8	valid	0.6165160660002584	53248	0	1	2	53248	1	53248	1	51200	0	0.7	53248	turquoise	purple	0	4	ml	2.7.3	bip	sub-20_ses-01_task-ml_proj-bip_2021-03-23-10-18-05.348859
245	20	1	5	246	stable	8	200	46	vs	purple	turquoise	purple	turquoise	left	right	0.30000000000000004	0.7	6	4	1.8000000000000005	2.8	1	0	0.30000000000000004	0.7	6	4	1.8000000000000005	2.8	invalid	0.8497831360000418	53248	0	1	2	53248	1	53248	1	51200	0	0.7	53248	turquoise	purple	0	0	ml	2.7.3	bip	sub-20_ses-01_task-ml_proj-bip_2021-03-23-10-18-05.348859
246	20	1	5	247	stable	8	200	47	vs	turquoise	purple	purple	turquoise	right	left	0.30000000000000004	0.7	2	10	0.6000000000000001	7.0	0	1	0.7	0.30000000000000004	10	2	7.0	0.6000000000000001	valid	1.0330720199999632	53248	0	1	1	51200	0	51200	0	51200	0	0.7	51200	turquoise	purple	1	0	ml	2.7.3	bip	sub-20_ses-01_task-ml_proj-bip_2021-03-23-10-18-05.348859
247	20	1	5	248	stable	8	200	48	vs	turquoise	purple	purple	turquoise	right	left	0.30000000000000004	0.7	4	2	1.2000000000000002	1.4	1	0	0.7	0.30000000000000004	2	4	1.4	1.2000000000000002	invalid	0.6665179060000811	51200	0	0	2	51200	1	51200	1	53248	0	0.7	51200	turquoise	purple	0	0	ml	2.7.3	bip	sub-20_ses-01_task-ml_proj-bip_2021-03-23-10-18-05.348859
248	20	1	5	249	stable	8	200	49	vs	turquoise	purple	purple	turquoise	right	left	0.30000000000000004	0.7	4	6	1.2000000000000002	4.199999999999998	1	0	0.7	0.30000000000000004	6	4	4.199999999999998	1.2000000000000002	invalid	0.7664726819984935	53248	0	1	1	51200	0	51200	0	51200	0	0.7	51200	turquoise	purple	1	4	ml	2.7.3	bip	sub-20_ses-01_task-ml_proj-bip_2021-03-23-10-18-05.348859
249	20	1	5	250	stable	8	200	50	vs	turquoise	purple	purple	turquoise	right	left	0.30000000000000004	0.7	2	10	0.6000000000000001	7.0	0	1	0.7	0.30000000000000004	10	2	7.0	0.6000000000000001	valid	0.8164559130000271	53248	0	1	1	51200	0	51200	0	51200	0	0.7	51200	turquoise	purple	1	0	ml	2.7.3	bip	sub-20_ses-01_task-ml_proj-bip_2021-03-23-10-18-05.348859
250	20	1	6	251	stable	8	200	51	vs	turquoise	purple	purple	turquoise	right	left	0.30000000000000004	0.7	4	2	1.2000000000000002	1.4	0	1	0.7	0.30000000000000004	2	4	1.4	1.2000000000000002	valid	0.6831727970002248	53248	0	1	1	51200	0	51200	0	53248	1	0.7	51200	turquoise	purple	0	0	ml	2.7.3	bip	sub-20_ses-01_task-ml_proj-bip_2021-03-23-10-18-05.348859
251	20	1	6	252	stable	8	200	52	vs	turquoise	purple	purple	turquoise	right	left	0.30000000000000004	0.7	2	4	0.6000000000000001	2.8	0	1	0.7	0.30000000000000004	4	2	2.8	0.6000000000000001	valid	0.6331888730001083	53248	0	1	1	51200	0	51200	0	51200	0	0.7	51200	turquoise	purple	1	0	ml	2.7.3	bip	sub-20_ses-01_task-ml_proj-bip_2021-03-23-10-18-05.348859
252	20	1	6	253	stable	8	200	53	vs	turquoise	purple	purple	turquoise	right	left	0.30000000000000004	0.7	2	10	0.6000000000000001	7.0	0	1	0.7	0.30000000000000004	10	2	7.0	0.6000000000000001	valid	0.41656634799983294	51200	0	0	2	51200	1	51200	1	51200	1	0.7	51200	turquoise	purple	1	10	ml	2.7.3	bip	sub-20_ses-01_task-ml_proj-bip_2021-03-23-10-18-05.348859
253	20	1	6	254	stable	8	200	54	vs	turquoise	purple	purple	turquoise	right	left	0.30000000000000004	0.7	6	4	1.8000000000000005	2.8	0	1	0.7	0.30000000000000004	4	6	2.8	1.8000000000000005	valid	0.5498585999994248	51200	0	0	2	51200	1	51200	1	53248	0	0.7	51200	turquoise	purple	0	4	ml	2.7.3	bip	sub-20_ses-01_task-ml_proj-bip_2021-03-23-10-18-05.348859
254	20	1	6	255	stable	8	200	55	vs	turquoise	purple	purple	turquoise	right	left	0.30000000000000004	0.7	2	6	0.6000000000000001	4.199999999999998	0	1	0.7	0.30000000000000004	6	2	4.199999999999998	0.6000000000000001	valid	0.4665544489998865	51200	0	0	2	51200	1	51200	1	51200	1	0.7	51200	turquoise	purple	1	6	ml	2.7.3	bip	sub-20_ses-01_task-ml_proj-bip_2021-03-23-10-18-05.348859
255	20	1	6	256	stable	8	200	56	vs	turquoise	purple	purple	turquoise	right	left	0.30000000000000004	0.7	6	4	1.8000000000000005	2.8	0	1	0.7	0.30000000000000004	4	6	2.8	1.8000000000000005	valid	0.6498242079996999	51200	0	0	2	51200	1	51200	1	53248	0	0.7	51200	turquoise	purple	0	4	ml	2.7.3	bip	sub-20_ses-01_task-ml_proj-bip_2021-03-23-10-18-05.348859
256	20	1	6	257	stable	8	200	57	vs	purple	turquoise	purple	turquoise	left	right	0.30000000000000004	0.7	10	2	3.0000000000000004	1.4	1	0	0.30000000000000004	0.7	10	2	3.0000000000000004	1.4	invalid	0.6331831690004037	53248	0	1	2	51200	0	53248	1	51200	0	0.7	53248	turquoise	purple	0	0	ml	2.7.3	bip	sub-20_ses-01_task-ml_proj-bip_2021-03-23-10-18-05.348859
257	20	1	6	258	stable	8	200	58	vs	turquoise	purple	purple	turquoise	right	left	0.30000000000000004	0.7	4	2	1.2000000000000002	1.4	1	0	0.7	0.30000000000000004	2	4	1.4	1.2000000000000002	invalid	0.5998447700003453	51200	0	0	2	51200	1	51200	1	53248	0	0.7	51200	turquoise	purple	0	0	ml	2.7.3	bip	sub-20_ses-01_task-ml_proj-bip_2021-03-23-10-18-05.348859
258	20	1	6	259	stable	8	200	59	vs	purple	turquoise	purple	turquoise	left	right	0.30000000000000004	0.7	10	2	3.0000000000000004	1.4	0	1	0.30000000000000004	0.7	10	2	3.0000000000000004	1.4	valid	0.6165160609998566	53248	0	1	2	51200	0	53248	1	51200	0	0.7	53248	turquoise	purple	0	2	ml	2.7.3	bip	sub-20_ses-01_task-ml_proj-bip_2021-03-23-10-18-05.348859
259	20	1	6	260	stable	8	200	60	vs	turquoise	purple	purple	turquoise	right	left	0.30000000000000004	0.7	4	2	1.2000000000000002	1.4	1	0	0.7	0.30000000000000004	2	4	1.4	1.2000000000000002	invalid	0.5498604489985155	51200	0	0	2	51200	1	51200	1	53248	0	0.7	51200	turquoise	purple	0	0	ml	2.7.3	bip	sub-20_ses-01_task-ml_proj-bip_2021-03-23-10-18-05.348859
260	20	1	6	261	stable	8	200	61	vs	turquoise	purple	purple	turquoise	right	left	0.30000000000000004	0.7	10	2	3.0000000000000004	1.4	1	0	0.7	0.30000000000000004	2	10	1.4	3.0000000000000004	invalid	0.7164743640005327	51200	0	0	2	53248	0	51200	1	53248	0	0.7	51200	turquoise	purple	0	0	ml	2.7.3	bip	sub-20_ses-01_task-ml_proj-bip_2021-03-23-10-18-05.348859
261	20	1	6	262	stable	8	200	62	vs	purple	turquoise	purple	turquoise	left	right	0.30000000000000004	0.7	6	6	1.8000000000000005	4.199999999999998	0	1	0.30000000000000004	0.7	6	6	1.8000000000000005	4.199999999999998	valid	0.6998247550000087	53248	0	1	2	53248	1	53248	1	53248	1	0.7	53248	turquoise	purple	0	6	ml	2.7.3	bip	sub-20_ses-01_task-ml_proj-bip_2021-03-23-10-18-05.348859
262	20	1	6	263	stable	8	200	63	vs	purple	turquoise	purple	turquoise	left	right	0.30000000000000004	0.7	2	6	0.6000000000000001	4.199999999999998	0	1	0.30000000000000004	0.7	2	6	0.6000000000000001	4.199999999999998	valid	0.7164897220009152	53248	0	1	2	53248	1	53248	1	53248	1	0.7	53248	turquoise	purple	1	6	ml	2.7.3	bip	sub-20_ses-01_task-ml_proj-bip_2021-03-23-10-18-05.348859
263	20	1	6	264	stable	8	200	64	vs	turquoise	purple	purple	turquoise	right	left	0.30000000000000004	0.7	2	4	0.6000000000000001	2.8	1	0	0.7	0.30000000000000004	4	2	2.8	0.6000000000000001	invalid	0.5998440319999645	51200	0	0	2	51200	1	51200	1	51200	1	0.7	51200	turquoise	purple	1	0	ml	2.7.3	bip	sub-20_ses-01_task-ml_proj-bip_2021-03-23-10-18-05.348859
264	20	1	6	265	stable	8	200	65	vs	turquoise	purple	purple	turquoise	right	left	0.30000000000000004	0.7	4	6	1.2000000000000002	4.199999999999998	0	1	0.7	0.30000000000000004	6	4	4.199999999999998	1.2000000000000002	valid	0.6831551750001381	51200	0	0	2	51200	1	51200	1	51200	1	0.7	51200	turquoise	purple	1	6	ml	2.7.3	bip	sub-20_ses-01_task-ml_proj-bip_2021-03-23-10-18-05.348859
265	20	1	6	266	stable	8	200	66	vs	purple	turquoise	purple	turquoise	left	right	0.30000000000000004	0.7	6	6	1.8000000000000005	4.199999999999998	1	0	0.30000000000000004	0.7	6	6	1.8000000000000005	4.199999999999998	invalid	0.5998542620000079	53248	0	1	2	53248	1	53248	1	53248	1	0.7	53248	turquoise	purple	0	0	ml	2.7.3	bip	sub-20_ses-01_task-ml_proj-bip_2021-03-23-10-18-05.348859
266	20	1	6	267	stable	8	200	67	vs	purple	turquoise	purple	turquoise	left	right	0.30000000000000004	0.7	6	4	1.8000000000000005	2.8	0	1	0.30000000000000004	0.7	6	4	1.8000000000000005	2.8	valid	0.7831359259998862	53248	0	1	2	53248	1	53248	1	51200	0	0.7	53248	turquoise	purple	0	4	ml	2.7.3	bip	sub-20_ses-01_task-ml_proj-bip_2021-03-23-10-18-05.348859
267	20	1	6	268	stable	8	200	68	vs	turquoise	purple	purple	turquoise	right	left	0.30000000000000004	0.7	6	4	1.8000000000000005	2.8	1	0	0.7	0.30000000000000004	4	6	2.8	1.8000000000000005	invalid	0.7164782259987987	51200	0	0	2	51200	1	51200	1	53248	0	0.7	51200	turquoise	purple	0	0	ml	2.7.3	bip	sub-20_ses-01_task-ml_proj-bip_2021-03-23-10-18-05.348859
268	20	1	6	269	stable	8	200	69	vs	purple	turquoise	purple	turquoise	left	right	0.30000000000000004	0.7	6	2	1.8000000000000005	1.4	0	1	0.30000000000000004	0.7	6	2	1.8000000000000005	1.4	valid	0.7165124460007064	53248	0	1	2	51200	0	53248	1	51200	0	0.7	53248	turquoise	purple	0	2	ml	2.7.3	bip	sub-20_ses-01_task-ml_proj-bip_2021-03-23-10-18-05.348859
269	20	1	6	270	stable	8	200	70	vs	purple	turquoise	purple	turquoise	left	right	0.30000000000000004	0.7	4	2	1.2000000000000002	1.4	1	0	0.30000000000000004	0.7	4	2	1.2000000000000002	1.4	invalid	0.8997686849997991	53248	0	1	2	53248	1	53248	1	51200	0	0.7	53248	turquoise	purple	0	0	ml	2.7.3	bip	sub-20_ses-01_task-ml_proj-bip_2021-03-23-10-18-05.348859
270	20	1	6	271	stable	8	200	71	vs	purple	turquoise	purple	turquoise	left	right	0.30000000000000004	0.7	10	2	3.0000000000000004	1.4	0	1	0.30000000000000004	0.7	10	2	3.0000000000000004	1.4	valid	0.9331076749986096	53248	0	1	2	51200	0	53248	1	51200	0	0.7	53248	turquoise	purple	0	2	ml	2.7.3	bip	sub-20_ses-01_task-ml_proj-bip_2021-03-23-10-18-05.348859
271	20	1	6	272	stable	8	200	72	vs	turquoise	purple	purple	turquoise	right	left	0.30000000000000004	0.7	4	2	1.2000000000000002	1.4	1	0	0.7	0.30000000000000004	2	4	1.4	1.2000000000000002	invalid	0.7664615859994228	51200	0	0	2	51200	1	51200	1	53248	0	0.7	51200	turquoise	purple	0	0	ml	2.7.3	bip	sub-20_ses-01_task-ml_proj-bip_2021-03-23-10-18-05.348859
272	20	1	6	273	stable	8	200	73	vs	purple	turquoise	purple	turquoise	left	right	0.30000000000000004	0.7	4	6	1.2000000000000002	4.199999999999998	0	1	0.30000000000000004	0.7	4	6	1.2000000000000002	4.199999999999998	valid	0.7998046829998202	53248	0	1	2	53248	1	53248	1	53248	1	0.7	53248	turquoise	purple	1	6	ml	2.7.3	bip	sub-20_ses-01_task-ml_proj-bip_2021-03-23-10-18-05.348859
273	20	1	6	274	stable	8	200	74	vs	purple	turquoise	purple	turquoise	left	right	0.30000000000000004	0.7	2	4	0.6000000000000001	2.8	0	1	0.30000000000000004	0.7	2	4	0.6000000000000001	2.8	valid	0.883104516999083	53248	0	1	2	53248	1	53248	1	53248	1	0.7	53248	turquoise	purple	1	4	ml	2.7.3	bip	sub-20_ses-01_task-ml_proj-bip_2021-03-23-10-18-05.348859
274	20	1	6	275	stable	8	200	75	vs	purple	turquoise	purple	turquoise	left	right	0.30000000000000004	0.7	2	10	0.6000000000000001	7.0	0	1	0.30000000000000004	0.7	2	10	0.6000000000000001	7.0	valid	0.6998270280000725	53248	0	1	2	53248	1	53248	1	53248	1	0.7	53248	turquoise	purple	1	10	ml	2.7.3	bip	sub-20_ses-01_task-ml_proj-bip_2021-03-23-10-18-05.348859
275	20	1	6	276	stable	8	200	76	vs	turquoise	purple	purple	turquoise	right	left	0.30000000000000004	0.7	2	2	0.6000000000000001	1.4	1	0	0.7	0.30000000000000004	2	2	1.4	0.6000000000000001	invalid	0.7498121959997661	51200	0	0	2	51200	1	51200	1	53248	0	0.7	51200	turquoise	purple	1	0	ml	2.7.3	bip	sub-20_ses-01_task-ml_proj-bip_2021-03-23-10-18-05.348859
276	20	1	6	277	stable	8	200	77	vs	purple	turquoise	purple	turquoise	left	right	0.30000000000000004	0.7	2	4	0.6000000000000001	2.8	0	1	0.30000000000000004	0.7	2	4	0.6000000000000001	2.8	valid	0.7498146449997876	53248	0	1	2	53248	1	53248	1	53248	1	0.7	53248	turquoise	purple	1	4	ml	2.7.3	bip	sub-20_ses-01_task-ml_proj-bip_2021-03-23-10-18-05.348859
277	20	1	6	278	stable	8	200	78	vs	turquoise	purple	purple	turquoise	right	left	0.30000000000000004	0.7	2	4	0.6000000000000001	2.8	0	1	0.7	0.30000000000000004	4	2	2.8	0.6000000000000001	valid	0.7497985459995107	51200	0	0	2	51200	1	51200	1	51200	1	0.7	51200	turquoise	purple	1	4	ml	2.7.3	bip	sub-20_ses-01_task-ml_proj-bip_2021-03-23-10-18-05.348859
