Unnamed: 0	sub_id	ses_id	block_no	trial_no	phase_type	phase_no	phase_length	trialInPhase_no	phase_type_order	color_left	color_right	color1	color2	position1	position2	prob1	prob2	mag1	mag2	ev1	ev2	outcome1	outcome2	prob_left	prob_right	mag_left	mag_right	ev_left	ev_right	reward_validity	resp_time	resp_key	timeout	choice_side	choice	ev_corr_resp	ev_correct	prob_corr_resp	prob_correct	mag_corr_resp	mag_correct	high_prob	high_prob_side	high_prob_color	low_prob_color	no_brain	reward	name	version	proj_id	logFileID
0	4	1	1	1	volatile	1	40	1	vs	blue	red	red	blue	right	left	0.7	0.3	4	6	2.8	1.8	0	1	0.3	0.7	6	4	1.8	2.8	invalid	0.8497700070001879	51200	0	0	2	53248	0	53248	0	51200	1	0.7	53248	red	blue	0	6	ml	2.7.3	bip	sub-01_ses-01_task-ml_proj-bip_2020-10-16-10-14-12.141483
1	4	1	1	2	volatile	1	40	2	vs	red	blue	red	blue	left	right	0.7	0.3	6	2	4.2	0.6	1	0	0.7	0.3	6	2	4.2	0.6	valid	0.8164466970010841	51200	0	0	1	51200	1	51200	1	51200	1	0.7	51200	red	blue	1	6	ml	2.7.3	bip	sub-01_ses-01_task-ml_proj-bip_2020-10-16-10-14-12.141483
2	4	1	1	3	volatile	1	40	3	vs	red	blue	red	blue	left	right	0.7	0.3	4	6	2.8	1.8	0	1	0.7	0.3	4	6	2.8	1.8	invalid	0.9497516259998521	53248	0	1	2	51200	0	51200	0	53248	1	0.7	51200	red	blue	0	6	ml	2.7.3	bip	sub-01_ses-01_task-ml_proj-bip_2020-10-16-10-14-12.141483
3	4	1	1	4	volatile	1	40	4	vs	red	blue	red	blue	left	right	0.7	0.3	2	4	1.4	1.2	1	0	0.7	0.3	2	4	1.4	1.2	valid	0.733146762000615	53248	0	1	2	51200	0	51200	0	53248	1	0.7	51200	red	blue	0	0	ml	2.7.3	bip	sub-01_ses-01_task-ml_proj-bip_2020-10-16-10-14-12.141483
4	4	1	1	5	volatile	1	40	5	vs	red	blue	red	blue	left	right	0.7	0.3	2	4	1.4	1.2	0	1	0.7	0.3	2	4	1.4	1.2	invalid	1.06638141400072	53248	0	1	2	51200	0	51200	0	53248	1	0.7	51200	red	blue	0	4	ml	2.7.3	bip	sub-01_ses-01_task-ml_proj-bip_2020-10-16-10-14-12.141483
5	4	1	1	6	volatile	1	40	6	vs	blue	red	red	blue	right	left	0.7	0.3	6	4	4.2	1.2	1	0	0.3	0.7	4	6	1.2	4.2	valid	1.23298935099956	51200	0	0	2	53248	0	53248	0	53248	0	0.7	53248	red	blue	1	0	ml	2.7.3	bip	sub-01_ses-01_task-ml_proj-bip_2020-10-16-10-14-12.141483
6	4	1	1	7	volatile	1	40	7	vs	blue	red	red	blue	right	left	0.7	0.3	10	2	7.0	0.6	1	0	0.3	0.7	2	10	0.6	7.0	valid	0.749814299999343	53248	0	1	1	53248	1	53248	1	53248	1	0.7	53248	red	blue	1	10	ml	2.7.3	bip	sub-01_ses-01_task-ml_proj-bip_2020-10-16-10-14-12.141483
7	4	1	1	8	volatile	1	40	8	vs	blue	red	red	blue	right	left	0.7	0.3	6	2	4.2	0.6	1	0	0.3	0.7	2	6	0.6	4.2	valid	0.599855955000749	53248	0	1	1	53248	1	53248	1	53248	1	0.7	53248	red	blue	1	6	ml	2.7.3	bip	sub-01_ses-01_task-ml_proj-bip_2020-10-16-10-14-12.141483
8	4	1	1	9	volatile	1	40	9	vs	red	blue	red	blue	left	right	0.7	0.3	10	2	7.0	0.6	0	1	0.7	0.3	10	2	7.0	0.6	invalid	0.53319294100038	51200	0	0	1	51200	1	51200	1	51200	1	0.7	51200	red	blue	1	0	ml	2.7.3	bip	sub-01_ses-01_task-ml_proj-bip_2020-10-16-10-14-12.141483
9	4	1	1	10	volatile	1	40	10	vs	red	blue	red	blue	left	right	0.7	0.3	2	10	1.4	3.0	1	0	0.7	0.3	2	10	1.4	3.0	valid	0.9164297250008531	53248	0	1	2	53248	1	51200	0	53248	1	0.7	51200	red	blue	0	0	ml	2.7.3	bip	sub-01_ses-01_task-ml_proj-bip_2020-10-16-10-14-12.141483
10	4	1	1	11	volatile	1	40	11	vs	red	blue	red	blue	left	right	0.7	0.3	2	6	1.4	1.8	1	0	0.7	0.3	2	6	1.4	1.8	valid	0.9164348690010229	53248	0	1	2	53248	1	51200	0	53248	1	0.7	51200	red	blue	0	0	ml	2.7.3	bip	sub-01_ses-01_task-ml_proj-bip_2020-10-16-10-14-12.141483
11	4	1	1	12	volatile	1	40	12	vs	red	blue	red	blue	left	right	0.7	0.3	6	4	4.2	1.2	1	0	0.7	0.3	6	4	4.2	1.2	valid	0.833110087000023	51200	0	0	1	51200	1	51200	1	51200	1	0.7	51200	red	blue	1	6	ml	2.7.3	bip	sub-01_ses-01_task-ml_proj-bip_2020-10-16-10-14-12.141483
12	4	1	1	13	volatile	1	40	13	vs	blue	red	red	blue	right	left	0.7	0.3	2	10	1.4	3.0	1	0	0.3	0.7	10	2	3.0	1.4	valid	0.8497719129991309	51200	0	0	2	51200	1	53248	0	51200	1	0.7	53248	red	blue	0	0	ml	2.7.3	bip	sub-01_ses-01_task-ml_proj-bip_2020-10-16-10-14-12.141483
13	4	1	1	14	volatile	1	40	14	vs	red	blue	red	blue	left	right	0.7	0.3	4	2	2.8	0.6	0	1	0.7	0.3	4	2	2.8	0.6	invalid	0.7997880839993741	51200	0	0	1	51200	1	51200	1	51200	1	0.7	51200	red	blue	1	0	ml	2.7.3	bip	sub-01_ses-01_task-ml_proj-bip_2020-10-16-10-14-12.141483
14	4	1	1	15	volatile	1	40	15	vs	blue	red	red	blue	right	left	0.7	0.3	6	4	4.2	1.2	1	0	0.3	0.7	4	6	1.2	4.2	valid	0.6498396639999561	53248	0	1	1	53248	1	53248	1	53248	1	0.7	53248	red	blue	1	6	ml	2.7.3	bip	sub-01_ses-01_task-ml_proj-bip_2020-10-16-10-14-12.141483
15	4	1	1	16	volatile	1	40	16	vs	blue	red	red	blue	right	left	0.7	0.3	2	6	1.4	1.8	1	0	0.3	0.7	6	2	1.8	1.4	valid	1.21632872000009	51200	0	0	2	51200	1	53248	0	51200	1	0.7	53248	red	blue	0	0	ml	2.7.3	bip	sub-01_ses-01_task-ml_proj-bip_2020-10-16-10-14-12.141483
16	4	1	1	17	volatile	1	40	17	vs	blue	red	red	blue	right	left	0.7	0.3	2	2	1.4	0.6	0	1	0.3	0.7	2	2	0.6	1.4	invalid	0.916427416999795	53248	0	1	1	53248	1	53248	1	53248	1	0.7	53248	red	blue	0	0	ml	2.7.3	bip	sub-01_ses-01_task-ml_proj-bip_2020-10-16-10-14-12.141483
17	4	1	1	18	volatile	1	40	18	vs	red	blue	red	blue	left	right	0.7	0.3	2	10	1.4	3.0	1	0	0.7	0.3	2	10	1.4	3.0	valid	0.7997995999994599	53248	0	1	2	53248	1	51200	0	53248	1	0.7	51200	red	blue	0	0	ml	2.7.3	bip	sub-01_ses-01_task-ml_proj-bip_2020-10-16-10-14-12.141483
18	4	1	1	19	volatile	1	40	19	vs	red	blue	red	blue	left	right	0.7	0.3	4	2	2.8	0.6	1	0	0.7	0.3	4	2	2.8	0.6	valid	0.699816402999204	51200	0	0	1	51200	1	51200	1	51200	1	0.7	51200	red	blue	1	4	ml	2.7.3	bip	sub-01_ses-01_task-ml_proj-bip_2020-10-16-10-14-12.141483
19	4	1	1	20	volatile	1	40	20	vs	red	blue	red	blue	left	right	0.7	0.3	6	6	4.2	1.8	0	1	0.7	0.3	6	6	4.2	1.8	invalid	0.6165053509994319	51200	0	0	1	51200	1	51200	1	53248	0	0.7	51200	red	blue	1	0	ml	2.7.3	bip	sub-01_ses-01_task-ml_proj-bip_2020-10-16-10-14-12.141483
20	4	1	1	21	volatile	1	40	21	vs	red	blue	red	blue	left	right	0.7	0.3	2	10	1.4	3.0	1	0	0.7	0.3	2	10	1.4	3.0	valid	0.733150644999114	53248	0	1	2	53248	1	51200	0	53248	1	0.7	51200	red	blue	0	0	ml	2.7.3	bip	sub-01_ses-01_task-ml_proj-bip_2020-10-16-10-14-12.141483
21	4	1	1	22	volatile	1	40	22	vs	blue	red	red	blue	right	left	0.7	0.3	2	4	1.4	1.2	1	0	0.3	0.7	4	2	1.2	1.4	valid	1.18300432600154	53248	0	1	1	53248	1	53248	1	51200	0	0.7	53248	red	blue	0	2	ml	2.7.3	bip	sub-01_ses-01_task-ml_proj-bip_2020-10-16-10-14-12.141483
22	4	1	1	23	volatile	1	40	23	vs	blue	red	red	blue	right	left	0.7	0.3	2	10	1.4	3.0	0	1	0.3	0.7	10	2	3.0	1.4	invalid	0.7831300199995892	51200	0	0	2	51200	1	53248	0	51200	1	0.7	53248	red	blue	0	10	ml	2.7.3	bip	sub-01_ses-01_task-ml_proj-bip_2020-10-16-10-14-12.141483
23	4	1	1	24	volatile	1	40	24	vs	blue	red	red	blue	right	left	0.7	0.3	2	2	1.4	0.6	1	0	0.3	0.7	2	2	0.6	1.4	valid	0.983072981000078	53248	0	1	1	53248	1	53248	1	53248	1	0.7	53248	red	blue	0	2	ml	2.7.3	bip	sub-01_ses-01_task-ml_proj-bip_2020-10-16-10-14-12.141483
24	4	1	1	25	volatile	1	40	25	vs	red	blue	red	blue	left	right	0.7	0.3	6	6	4.2	1.8	1	0	0.7	0.3	6	6	4.2	1.8	valid	0.6998157819998599	51200	0	0	1	51200	1	51200	1	53248	0	0.7	51200	red	blue	1	6	ml	2.7.3	bip	sub-01_ses-01_task-ml_proj-bip_2020-10-16-10-14-12.141483
25	4	1	1	26	volatile	1	40	26	vs	red	blue	red	blue	left	right	0.7	0.3	6	2	4.2	0.6	1	0	0.7	0.3	6	2	4.2	0.6	valid	0.566534501000206	51200	0	0	1	51200	1	51200	1	51200	1	0.7	51200	red	blue	1	6	ml	2.7.3	bip	sub-01_ses-01_task-ml_proj-bip_2020-10-16-10-14-12.141483
26	4	1	1	27	volatile	1	40	27	vs	blue	red	red	blue	right	left	0.7	0.3	6	2	4.2	0.6	1	0	0.3	0.7	2	6	0.6	4.2	valid	0.566533225999592	53248	0	1	1	53248	1	53248	1	53248	1	0.7	53248	red	blue	1	6	ml	2.7.3	bip	sub-01_ses-01_task-ml_proj-bip_2020-10-16-10-14-12.141483
27	4	1	1	28	volatile	1	40	28	vs	red	blue	red	blue	left	right	0.7	0.3	4	2	2.8	0.6	1	0	0.7	0.3	4	2	2.8	0.6	valid	0.699814191000769	51200	0	0	1	51200	1	51200	1	51200	1	0.7	51200	red	blue	1	4	ml	2.7.3	bip	sub-01_ses-01_task-ml_proj-bip_2020-10-16-10-14-12.141483
28	4	1	1	29	volatile	1	40	29	vs	blue	red	red	blue	right	left	0.7	0.3	4	2	2.8	0.6	1	0	0.3	0.7	2	4	0.6	2.8	valid	0.749811163999766	53248	0	1	1	53248	1	53248	1	53248	1	0.7	53248	red	blue	1	4	ml	2.7.3	bip	sub-01_ses-01_task-ml_proj-bip_2020-10-16-10-14-12.141483
29	4	1	1	30	volatile	1	40	30	vs	red	blue	red	blue	left	right	0.7	0.3	4	6	2.8	1.8	1	0	0.7	0.3	4	6	2.8	1.8	valid	0.9330720959987959	51200	0	0	1	51200	1	51200	1	53248	0	0.7	51200	red	blue	0	4	ml	2.7.3	bip	sub-01_ses-01_task-ml_proj-bip_2020-10-16-10-14-12.141483
30	4	1	1	31	volatile	1	40	31	vs	red	blue	red	blue	left	right	0.7	0.3	6	4	4.2	1.2	1	0	0.7	0.3	6	4	4.2	1.2	valid	0.566522565999549	51200	0	0	1	51200	1	51200	1	51200	1	0.7	51200	red	blue	1	6	ml	2.7.3	bip	sub-01_ses-01_task-ml_proj-bip_2020-10-16-10-14-12.141483
31	4	1	1	32	volatile	1	40	32	vs	blue	red	red	blue	right	left	0.7	0.3	6	6	4.2	1.8	0	1	0.3	0.7	6	6	1.8	4.2	invalid	0.533211922998817	53248	0	1	1	53248	1	53248	1	53248	1	0.7	53248	red	blue	0	0	ml	2.7.3	bip	sub-01_ses-01_task-ml_proj-bip_2020-10-16-10-14-12.141483
32	4	1	1	33	volatile	1	40	33	vs	blue	red	red	blue	right	left	0.7	0.3	6	6	4.2	1.8	0	1	0.3	0.7	6	6	1.8	4.2	invalid	0.6331801550004461	53248	0	1	1	53248	1	53248	1	53248	1	0.7	53248	red	blue	0	0	ml	2.7.3	bip	sub-01_ses-01_task-ml_proj-bip_2020-10-16-10-14-12.141483
33	4	1	1	34	volatile	1	40	34	vs	blue	red	red	blue	right	left	0.7	0.3	2	10	1.4	3.0	0	1	0.3	0.7	10	2	3.0	1.4	invalid	0.49987696300013296	51200	0	0	2	51200	1	53248	0	51200	1	0.7	53248	red	blue	0	10	ml	2.7.3	bip	sub-01_ses-01_task-ml_proj-bip_2020-10-16-10-14-12.141483
34	4	1	1	35	volatile	1	40	35	vs	blue	red	red	blue	right	left	0.7	0.3	6	2	4.2	0.6	1	0	0.3	0.7	2	6	0.6	4.2	valid	1.28298125200126	53248	0	1	1	53248	1	53248	1	53248	1	0.7	53248	red	blue	1	6	ml	2.7.3	bip	sub-01_ses-01_task-ml_proj-bip_2020-10-16-10-14-12.141483
35	4	1	1	36	volatile	1	40	36	vs	red	blue	red	blue	left	right	0.7	0.3	2	4	1.4	1.2	0	1	0.7	0.3	2	4	1.4	1.2	invalid	0.7331504249996209	53248	0	1	2	51200	0	51200	0	53248	1	0.7	51200	red	blue	0	4	ml	2.7.3	bip	sub-01_ses-01_task-ml_proj-bip_2020-10-16-10-14-12.141483
36	4	1	1	37	volatile	1	40	37	vs	blue	red	red	blue	right	left	0.7	0.3	2	6	1.4	1.8	1	0	0.3	0.7	6	2	1.8	1.4	valid	0.48321580999982	51200	0	0	2	51200	1	53248	0	51200	1	0.7	53248	red	blue	0	0	ml	2.7.3	bip	sub-01_ses-01_task-ml_proj-bip_2020-10-16-10-14-12.141483
37	4	1	1	38	volatile	1	40	38	vs	blue	red	red	blue	right	left	0.7	0.3	2	2	1.4	0.6	1	0	0.3	0.7	2	2	0.6	1.4	valid	1.3329634820002	51200	0	0	2	53248	0	53248	0	53248	0	0.7	53248	red	blue	0	0	ml	2.7.3	bip	sub-01_ses-01_task-ml_proj-bip_2020-10-16-10-14-12.141483
38	4	1	1	39	volatile	1	40	39	vs	red	blue	red	blue	left	right	0.7	0.3	2	2	1.4	0.6	1	0	0.7	0.3	2	2	1.4	0.6	valid	0.8664229989990421	51200	0	0	1	51200	1	51200	1	53248	0	0.7	51200	red	blue	1	2	ml	2.7.3	bip	sub-01_ses-01_task-ml_proj-bip_2020-10-16-10-14-12.141483
39	4	1	1	40	volatile	1	40	40	vs	blue	red	red	blue	right	left	0.7	0.3	4	6	2.8	1.8	1	0	0.3	0.7	6	4	1.8	2.8	valid	0.44990057399991207	53248	0	1	1	53248	1	53248	1	51200	0	0.7	53248	red	blue	0	4	ml	2.7.3	bip	sub-01_ses-01_task-ml_proj-bip_2020-10-16-10-14-12.141483
40	4	1	1	41	volatile	2	40	1	vs	blue	red	red	blue	right	left	0.3	0.7	6	6	1.8	4.2	0	1	0.7	0.3	6	6	4.2	1.8	valid	0.533210200999747	53248	0	1	1	51200	0	51200	0	53248	1	0.7	51200	blue	red	1	0	ml	2.7.3	bip	sub-01_ses-01_task-ml_proj-bip_2020-10-16-10-14-12.141483
41	4	1	1	42	volatile	2	40	2	vs	red	blue	red	blue	left	right	0.3	0.7	2	10	0.6	7.0	1	0	0.3	0.7	2	10	0.6	7.0	invalid	0.733151505000933	53248	0	1	2	53248	1	53248	1	53248	1	0.7	53248	blue	red	1	0	ml	2.7.3	bip	sub-01_ses-01_task-ml_proj-bip_2020-10-16-10-14-12.141483
42	4	1	1	43	volatile	2	40	3	vs	blue	red	red	blue	right	left	0.3	0.7	6	6	1.8	4.2	0	1	0.7	0.3	6	6	4.2	1.8	valid	0.533208045999345	53248	0	1	1	51200	0	51200	0	53248	1	0.7	51200	blue	red	1	0	ml	2.7.3	bip	sub-01_ses-01_task-ml_proj-bip_2020-10-16-10-14-12.141483
43	4	1	1	44	volatile	2	40	4	vs	red	blue	red	blue	left	right	0.3	0.7	10	2	3.0	1.4	1	0	0.3	0.7	10	2	3.0	1.4	invalid	0.766463570998894	51200	0	0	1	51200	1	53248	0	51200	1	0.7	53248	blue	red	0	10	ml	2.7.3	bip	sub-01_ses-01_task-ml_proj-bip_2020-10-16-10-14-12.141483
44	4	1	1	45	volatile	2	40	5	vs	red	blue	red	blue	left	right	0.3	0.7	4	6	1.2	4.2	0	1	0.3	0.7	4	6	1.2	4.2	valid	0.949746367999978	51200	0	0	1	53248	0	53248	0	53248	0	0.7	53248	blue	red	1	0	ml	2.7.3	bip	sub-01_ses-01_task-ml_proj-bip_2020-10-16-10-14-12.141483
45	4	1	1	46	volatile	2	40	6	vs	red	blue	red	blue	left	right	0.3	0.7	10	2	3.0	1.4	0	1	0.3	0.7	10	2	3.0	1.4	valid	0.5331913049994911	51200	0	0	1	51200	1	53248	0	51200	1	0.7	53248	blue	red	0	0	ml	2.7.3	bip	sub-01_ses-01_task-ml_proj-bip_2020-10-16-10-14-12.141483
46	4	1	1	47	volatile	2	40	7	vs	red	blue	red	blue	left	right	0.3	0.7	2	2	0.6	1.4	0	1	0.3	0.7	2	2	0.6	1.4	valid	0.616516334999687	53248	0	1	2	53248	1	53248	1	53248	1	0.7	53248	blue	red	0	2	ml	2.7.3	bip	sub-01_ses-01_task-ml_proj-bip_2020-10-16-10-14-12.141483
47	4	1	1	48	volatile	2	40	8	vs	red	blue	red	blue	left	right	0.3	0.7	2	2	0.6	1.4	0	1	0.3	0.7	2	2	0.6	1.4	valid	0.6831649180003299	53248	0	1	2	53248	1	53248	1	53248	1	0.7	53248	blue	red	0	2	ml	2.7.3	bip	sub-01_ses-01_task-ml_proj-bip_2020-10-16-10-14-12.141483
48	4	1	1	49	volatile	2	40	9	vs	blue	red	red	blue	right	left	0.3	0.7	4	6	1.2	4.2	0	1	0.7	0.3	6	4	4.2	1.2	valid	0.599843785999838	51200	0	0	2	51200	1	51200	1	51200	1	0.7	51200	blue	red	1	6	ml	2.7.3	bip	sub-01_ses-01_task-ml_proj-bip_2020-10-16-10-14-12.141483
49	4	1	1	50	volatile	2	40	10	vs	red	blue	red	blue	left	right	0.3	0.7	10	2	3.0	1.4	0	1	0.3	0.7	10	2	3.0	1.4	valid	0.966405900000609	51200	0	0	1	51200	1	53248	0	51200	1	0.7	53248	blue	red	0	0	ml	2.7.3	bip	sub-01_ses-01_task-ml_proj-bip_2020-10-16-10-14-12.141483
50	4	1	2	51	volatile	2	40	11	vs	blue	red	red	blue	right	left	0.3	0.7	6	2	1.8	1.4	0	1	0.7	0.3	2	6	1.4	1.8	valid	0.633179059999748	53248	0	1	1	53248	1	51200	0	53248	1	0.7	51200	blue	red	0	0	ml	2.7.3	bip	sub-01_ses-01_task-ml_proj-bip_2020-10-16-10-14-12.141483
51	4	1	2	52	volatile	2	40	12	vs	red	blue	red	blue	left	right	0.3	0.7	2	4	0.6	2.8	0	1	0.3	0.7	2	4	0.6	2.8	valid	0.7831318540011128	53248	0	1	2	53248	1	53248	1	53248	1	0.7	53248	blue	red	1	4	ml	2.7.3	bip	sub-01_ses-01_task-ml_proj-bip_2020-10-16-10-14-12.141483
52	4	1	2	53	volatile	2	40	13	vs	red	blue	red	blue	left	right	0.3	0.7	6	6	1.8	4.2	0	1	0.3	0.7	6	6	1.8	4.2	valid	0.5332105990000859	53248	0	1	2	53248	1	53248	1	53248	1	0.7	53248	blue	red	0	6	ml	2.7.3	bip	sub-01_ses-01_task-ml_proj-bip_2020-10-16-10-14-12.141483
53	4	1	2	54	volatile	2	40	14	vs	blue	red	red	blue	right	left	0.3	0.7	6	4	1.8	2.8	0	1	0.7	0.3	4	6	2.8	1.8	valid	0.9330790020012499	51200	0	0	2	51200	1	51200	1	53248	0	0.7	51200	blue	red	0	4	ml	2.7.3	bip	sub-01_ses-01_task-ml_proj-bip_2020-10-16-10-14-12.141483
54	4	1	2	55	volatile	2	40	15	vs	red	blue	red	blue	left	right	0.3	0.7	4	2	1.2	1.4	0	1	0.3	0.7	4	2	1.2	1.4	valid	0.9330908610008921	53248	0	1	2	53248	1	53248	1	51200	0	0.7	53248	blue	red	0	2	ml	2.7.3	bip	sub-01_ses-01_task-ml_proj-bip_2020-10-16-10-14-12.141483
55	4	1	2	56	volatile	2	40	16	vs	red	blue	red	blue	left	right	0.3	0.7	6	4	1.8	2.8	0	1	0.3	0.7	6	4	1.8	2.8	valid	0.633186811999622	53248	0	1	2	53248	1	53248	1	51200	0	0.7	53248	blue	red	0	4	ml	2.7.3	bip	sub-01_ses-01_task-ml_proj-bip_2020-10-16-10-14-12.141483
56	4	1	2	57	volatile	2	40	17	vs	blue	red	red	blue	right	left	0.3	0.7	4	2	1.2	1.4	1	0	0.7	0.3	2	4	1.4	1.2	invalid	0.866431102000206	51200	0	0	2	51200	1	51200	1	53248	0	0.7	51200	blue	red	0	0	ml	2.7.3	bip	sub-01_ses-01_task-ml_proj-bip_2020-10-16-10-14-12.141483
57	4	1	2	58	volatile	2	40	18	vs	blue	red	red	blue	right	left	0.3	0.7	2	2	0.6	1.4	1	0	0.7	0.3	2	2	1.4	0.6	invalid	1.4162656080006901	51200	0	0	2	51200	1	51200	1	53248	0	0.7	51200	blue	red	1	0	ml	2.7.3	bip	sub-01_ses-01_task-ml_proj-bip_2020-10-16-10-14-12.141483
58	4	1	2	59	volatile	2	40	19	vs	blue	red	red	blue	right	left	0.3	0.7	4	6	1.2	4.2	0	1	0.7	0.3	6	4	4.2	1.2	valid	0.49988134399973205	53248	0	1	1	51200	0	51200	0	51200	0	0.7	51200	blue	red	1	0	ml	2.7.3	bip	sub-01_ses-01_task-ml_proj-bip_2020-10-16-10-14-12.141483
59	4	1	2	60	volatile	2	40	20	vs	red	blue	red	blue	left	right	0.3	0.7	2	4	0.6	2.8	1	0	0.3	0.7	2	4	0.6	2.8	invalid	0.983074681998914	53248	0	1	2	53248	1	53248	1	53248	1	0.7	53248	blue	red	1	0	ml	2.7.3	bip	sub-01_ses-01_task-ml_proj-bip_2020-10-16-10-14-12.141483
60	4	1	2	61	volatile	2	40	21	vs	blue	red	red	blue	right	left	0.3	0.7	2	2	0.6	1.4	1	0	0.7	0.3	2	2	1.4	0.6	invalid	0.7164895750011049	53248	0	1	1	51200	0	51200	0	53248	1	0.7	51200	blue	red	1	2	ml	2.7.3	bip	sub-01_ses-01_task-ml_proj-bip_2020-10-16-10-14-12.141483
61	4	1	2	62	volatile	2	40	22	vs	red	blue	red	blue	left	right	0.3	0.7	6	2	1.8	1.4	0	1	0.3	0.7	6	2	1.8	1.4	valid	0.566521520000606	51200	0	0	1	51200	1	53248	0	51200	1	0.7	53248	blue	red	0	0	ml	2.7.3	bip	sub-01_ses-01_task-ml_proj-bip_2020-10-16-10-14-12.141483
62	4	1	2	63	volatile	2	40	23	vs	blue	red	red	blue	right	left	0.3	0.7	2	4	0.6	2.8	0	1	0.7	0.3	4	2	2.8	0.6	valid	1.4329256620003403	51200	0	0	2	51200	1	51200	1	51200	1	0.7	51200	blue	red	1	4	ml	2.7.3	bip	sub-01_ses-01_task-ml_proj-bip_2020-10-16-10-14-12.141483
63	4	1	2	64	volatile	2	40	24	vs	red	blue	red	blue	left	right	0.3	0.7	2	6	0.6	4.2	1	0	0.3	0.7	2	6	0.6	4.2	invalid	0.733144393001566	53248	0	1	2	53248	1	53248	1	53248	1	0.7	53248	blue	red	1	0	ml	2.7.3	bip	sub-01_ses-01_task-ml_proj-bip_2020-10-16-10-14-12.141483
64	4	1	2	65	volatile	2	40	25	vs	blue	red	red	blue	right	left	0.3	0.7	2	6	0.6	4.2	0	1	0.7	0.3	6	2	4.2	0.6	valid	0.599847217999923	51200	0	0	2	51200	1	51200	1	51200	1	0.7	51200	blue	red	1	6	ml	2.7.3	bip	sub-01_ses-01_task-ml_proj-bip_2020-10-16-10-14-12.141483
65	4	1	2	66	volatile	2	40	26	vs	blue	red	red	blue	right	left	0.3	0.7	6	4	1.8	2.8	0	1	0.7	0.3	4	6	2.8	1.8	valid	0.71651342900077	53248	0	1	1	51200	0	51200	0	53248	1	0.7	51200	blue	red	0	0	ml	2.7.3	bip	sub-01_ses-01_task-ml_proj-bip_2020-10-16-10-14-12.141483
66	4	1	2	67	volatile	2	40	27	vs	red	blue	red	blue	left	right	0.3	0.7	2	6	0.6	4.2	0	1	0.3	0.7	2	6	0.6	4.2	valid	0.516548878998947	53248	0	1	2	53248	1	53248	1	53248	1	0.7	53248	blue	red	1	6	ml	2.7.3	bip	sub-01_ses-01_task-ml_proj-bip_2020-10-16-10-14-12.141483
67	4	1	2	68	volatile	2	40	28	vs	blue	red	red	blue	right	left	0.3	0.7	2	4	0.6	2.8	0	1	0.7	0.3	4	2	2.8	0.6	valid	0.549858967000546	51200	0	0	2	51200	1	51200	1	51200	1	0.7	51200	blue	red	1	4	ml	2.7.3	bip	sub-01_ses-01_task-ml_proj-bip_2020-10-16-10-14-12.141483
68	4	1	2	69	volatile	2	40	29	vs	red	blue	red	blue	left	right	0.3	0.7	2	10	0.6	7.0	0	1	0.3	0.7	2	10	0.6	7.0	valid	0.533209425999303	53248	0	1	2	53248	1	53248	1	53248	1	0.7	53248	blue	red	1	10	ml	2.7.3	bip	sub-01_ses-01_task-ml_proj-bip_2020-10-16-10-14-12.141483
69	4	1	2	70	volatile	2	40	30	vs	blue	red	red	blue	right	left	0.3	0.7	2	6	0.6	4.2	0	1	0.7	0.3	6	2	4.2	0.6	valid	0.49987387299916	51200	0	0	2	51200	1	51200	1	51200	1	0.7	51200	blue	red	1	6	ml	2.7.3	bip	sub-01_ses-01_task-ml_proj-bip_2020-10-16-10-14-12.141483
70	4	1	2	71	volatile	2	40	31	vs	blue	red	red	blue	right	left	0.3	0.7	6	2	1.8	1.4	1	0	0.7	0.3	2	6	1.4	1.8	invalid	1.03305454099973	51200	0	0	2	53248	0	51200	1	53248	0	0.7	51200	blue	red	0	0	ml	2.7.3	bip	sub-01_ses-01_task-ml_proj-bip_2020-10-16-10-14-12.141483
71	4	1	2	72	volatile	2	40	32	vs	red	blue	red	blue	left	right	0.3	0.7	4	6	1.2	4.2	0	1	0.3	0.7	4	6	1.2	4.2	valid	1.08306001299934	53248	0	1	2	53248	1	53248	1	53248	1	0.7	53248	blue	red	1	6	ml	2.7.3	bip	sub-01_ses-01_task-ml_proj-bip_2020-10-16-10-14-12.141483
72	4	1	2	73	volatile	2	40	33	vs	blue	red	red	blue	right	left	0.3	0.7	2	4	0.6	2.8	0	1	0.7	0.3	4	2	2.8	0.6	valid	0.516533494001124	51200	0	0	2	51200	1	51200	1	51200	1	0.7	51200	blue	red	1	4	ml	2.7.3	bip	sub-01_ses-01_task-ml_proj-bip_2020-10-16-10-14-12.141483
73	4	1	2	74	volatile	2	40	34	vs	blue	red	red	blue	right	left	0.3	0.7	2	6	0.6	4.2	0	1	0.7	0.3	6	2	4.2	0.6	valid	0.499875788000281	51200	0	0	2	51200	1	51200	1	51200	1	0.7	51200	blue	red	1	6	ml	2.7.3	bip	sub-01_ses-01_task-ml_proj-bip_2020-10-16-10-14-12.141483
74	4	1	2	75	volatile	2	40	35	vs	blue	red	red	blue	right	left	0.3	0.7	4	2	1.2	1.4	0	1	0.7	0.3	2	4	1.4	1.2	valid	1.43293960600022	53248	0	1	1	51200	0	51200	0	53248	1	0.7	51200	blue	red	0	0	ml	2.7.3	bip	sub-01_ses-01_task-ml_proj-bip_2020-10-16-10-14-12.141483
75	4	1	2	76	volatile	2	40	36	vs	red	blue	red	blue	left	right	0.3	0.7	10	2	3.0	1.4	0	1	0.3	0.7	10	2	3.0	1.4	valid	0.7164754410005121	51200	0	0	1	51200	1	53248	0	51200	1	0.7	53248	blue	red	0	0	ml	2.7.3	bip	sub-01_ses-01_task-ml_proj-bip_2020-10-16-10-14-12.141483
76	4	1	2	77	volatile	2	40	37	vs	red	blue	red	blue	left	right	0.3	0.7	2	10	0.6	7.0	1	0	0.3	0.7	2	10	0.6	7.0	invalid	0.566542238000693	53248	0	1	2	53248	1	53248	1	53248	1	0.7	53248	blue	red	1	0	ml	2.7.3	bip	sub-01_ses-01_task-ml_proj-bip_2020-10-16-10-14-12.141483
77	4	1	2	78	volatile	2	40	38	vs	blue	red	red	blue	right	left	0.3	0.7	10	2	3.0	1.4	1	0	0.7	0.3	2	10	1.4	3.0	invalid	0.6498396289989611	53248	0	1	1	53248	1	51200	0	53248	1	0.7	51200	blue	red	0	10	ml	2.7.3	bip	sub-01_ses-01_task-ml_proj-bip_2020-10-16-10-14-12.141483
78	4	1	2	79	volatile	2	40	39	vs	red	blue	red	blue	left	right	0.3	0.7	6	4	1.8	2.8	1	0	0.3	0.7	6	4	1.8	2.8	invalid	0.5331978930007609	51200	0	0	1	53248	0	53248	0	51200	1	0.7	53248	blue	red	0	6	ml	2.7.3	bip	sub-01_ses-01_task-ml_proj-bip_2020-10-16-10-14-12.141483
79	4	1	2	80	volatile	2	40	40	vs	blue	red	red	blue	right	left	0.3	0.7	6	6	1.8	4.2	1	0	0.7	0.3	6	6	4.2	1.8	invalid	0.5332100209998321	53248	0	1	1	51200	0	51200	0	53248	1	0.7	51200	blue	red	1	6	ml	2.7.3	bip	sub-01_ses-01_task-ml_proj-bip_2020-10-16-10-14-12.141483
80	4	1	2	81	volatile	3	40	1	vs	red	blue	red	blue	left	right	0.7	0.3	2	10	1.4	3.0	1	0	0.7	0.3	2	10	1.4	3.0	valid	0.883103750000373	53248	0	1	2	53248	1	51200	0	53248	1	0.7	51200	red	blue	0	0	ml	2.7.3	bip	sub-01_ses-01_task-ml_proj-bip_2020-10-16-10-14-12.141483
81	4	1	2	82	volatile	3	40	2	vs	red	blue	red	blue	left	right	0.7	0.3	6	4	4.2	1.2	0	1	0.7	0.3	6	4	4.2	1.2	invalid	0.566527115999634	51200	0	0	1	51200	1	51200	1	51200	1	0.7	51200	red	blue	1	0	ml	2.7.3	bip	sub-01_ses-01_task-ml_proj-bip_2020-10-16-10-14-12.141483
82	4	1	2	83	volatile	3	40	3	vs	blue	red	red	blue	right	left	0.7	0.3	2	10	1.4	3.0	1	0	0.3	0.7	10	2	3.0	1.4	valid	0.8164412109999829	51200	0	0	2	51200	1	53248	0	51200	1	0.7	53248	red	blue	0	0	ml	2.7.3	bip	sub-01_ses-01_task-ml_proj-bip_2020-10-16-10-14-12.141483
83	4	1	2	84	volatile	3	40	4	vs	red	blue	red	blue	left	right	0.7	0.3	6	6	4.2	1.8	1	0	0.7	0.3	6	6	4.2	1.8	valid	0.7831240989999059	51200	0	0	1	51200	1	51200	1	53248	0	0.7	51200	red	blue	1	6	ml	2.7.3	bip	sub-01_ses-01_task-ml_proj-bip_2020-10-16-10-14-12.141483
84	4	1	2	85	volatile	3	40	5	vs	blue	red	red	blue	right	left	0.7	0.3	10	2	7.0	0.6	0	1	0.3	0.7	2	10	0.6	7.0	invalid	0.549877650999406	53248	0	1	1	53248	1	53248	1	53248	1	0.7	53248	red	blue	1	0	ml	2.7.3	bip	sub-01_ses-01_task-ml_proj-bip_2020-10-16-10-14-12.141483
85	4	1	2	86	volatile	3	40	6	vs	blue	red	red	blue	right	left	0.7	0.3	2	4	1.4	1.2	1	0	0.3	0.7	4	2	1.2	1.4	valid	0.6498324330004829	51200	0	0	2	53248	0	53248	0	51200	1	0.7	53248	red	blue	0	0	ml	2.7.3	bip	sub-01_ses-01_task-ml_proj-bip_2020-10-16-10-14-12.141483
86	4	1	2	87	volatile	3	40	7	vs	blue	red	red	blue	right	left	0.7	0.3	2	2	1.4	0.6	1	0	0.3	0.7	2	2	0.6	1.4	valid	0.5665347909998671	53248	0	1	1	53248	1	53248	1	53248	1	0.7	53248	red	blue	0	2	ml	2.7.3	bip	sub-01_ses-01_task-ml_proj-bip_2020-10-16-10-14-12.141483
87	4	1	2	88	volatile	3	40	8	vs	red	blue	red	blue	left	right	0.7	0.3	2	2	1.4	0.6	0	1	0.7	0.3	2	2	1.4	0.6	invalid	0.5331996240001899	51200	0	0	1	51200	1	51200	1	53248	0	0.7	51200	red	blue	1	0	ml	2.7.3	bip	sub-01_ses-01_task-ml_proj-bip_2020-10-16-10-14-12.141483
88	4	1	2	89	volatile	3	40	9	vs	blue	red	red	blue	right	left	0.7	0.3	2	6	1.4	1.8	1	0	0.3	0.7	6	2	1.8	1.4	valid	1.08303335800156	51200	0	0	2	51200	1	53248	0	51200	1	0.7	53248	red	blue	0	0	ml	2.7.3	bip	sub-01_ses-01_task-ml_proj-bip_2020-10-16-10-14-12.141483
89	4	1	2	90	volatile	3	40	10	vs	red	blue	red	blue	left	right	0.7	0.3	6	4	4.2	1.2	1	0	0.7	0.3	6	4	4.2	1.2	valid	0.466552476000288	51200	0	0	1	51200	1	51200	1	51200	1	0.7	51200	red	blue	1	6	ml	2.7.3	bip	sub-01_ses-01_task-ml_proj-bip_2020-10-16-10-14-12.141483
90	4	1	2	91	volatile	3	40	11	vs	red	blue	red	blue	left	right	0.7	0.3	2	6	1.4	1.8	1	0	0.7	0.3	2	6	1.4	1.8	valid	1.13301724300072	51200	0	0	1	53248	0	51200	1	53248	0	0.7	51200	red	blue	0	2	ml	2.7.3	bip	sub-01_ses-01_task-ml_proj-bip_2020-10-16-10-14-12.141483
91	4	1	2	92	volatile	3	40	12	vs	red	blue	red	blue	left	right	0.7	0.3	10	2	7.0	0.6	1	0	0.7	0.3	10	2	7.0	0.6	valid	0.549859396998727	51200	0	0	1	51200	1	51200	1	51200	1	0.7	51200	red	blue	1	10	ml	2.7.3	bip	sub-01_ses-01_task-ml_proj-bip_2020-10-16-10-14-12.141483
92	4	1	2	93	volatile	3	40	13	vs	red	blue	red	blue	left	right	0.7	0.3	2	6	1.4	1.8	1	0	0.7	0.3	2	6	1.4	1.8	valid	1.06637192000017	51200	0	0	1	53248	0	51200	1	53248	0	0.7	51200	red	blue	0	2	ml	2.7.3	bip	sub-01_ses-01_task-ml_proj-bip_2020-10-16-10-14-12.141483
93	4	1	2	94	volatile	3	40	14	vs	blue	red	red	blue	right	left	0.7	0.3	2	4	1.4	1.2	1	0	0.3	0.7	4	2	1.2	1.4	valid	1.29964485200071	53248	0	1	1	53248	1	53248	1	51200	0	0.7	53248	red	blue	0	2	ml	2.7.3	bip	sub-01_ses-01_task-ml_proj-bip_2020-10-16-10-14-12.141483
94	4	1	2	95	volatile	3	40	15	vs	blue	red	red	blue	right	left	0.7	0.3	2	6	1.4	1.8	1	0	0.3	0.7	6	2	1.8	1.4	valid	0.899762482000369	53248	0	1	1	51200	0	53248	1	51200	0	0.7	53248	red	blue	0	2	ml	2.7.3	bip	sub-01_ses-01_task-ml_proj-bip_2020-10-16-10-14-12.141483
95	4	1	2	96	volatile	3	40	16	vs	blue	red	red	blue	right	left	0.7	0.3	6	4	4.2	1.2	1	0	0.3	0.7	4	6	1.2	4.2	valid	0.566535020998344	53248	0	1	1	53248	1	53248	1	53248	1	0.7	53248	red	blue	1	6	ml	2.7.3	bip	sub-01_ses-01_task-ml_proj-bip_2020-10-16-10-14-12.141483
96	4	1	2	97	volatile	3	40	17	vs	red	blue	red	blue	left	right	0.7	0.3	2	4	1.4	1.2	0	1	0.7	0.3	2	4	1.4	1.2	invalid	1.48291296000025	51200	0	0	1	51200	1	51200	1	53248	0	0.7	51200	red	blue	0	0	ml	2.7.3	bip	sub-01_ses-01_task-ml_proj-bip_2020-10-16-10-14-12.141483
97	4	1	2	98	volatile	3	40	18	vs	blue	red	red	blue	right	left	0.7	0.3	10	2	7.0	0.6	1	0	0.3	0.7	2	10	0.6	7.0	valid	0.5998619249985501	53248	0	1	1	53248	1	53248	1	53248	1	0.7	53248	red	blue	1	10	ml	2.7.3	bip	sub-01_ses-01_task-ml_proj-bip_2020-10-16-10-14-12.141483
98	4	1	2	99	volatile	3	40	19	vs	red	blue	red	blue	left	right	0.7	0.3	10	2	7.0	0.6	0	1	0.7	0.3	10	2	7.0	0.6	invalid	0.499871645999519	51200	0	0	1	51200	1	51200	1	51200	1	0.7	51200	red	blue	1	0	ml	2.7.3	bip	sub-01_ses-01_task-ml_proj-bip_2020-10-16-10-14-12.141483
99	4	1	2	100	volatile	3	40	20	vs	red	blue	red	blue	left	right	0.7	0.3	4	2	2.8	0.6	1	0	0.7	0.3	4	2	2.8	0.6	valid	0.566518870000436	51200	0	0	1	51200	1	51200	1	51200	1	0.7	51200	red	blue	1	4	ml	2.7.3	bip	sub-01_ses-01_task-ml_proj-bip_2020-10-16-10-14-12.141483
100	4	1	3	101	volatile	3	40	21	vs	red	blue	red	blue	left	right	0.7	0.3	2	2	1.4	0.6	1	0	0.7	0.3	2	2	1.4	0.6	valid	0.7997847210008331	51200	0	0	1	51200	1	51200	1	53248	0	0.7	51200	red	blue	1	2	ml	2.7.3	bip	sub-01_ses-01_task-ml_proj-bip_2020-10-16-10-14-12.141483
101	4	1	3	102	volatile	3	40	22	vs	blue	red	red	blue	right	left	0.7	0.3	4	2	2.8	0.6	1	0	0.3	0.7	2	4	0.6	2.8	valid	0.566535204001411	53248	0	1	1	53248	1	53248	1	53248	1	0.7	53248	red	blue	1	4	ml	2.7.3	bip	sub-01_ses-01_task-ml_proj-bip_2020-10-16-10-14-12.141483
102	4	1	3	103	volatile	3	40	23	vs	blue	red	red	blue	right	left	0.7	0.3	6	2	4.2	0.6	0	1	0.3	0.7	2	6	0.6	4.2	invalid	0.533210804000191	53248	0	1	1	53248	1	53248	1	53248	1	0.7	53248	red	blue	1	0	ml	2.7.3	bip	sub-01_ses-01_task-ml_proj-bip_2020-10-16-10-14-12.141483
103	4	1	3	104	volatile	3	40	24	vs	red	blue	red	blue	left	right	0.7	0.3	6	4	4.2	1.2	1	0	0.7	0.3	6	4	4.2	1.2	valid	0.6664888529994639	51200	0	0	1	51200	1	51200	1	51200	1	0.7	51200	red	blue	1	6	ml	2.7.3	bip	sub-01_ses-01_task-ml_proj-bip_2020-10-16-10-14-12.141483
104	4	1	3	105	volatile	3	40	25	vs	blue	red	red	blue	right	left	0.7	0.3	6	4	4.2	1.2	0	1	0.3	0.7	4	6	1.2	4.2	invalid	0.5498724579993001	53248	0	1	1	53248	1	53248	1	53248	1	0.7	53248	red	blue	1	0	ml	2.7.3	bip	sub-01_ses-01_task-ml_proj-bip_2020-10-16-10-14-12.141483
105	4	1	3	106	volatile	3	40	26	vs	blue	red	red	blue	right	left	0.7	0.3	4	2	2.8	0.6	1	0	0.3	0.7	2	4	0.6	2.8	valid	0.633169811000698	53248	0	1	1	53248	1	53248	1	53248	1	0.7	53248	red	blue	1	4	ml	2.7.3	bip	sub-01_ses-01_task-ml_proj-bip_2020-10-16-10-14-12.141483
106	4	1	3	107	volatile	3	40	27	vs	red	blue	red	blue	left	right	0.7	0.3	6	2	4.2	0.6	1	0	0.7	0.3	6	2	4.2	0.6	valid	0.499876170999414	51200	0	0	1	51200	1	51200	1	51200	1	0.7	51200	red	blue	1	6	ml	2.7.3	bip	sub-01_ses-01_task-ml_proj-bip_2020-10-16-10-14-12.141483
107	4	1	3	108	volatile	3	40	28	vs	red	blue	red	blue	left	right	0.7	0.3	10	2	7.0	0.6	1	0	0.7	0.3	10	2	7.0	0.6	valid	0.466550284001642	51200	0	0	1	51200	1	51200	1	51200	1	0.7	51200	red	blue	1	10	ml	2.7.3	bip	sub-01_ses-01_task-ml_proj-bip_2020-10-16-10-14-12.141483
108	4	1	3	109	volatile	3	40	29	vs	blue	red	red	blue	right	left	0.7	0.3	6	2	4.2	0.6	0	1	0.3	0.7	2	6	0.6	4.2	invalid	0.549871788000019	53248	0	1	1	53248	1	53248	1	53248	1	0.7	53248	red	blue	1	0	ml	2.7.3	bip	sub-01_ses-01_task-ml_proj-bip_2020-10-16-10-14-12.141483
109	4	1	3	110	volatile	3	40	30	vs	red	blue	red	blue	left	right	0.7	0.3	2	2	1.4	0.6	0	1	0.7	0.3	2	2	1.4	0.6	invalid	0.866431175998514	51200	0	0	1	51200	1	51200	1	53248	0	0.7	51200	red	blue	1	0	ml	2.7.3	bip	sub-01_ses-01_task-ml_proj-bip_2020-10-16-10-14-12.141483
110	4	1	3	111	volatile	3	40	31	vs	blue	red	red	blue	right	left	0.7	0.3	6	6	4.2	1.8	1	0	0.3	0.7	6	6	1.8	4.2	valid	0.516537333000088	51200	0	0	2	53248	0	53248	0	53248	0	0.7	53248	red	blue	0	0	ml	2.7.3	bip	sub-01_ses-01_task-ml_proj-bip_2020-10-16-10-14-12.141483
111	4	1	3	112	volatile	3	40	32	vs	blue	red	red	blue	right	left	0.7	0.3	6	6	4.2	1.8	0	1	0.3	0.7	6	6	1.8	4.2	invalid	1.53290982600083	53248	0	1	1	53248	1	53248	1	53248	1	0.7	53248	red	blue	0	0	ml	2.7.3	bip	sub-01_ses-01_task-ml_proj-bip_2020-10-16-10-14-12.141483
112	4	1	3	113	volatile	3	40	33	vs	blue	red	red	blue	right	left	0.7	0.3	6	6	4.2	1.8	0	1	0.3	0.7	6	6	1.8	4.2	invalid	0.8331084260007628	51200	0	0	2	53248	0	53248	0	53248	0	0.7	53248	red	blue	0	6	ml	2.7.3	bip	sub-01_ses-01_task-ml_proj-bip_2020-10-16-10-14-12.141483
113	4	1	3	114	volatile	3	40	34	vs	blue	red	red	blue	right	left	0.7	0.3	6	4	4.2	1.2	1	0	0.3	0.7	4	6	1.2	4.2	valid	0.48321261000091903	51200	0	0	2	53248	0	53248	0	53248	0	0.7	53248	red	blue	1	0	ml	2.7.3	bip	sub-01_ses-01_task-ml_proj-bip_2020-10-16-10-14-12.141483
114	4	1	3	115	volatile	3	40	35	vs	red	blue	red	blue	left	right	0.7	0.3	4	2	2.8	0.6	1	0	0.7	0.3	4	2	2.8	0.6	valid	0.716478844999074	51200	0	0	1	51200	1	51200	1	51200	1	0.7	51200	red	blue	1	4	ml	2.7.3	bip	sub-01_ses-01_task-ml_proj-bip_2020-10-16-10-14-12.141483
115	4	1	3	116	volatile	3	40	36	vs	blue	red	red	blue	right	left	0.7	0.3	10	2	7.0	0.6	1	0	0.3	0.7	2	10	0.6	7.0	valid	0.4832211559987629	53248	0	1	1	53248	1	53248	1	53248	1	0.7	53248	red	blue	1	10	ml	2.7.3	bip	sub-01_ses-01_task-ml_proj-bip_2020-10-16-10-14-12.141483
116	4	1	3	117	volatile	3	40	37	vs	red	blue	red	blue	left	right	0.7	0.3	6	2	4.2	0.6	0	1	0.7	0.3	6	2	4.2	0.6	invalid	0.549859143000504	51200	0	0	1	51200	1	51200	1	51200	1	0.7	51200	red	blue	1	0	ml	2.7.3	bip	sub-01_ses-01_task-ml_proj-bip_2020-10-16-10-14-12.141483
117	4	1	3	118	volatile	3	40	38	vs	red	blue	red	blue	left	right	0.7	0.3	6	4	4.2	1.2	1	0	0.7	0.3	6	4	4.2	1.2	valid	0.5498586339999749	51200	0	0	1	51200	1	51200	1	51200	1	0.7	51200	red	blue	1	6	ml	2.7.3	bip	sub-01_ses-01_task-ml_proj-bip_2020-10-16-10-14-12.141483
118	4	1	3	119	volatile	3	40	39	vs	blue	red	red	blue	right	left	0.7	0.3	4	2	2.8	0.6	1	0	0.3	0.7	2	4	0.6	2.8	valid	0.5665319149993591	53248	0	1	1	53248	1	53248	1	53248	1	0.7	53248	red	blue	1	4	ml	2.7.3	bip	sub-01_ses-01_task-ml_proj-bip_2020-10-16-10-14-12.141483
119	4	1	3	120	volatile	3	40	40	vs	red	blue	red	blue	left	right	0.7	0.3	4	6	2.8	1.8	1	0	0.7	0.3	4	6	2.8	1.8	valid	0.9330748050015241	51200	0	0	1	51200	1	51200	1	53248	0	0.7	51200	red	blue	0	4	ml	2.7.3	bip	sub-01_ses-01_task-ml_proj-bip_2020-10-16-10-14-12.141483
120	4	1	3	121	volatile	4	20	1	vs	blue	red	red	blue	right	left	0.3	0.7	2	6	0.6	4.2	0	1	0.7	0.3	6	2	4.2	0.6	valid	0.683152478999546	51200	0	0	2	51200	1	51200	1	51200	1	0.7	51200	blue	red	1	6	ml	2.7.3	bip	sub-01_ses-01_task-ml_proj-bip_2020-10-16-10-14-12.141483
121	4	1	3	122	volatile	4	20	2	vs	red	blue	red	blue	left	right	0.3	0.7	4	2	1.2	1.4	1	0	0.3	0.7	4	2	1.2	1.4	invalid	0.8997551879983801	51200	0	0	1	53248	0	53248	0	51200	1	0.7	53248	blue	red	0	4	ml	2.7.3	bip	sub-01_ses-01_task-ml_proj-bip_2020-10-16-10-14-12.141483
122	4	1	3	123	volatile	4	20	3	vs	blue	red	red	blue	right	left	0.3	0.7	4	6	1.2	4.2	0	1	0.7	0.3	6	4	4.2	1.2	valid	1.0497190320002099	53248	0	1	1	51200	0	51200	0	51200	0	0.7	51200	blue	red	1	0	ml	2.7.3	bip	sub-01_ses-01_task-ml_proj-bip_2020-10-16-10-14-12.141483
123	4	1	3	124	volatile	4	20	4	vs	red	blue	red	blue	left	right	0.3	0.7	2	6	0.6	4.2	0	1	0.3	0.7	2	6	0.6	4.2	valid	0.9164255730011059	53248	0	1	2	53248	1	53248	1	53248	1	0.7	53248	blue	red	1	6	ml	2.7.3	bip	sub-01_ses-01_task-ml_proj-bip_2020-10-16-10-14-12.141483
124	4	1	3	125	volatile	4	20	5	vs	blue	red	red	blue	right	left	0.3	0.7	6	6	1.8	4.2	0	1	0.7	0.3	6	6	4.2	1.8	valid	0.516535360999114	51200	0	0	2	51200	1	51200	1	53248	0	0.7	51200	blue	red	1	6	ml	2.7.3	bip	sub-01_ses-01_task-ml_proj-bip_2020-10-16-10-14-12.141483
125	4	1	3	126	volatile	4	20	6	vs	blue	red	red	blue	right	left	0.3	0.7	10	2	3.0	1.4	0	1	0.7	0.3	2	10	1.4	3.0	valid	1.0497121750013299	53248	0	1	1	53248	1	51200	0	53248	1	0.7	51200	blue	red	0	0	ml	2.7.3	bip	sub-01_ses-01_task-ml_proj-bip_2020-10-16-10-14-12.141483
126	4	1	3	127	volatile	4	20	7	vs	blue	red	red	blue	right	left	0.3	0.7	10	2	3.0	1.4	0	1	0.7	0.3	2	10	1.4	3.0	valid	0.7164905829995408	53248	0	1	1	53248	1	51200	0	53248	1	0.7	51200	blue	red	0	0	ml	2.7.3	bip	sub-01_ses-01_task-ml_proj-bip_2020-10-16-10-14-12.141483
127	4	1	3	128	volatile	4	20	8	vs	red	blue	red	blue	left	right	0.3	0.7	4	2	1.2	1.4	0	1	0.3	0.7	4	2	1.2	1.4	valid	0.8497803589998509	53248	0	1	2	53248	1	53248	1	51200	0	0.7	53248	blue	red	0	2	ml	2.7.3	bip	sub-01_ses-01_task-ml_proj-bip_2020-10-16-10-14-12.141483
128	4	1	3	129	volatile	4	20	9	vs	red	blue	red	blue	left	right	0.3	0.7	2	2	0.6	1.4	0	1	0.3	0.7	2	2	0.6	1.4	valid	0.5165455609985661	53248	0	1	2	53248	1	53248	1	53248	1	0.7	53248	blue	red	0	2	ml	2.7.3	bip	sub-01_ses-01_task-ml_proj-bip_2020-10-16-10-14-12.141483
129	4	1	3	130	volatile	4	20	10	vs	red	blue	red	blue	left	right	0.3	0.7	10	2	3.0	1.4	0	1	0.3	0.7	10	2	3.0	1.4	valid	1.0330485960003	51200	0	0	1	51200	1	53248	0	51200	1	0.7	53248	blue	red	0	0	ml	2.7.3	bip	sub-01_ses-01_task-ml_proj-bip_2020-10-16-10-14-12.141483
130	4	1	3	131	volatile	4	20	11	vs	blue	red	red	blue	right	left	0.3	0.7	4	6	1.2	4.2	0	1	0.7	0.3	6	4	4.2	1.2	valid	0.583188812999651	51200	0	0	2	51200	1	51200	1	51200	1	0.7	51200	blue	red	1	6	ml	2.7.3	bip	sub-01_ses-01_task-ml_proj-bip_2020-10-16-10-14-12.141483
131	4	1	3	132	volatile	4	20	12	vs	blue	red	red	blue	right	left	0.3	0.7	4	2	1.2	1.4	0	1	0.7	0.3	2	4	1.4	1.2	valid	1.19965795499957	51200	0	0	2	51200	1	51200	1	53248	0	0.7	51200	blue	red	0	2	ml	2.7.3	bip	sub-01_ses-01_task-ml_proj-bip_2020-10-16-10-14-12.141483
132	4	1	3	133	volatile	4	20	13	vs	red	blue	red	blue	left	right	0.3	0.7	10	2	3.0	1.4	1	0	0.3	0.7	10	2	3.0	1.4	invalid	0.699819172001298	51200	0	0	1	51200	1	53248	0	51200	1	0.7	53248	blue	red	0	10	ml	2.7.3	bip	sub-01_ses-01_task-ml_proj-bip_2020-10-16-10-14-12.141483
133	4	1	3	134	volatile	4	20	14	vs	blue	red	red	blue	right	left	0.3	0.7	4	2	1.2	1.4	1	0	0.7	0.3	2	4	1.4	1.2	invalid	0.7164938690002599	53248	0	1	1	51200	0	51200	0	53248	1	0.7	51200	blue	red	0	4	ml	2.7.3	bip	sub-01_ses-01_task-ml_proj-bip_2020-10-16-10-14-12.141483
134	4	1	3	135	volatile	4	20	15	vs	red	blue	red	blue	left	right	0.3	0.7	6	2	1.8	1.4	0	1	0.3	0.7	6	2	1.8	1.4	valid	0.49987469900042897	51200	0	0	1	51200	1	53248	0	51200	1	0.7	53248	blue	red	0	0	ml	2.7.3	bip	sub-01_ses-01_task-ml_proj-bip_2020-10-16-10-14-12.141483
135	4	1	3	136	volatile	4	20	16	vs	blue	red	red	blue	right	left	0.3	0.7	6	4	1.8	2.8	1	0	0.7	0.3	4	6	2.8	1.8	invalid	0.6331814750010379	53248	0	1	1	51200	0	51200	0	53248	1	0.7	51200	blue	red	0	6	ml	2.7.3	bip	sub-01_ses-01_task-ml_proj-bip_2020-10-16-10-14-12.141483
136	4	1	3	137	volatile	4	20	17	vs	red	blue	red	blue	left	right	0.3	0.7	4	6	1.2	4.2	0	1	0.3	0.7	4	6	1.2	4.2	valid	0.649827920000462	51200	0	0	1	53248	0	53248	0	53248	0	0.7	53248	blue	red	1	0	ml	2.7.3	bip	sub-01_ses-01_task-ml_proj-bip_2020-10-16-10-14-12.141483
137	4	1	3	138	volatile	4	20	18	vs	red	blue	red	blue	left	right	0.3	0.7	2	6	0.6	4.2	0	1	0.3	0.7	2	6	0.6	4.2	valid	0.749809330998687	53248	0	1	2	53248	1	53248	1	53248	1	0.7	53248	blue	red	1	6	ml	2.7.3	bip	sub-01_ses-01_task-ml_proj-bip_2020-10-16-10-14-12.141483
138	4	1	3	139	volatile	4	20	19	vs	red	blue	red	blue	left	right	0.3	0.7	2	2	0.6	1.4	1	0	0.3	0.7	2	2	0.6	1.4	invalid	0.649840803000188	53248	0	1	2	53248	1	53248	1	53248	1	0.7	53248	blue	red	0	0	ml	2.7.3	bip	sub-01_ses-01_task-ml_proj-bip_2020-10-16-10-14-12.141483
139	4	1	3	140	volatile	4	20	20	vs	blue	red	red	blue	right	left	0.3	0.7	6	6	1.8	4.2	1	0	0.7	0.3	6	6	4.2	1.8	invalid	0.583182203001343	51200	0	0	2	51200	1	51200	1	53248	0	0.7	51200	blue	red	1	0	ml	2.7.3	bip	sub-01_ses-01_task-ml_proj-bip_2020-10-16-10-14-12.141483
140	4	1	3	141	volatile	5	20	1	vs	red	blue	red	blue	left	right	0.7	0.3	4	6	2.8	1.8	0	1	0.7	0.3	4	6	2.8	1.8	invalid	0.633165871999154	51200	0	0	1	51200	1	51200	1	53248	0	0.7	51200	red	blue	0	0	ml	2.7.3	bip	sub-01_ses-01_task-ml_proj-bip_2020-10-16-10-14-12.141483
141	4	1	3	142	volatile	5	20	2	vs	red	blue	red	blue	left	right	0.7	0.3	4	2	2.8	0.6	1	0	0.7	0.3	4	2	2.8	0.6	valid	0.8164470729989259	51200	0	0	1	51200	1	51200	1	51200	1	0.7	51200	red	blue	1	4	ml	2.7.3	bip	sub-01_ses-01_task-ml_proj-bip_2020-10-16-10-14-12.141483
142	4	1	3	143	volatile	5	20	3	vs	red	blue	red	blue	left	right	0.7	0.3	2	6	1.4	1.8	0	1	0.7	0.3	2	6	1.4	1.8	invalid	0.733147946000827	53248	0	1	2	53248	1	51200	0	53248	1	0.7	51200	red	blue	0	6	ml	2.7.3	bip	sub-01_ses-01_task-ml_proj-bip_2020-10-16-10-14-12.141483
143	4	1	3	144	volatile	5	20	4	vs	blue	red	red	blue	right	left	0.7	0.3	2	10	1.4	3.0	0	1	0.3	0.7	10	2	3.0	1.4	invalid	0.48321059299996705	51200	0	0	2	51200	1	53248	0	51200	1	0.7	53248	red	blue	0	10	ml	2.7.3	bip	sub-01_ses-01_task-ml_proj-bip_2020-10-16-10-14-12.141483
144	4	1	3	145	volatile	5	20	5	vs	red	blue	red	blue	left	right	0.7	0.3	4	2	2.8	0.6	1	0	0.7	0.3	4	2	2.8	0.6	valid	0.699821135000093	51200	0	0	1	51200	1	51200	1	51200	1	0.7	51200	red	blue	1	4	ml	2.7.3	bip	sub-01_ses-01_task-ml_proj-bip_2020-10-16-10-14-12.141483
145	4	1	3	146	volatile	5	20	6	vs	blue	red	red	blue	right	left	0.7	0.3	10	2	7.0	0.6	1	0	0.3	0.7	2	10	0.6	7.0	valid	0.566532941000332	53248	0	1	1	53248	1	53248	1	53248	1	0.7	53248	red	blue	1	10	ml	2.7.3	bip	sub-01_ses-01_task-ml_proj-bip_2020-10-16-10-14-12.141483
146	4	1	3	147	volatile	5	20	7	vs	red	blue	red	blue	left	right	0.7	0.3	10	2	7.0	0.6	1	0	0.7	0.3	10	2	7.0	0.6	valid	0.566523141000289	51200	0	0	1	51200	1	51200	1	51200	1	0.7	51200	red	blue	1	10	ml	2.7.3	bip	sub-01_ses-01_task-ml_proj-bip_2020-10-16-10-14-12.141483
147	4	1	3	148	volatile	5	20	8	vs	red	blue	red	blue	left	right	0.7	0.3	6	6	4.2	1.8	1	0	0.7	0.3	6	6	4.2	1.8	valid	0.599859324000136	51200	0	0	1	51200	1	51200	1	53248	0	0.7	51200	red	blue	1	6	ml	2.7.3	bip	sub-01_ses-01_task-ml_proj-bip_2020-10-16-10-14-12.141483
148	4	1	3	149	volatile	5	20	9	vs	red	blue	red	blue	left	right	0.7	0.3	2	2	1.4	0.6	1	0	0.7	0.3	2	2	1.4	0.6	valid	0.666494772000078	51200	0	0	1	51200	1	51200	1	53248	0	0.7	51200	red	blue	1	2	ml	2.7.3	bip	sub-01_ses-01_task-ml_proj-bip_2020-10-16-10-14-12.141483
149	4	1	3	150	volatile	5	20	10	vs	red	blue	red	blue	left	right	0.7	0.3	2	6	1.4	1.8	1	0	0.7	0.3	2	6	1.4	1.8	valid	1.0997054569998002	53248	0	1	2	53248	1	51200	0	53248	1	0.7	51200	red	blue	0	0	ml	2.7.3	bip	sub-01_ses-01_task-ml_proj-bip_2020-10-16-10-14-12.141483
150	4	1	4	151	volatile	5	20	11	vs	blue	red	red	blue	right	left	0.7	0.3	4	6	2.8	1.8	1	0	0.3	0.7	6	4	1.8	2.8	valid	0.533203171000423	51200	0	0	2	53248	0	53248	0	51200	1	0.7	53248	red	blue	0	0	ml	2.7.3	bip	sub-01_ses-01_task-ml_proj-bip_2020-10-16-10-14-12.141483
151	4	1	4	152	volatile	5	20	12	vs	blue	red	red	blue	right	left	0.7	0.3	6	6	4.2	1.8	1	0	0.3	0.7	6	6	1.8	4.2	valid	0.616516604000935	53248	0	1	1	53248	1	53248	1	53248	1	0.7	53248	red	blue	0	6	ml	2.7.3	bip	sub-01_ses-01_task-ml_proj-bip_2020-10-16-10-14-12.141483
152	4	1	4	153	volatile	5	20	13	vs	blue	red	red	blue	right	left	0.7	0.3	2	6	1.4	1.8	0	1	0.3	0.7	6	2	1.8	1.4	invalid	0.6831510860010889	51200	0	0	2	51200	1	53248	0	51200	1	0.7	53248	red	blue	0	6	ml	2.7.3	bip	sub-01_ses-01_task-ml_proj-bip_2020-10-16-10-14-12.141483
153	4	1	4	154	volatile	5	20	14	vs	blue	red	red	blue	right	left	0.7	0.3	10	2	7.0	0.6	1	0	0.3	0.7	2	10	0.6	7.0	valid	0.516527657999177	53248	0	1	1	53248	1	53248	1	53248	1	0.7	53248	red	blue	1	10	ml	2.7.3	bip	sub-01_ses-01_task-ml_proj-bip_2020-10-16-10-14-12.141483
154	4	1	4	155	volatile	5	20	15	vs	red	blue	red	blue	left	right	0.7	0.3	6	2	4.2	0.6	1	0	0.7	0.3	6	2	4.2	0.6	valid	0.4665520870003089	51200	0	0	1	51200	1	51200	1	51200	1	0.7	51200	red	blue	1	6	ml	2.7.3	bip	sub-01_ses-01_task-ml_proj-bip_2020-10-16-10-14-12.141483
155	4	1	4	156	volatile	5	20	16	vs	blue	red	red	blue	right	left	0.7	0.3	4	2	2.8	0.6	1	0	0.3	0.7	2	4	0.6	2.8	valid	0.433241269000064	53248	0	1	1	53248	1	53248	1	53248	1	0.7	53248	red	blue	1	4	ml	2.7.3	bip	sub-01_ses-01_task-ml_proj-bip_2020-10-16-10-14-12.141483
156	4	1	4	157	volatile	5	20	17	vs	blue	red	red	blue	right	left	0.7	0.3	6	4	4.2	1.2	1	0	0.3	0.7	4	6	1.2	4.2	valid	0.533207258000402	53248	0	1	1	53248	1	53248	1	53248	1	0.7	53248	red	blue	1	6	ml	2.7.3	bip	sub-01_ses-01_task-ml_proj-bip_2020-10-16-10-14-12.141483
157	4	1	4	158	volatile	5	20	18	vs	blue	red	red	blue	right	left	0.7	0.3	2	2	1.4	0.6	0	1	0.3	0.7	2	2	0.6	1.4	invalid	0.816458602999774	53248	0	1	1	53248	1	53248	1	53248	1	0.7	53248	red	blue	0	0	ml	2.7.3	bip	sub-01_ses-01_task-ml_proj-bip_2020-10-16-10-14-12.141483
158	4	1	4	159	volatile	5	20	19	vs	blue	red	red	blue	right	left	0.7	0.3	4	6	2.8	1.8	1	0	0.3	0.7	6	4	1.8	2.8	valid	0.79979532499965	53248	0	1	1	53248	1	53248	1	51200	0	0.7	53248	red	blue	0	4	ml	2.7.3	bip	sub-01_ses-01_task-ml_proj-bip_2020-10-16-10-14-12.141483
159	4	1	4	160	volatile	5	20	20	vs	red	blue	red	blue	left	right	0.7	0.3	2	4	1.4	1.2	0	1	0.7	0.3	2	4	1.4	1.2	invalid	1.14967930300008	51200	0	0	1	51200	1	51200	1	53248	0	0.7	51200	red	blue	0	0	ml	2.7.3	bip	sub-01_ses-01_task-ml_proj-bip_2020-10-16-10-14-12.141483
160	4	1	4	161	volatile	6	20	1	vs	red	blue	red	blue	left	right	0.3	0.7	10	2	3.0	1.4	1	0	0.3	0.7	10	2	3.0	1.4	invalid	0.616508185999919	51200	0	0	1	51200	1	53248	0	51200	1	0.7	53248	blue	red	0	10	ml	2.7.3	bip	sub-01_ses-01_task-ml_proj-bip_2020-10-16-10-14-12.141483
161	4	1	4	162	volatile	6	20	2	vs	red	blue	red	blue	left	right	0.3	0.7	6	4	1.8	2.8	1	0	0.3	0.7	6	4	1.8	2.8	invalid	0.49987540600159297	51200	0	0	1	53248	0	53248	0	51200	1	0.7	53248	blue	red	0	6	ml	2.7.3	bip	sub-01_ses-01_task-ml_proj-bip_2020-10-16-10-14-12.141483
162	4	1	4	163	volatile	6	20	3	vs	red	blue	red	blue	left	right	0.3	0.7	6	2	1.8	1.4	0	1	0.3	0.7	6	2	1.8	1.4	valid	0.466559327000141	51200	0	0	1	51200	1	53248	0	51200	1	0.7	53248	blue	red	0	0	ml	2.7.3	bip	sub-01_ses-01_task-ml_proj-bip_2020-10-16-10-14-12.141483
163	4	1	4	164	volatile	6	20	4	vs	red	blue	red	blue	left	right	0.3	0.7	4	6	1.2	4.2	0	1	0.3	0.7	4	6	1.2	4.2	valid	0.8997538540006641	51200	0	0	1	53248	0	53248	0	53248	0	0.7	53248	blue	red	1	0	ml	2.7.3	bip	sub-01_ses-01_task-ml_proj-bip_2020-10-16-10-14-12.141483
164	4	1	4	165	volatile	6	20	5	vs	red	blue	red	blue	left	right	0.3	0.7	4	6	1.2	4.2	0	1	0.3	0.7	4	6	1.2	4.2	valid	0.633184712000002	53248	0	1	2	53248	1	53248	1	53248	1	0.7	53248	blue	red	1	6	ml	2.7.3	bip	sub-01_ses-01_task-ml_proj-bip_2020-10-16-10-14-12.141483
165	4	1	4	166	volatile	6	20	6	vs	red	blue	red	blue	left	right	0.3	0.7	6	4	1.8	2.8	0	1	0.3	0.7	6	4	1.8	2.8	valid	0.666501651001454	53248	0	1	2	53248	1	53248	1	51200	0	0.7	53248	blue	red	0	4	ml	2.7.3	bip	sub-01_ses-01_task-ml_proj-bip_2020-10-16-10-14-12.141483
166	4	1	4	167	volatile	6	20	7	vs	red	blue	red	blue	left	right	0.3	0.7	6	6	1.8	4.2	0	1	0.3	0.7	6	6	1.8	4.2	valid	0.5498718899998489	53248	0	1	2	53248	1	53248	1	53248	1	0.7	53248	blue	red	0	6	ml	2.7.3	bip	sub-01_ses-01_task-ml_proj-bip_2020-10-16-10-14-12.141483
167	4	1	4	168	volatile	6	20	8	vs	blue	red	red	blue	right	left	0.3	0.7	6	6	1.8	4.2	0	1	0.7	0.3	6	6	4.2	1.8	valid	0.6165098670007869	51200	0	0	2	51200	1	51200	1	53248	0	0.7	51200	blue	red	1	6	ml	2.7.3	bip	sub-01_ses-01_task-ml_proj-bip_2020-10-16-10-14-12.141483
168	4	1	4	169	volatile	6	20	9	vs	blue	red	red	blue	right	left	0.3	0.7	10	2	3.0	1.4	1	0	0.7	0.3	2	10	1.4	3.0	invalid	0.64984132599966	53248	0	1	1	53248	1	51200	0	53248	1	0.7	51200	blue	red	0	10	ml	2.7.3	bip	sub-01_ses-01_task-ml_proj-bip_2020-10-16-10-14-12.141483
169	4	1	4	170	volatile	6	20	10	vs	blue	red	red	blue	right	left	0.3	0.7	6	2	1.8	1.4	0	1	0.7	0.3	2	6	1.4	1.8	valid	1.0330504070006998	51200	0	0	2	53248	0	51200	1	53248	0	0.7	51200	blue	red	0	2	ml	2.7.3	bip	sub-01_ses-01_task-ml_proj-bip_2020-10-16-10-14-12.141483
170	4	1	4	171	volatile	6	20	11	vs	blue	red	red	blue	right	left	0.3	0.7	2	2	0.6	1.4	0	1	0.7	0.3	2	2	1.4	0.6	valid	0.7498005190009279	51200	0	0	2	51200	1	51200	1	53248	0	0.7	51200	blue	red	1	2	ml	2.7.3	bip	sub-01_ses-01_task-ml_proj-bip_2020-10-16-10-14-12.141483
171	4	1	4	172	volatile	6	20	12	vs	blue	red	red	blue	right	left	0.3	0.7	2	2	0.6	1.4	1	0	0.7	0.3	2	2	1.4	0.6	invalid	0.5498623459989179	51200	0	0	2	51200	1	51200	1	53248	0	0.7	51200	blue	red	1	0	ml	2.7.3	bip	sub-01_ses-01_task-ml_proj-bip_2020-10-16-10-14-12.141483
172	4	1	4	173	volatile	6	20	13	vs	red	blue	red	blue	left	right	0.3	0.7	4	2	1.2	1.4	0	1	0.3	0.7	4	2	1.2	1.4	valid	1.14968893500009	51200	0	0	1	53248	0	53248	0	51200	1	0.7	53248	blue	red	0	0	ml	2.7.3	bip	sub-01_ses-01_task-ml_proj-bip_2020-10-16-10-14-12.141483
173	4	1	4	174	volatile	6	20	14	vs	blue	red	red	blue	right	left	0.3	0.7	10	2	3.0	1.4	0	1	0.7	0.3	2	10	1.4	3.0	valid	0.799794302000009	53248	0	1	1	53248	1	51200	0	53248	1	0.7	51200	blue	red	0	0	ml	2.7.3	bip	sub-01_ses-01_task-ml_proj-bip_2020-10-16-10-14-12.141483
174	4	1	4	175	volatile	6	20	15	vs	blue	red	red	blue	right	left	0.3	0.7	6	2	1.8	1.4	0	1	0.7	0.3	2	6	1.4	1.8	valid	1.1663401260011599	51200	0	0	2	53248	0	51200	1	53248	0	0.7	51200	blue	red	0	2	ml	2.7.3	bip	sub-01_ses-01_task-ml_proj-bip_2020-10-16-10-14-12.141483
175	4	1	4	176	volatile	6	20	16	vs	blue	red	red	blue	right	left	0.3	0.7	2	4	0.6	2.8	1	0	0.7	0.3	4	2	2.8	0.6	invalid	0.549859871000081	51200	0	0	2	51200	1	51200	1	51200	1	0.7	51200	blue	red	1	0	ml	2.7.3	bip	sub-01_ses-01_task-ml_proj-bip_2020-10-16-10-14-12.141483
176	4	1	4	177	volatile	6	20	17	vs	blue	red	red	blue	right	left	0.3	0.7	4	2	1.2	1.4	0	1	0.7	0.3	2	4	1.4	1.2	valid	0.7498118950006759	53248	0	1	1	51200	0	51200	0	53248	1	0.7	51200	blue	red	0	0	ml	2.7.3	bip	sub-01_ses-01_task-ml_proj-bip_2020-10-16-10-14-12.141483
177	4	1	4	178	volatile	6	20	18	vs	red	blue	red	blue	left	right	0.3	0.7	10	2	3.0	1.4	0	1	0.3	0.7	10	2	3.0	1.4	valid	0.599846690998675	51200	0	0	1	51200	1	53248	0	51200	1	0.7	53248	blue	red	0	0	ml	2.7.3	bip	sub-01_ses-01_task-ml_proj-bip_2020-10-16-10-14-12.141483
178	4	1	4	179	volatile	6	20	19	vs	red	blue	red	blue	left	right	0.3	0.7	6	2	1.8	1.4	1	0	0.3	0.7	6	2	1.8	1.4	invalid	0.866435625999657	51200	0	0	1	51200	1	53248	0	51200	1	0.7	53248	blue	red	0	6	ml	2.7.3	bip	sub-01_ses-01_task-ml_proj-bip_2020-10-16-10-14-12.141483
179	4	1	4	180	volatile	6	20	20	vs	blue	red	red	blue	right	left	0.3	0.7	4	2	1.2	1.4	0	1	0.7	0.3	2	4	1.4	1.2	valid	1.3829477809995299	53248	0	1	1	51200	0	51200	0	53248	1	0.7	51200	blue	red	0	0	ml	2.7.3	bip	sub-01_ses-01_task-ml_proj-bip_2020-10-16-10-14-12.141483
180	4	1	4	181	volatile	7	20	1	vs	red	blue	red	blue	left	right	0.7	0.3	6	4	4.2	1.2	0	1	0.7	0.3	6	4	4.2	1.2	invalid	0.6498397989998921	53248	0	1	2	51200	0	51200	0	51200	0	0.7	51200	red	blue	1	4	ml	2.7.3	bip	sub-01_ses-01_task-ml_proj-bip_2020-10-16-10-14-12.141483
181	4	1	4	182	volatile	7	20	2	vs	red	blue	red	blue	left	right	0.7	0.3	2	10	1.4	3.0	1	0	0.7	0.3	2	10	1.4	3.0	valid	0.5998574570003261	53248	0	1	2	53248	1	51200	0	53248	1	0.7	51200	red	blue	0	0	ml	2.7.3	bip	sub-01_ses-01_task-ml_proj-bip_2020-10-16-10-14-12.141483
182	4	1	4	183	volatile	7	20	3	vs	red	blue	red	blue	left	right	0.7	0.3	6	6	4.2	1.8	1	0	0.7	0.3	6	6	4.2	1.8	valid	0.7664689350003759	53248	0	1	2	51200	0	51200	0	53248	1	0.7	51200	red	blue	1	0	ml	2.7.3	bip	sub-01_ses-01_task-ml_proj-bip_2020-10-16-10-14-12.141483
183	4	1	4	184	volatile	7	20	4	vs	blue	red	red	blue	right	left	0.7	0.3	2	10	1.4	3.0	1	0	0.3	0.7	10	2	3.0	1.4	valid	0.633167320000212	51200	0	0	2	51200	1	53248	0	51200	1	0.7	53248	red	blue	0	0	ml	2.7.3	bip	sub-01_ses-01_task-ml_proj-bip_2020-10-16-10-14-12.141483
184	4	1	4	185	volatile	7	20	5	vs	blue	red	red	blue	right	left	0.7	0.3	4	6	2.8	1.8	1	0	0.3	0.7	6	4	1.8	2.8	valid	0.6665028150000579	53248	0	1	1	53248	1	53248	1	51200	0	0.7	53248	red	blue	0	4	ml	2.7.3	bip	sub-01_ses-01_task-ml_proj-bip_2020-10-16-10-14-12.141483
185	4	1	4	186	volatile	7	20	6	vs	red	blue	red	blue	left	right	0.7	0.3	4	2	2.8	0.6	1	0	0.7	0.3	4	2	2.8	0.6	valid	0.516534403999685	51200	0	0	1	51200	1	51200	1	51200	1	0.7	51200	red	blue	1	4	ml	2.7.3	bip	sub-01_ses-01_task-ml_proj-bip_2020-10-16-10-14-12.141483
186	4	1	4	187	volatile	7	20	7	vs	red	blue	red	blue	left	right	0.7	0.3	4	6	2.8	1.8	0	1	0.7	0.3	4	6	2.8	1.8	invalid	0.549857821000842	51200	0	0	1	51200	1	51200	1	53248	0	0.7	51200	red	blue	0	0	ml	2.7.3	bip	sub-01_ses-01_task-ml_proj-bip_2020-10-16-10-14-12.141483
187	4	1	4	188	volatile	7	20	8	vs	blue	red	red	blue	right	left	0.7	0.3	2	6	1.4	1.8	1	0	0.3	0.7	6	2	1.8	1.4	valid	0.649830364998707	51200	0	0	2	51200	1	53248	0	51200	1	0.7	53248	red	blue	0	0	ml	2.7.3	bip	sub-01_ses-01_task-ml_proj-bip_2020-10-16-10-14-12.141483
188	4	1	4	189	volatile	7	20	9	vs	blue	red	red	blue	right	left	0.7	0.3	2	10	1.4	3.0	0	1	0.3	0.7	10	2	3.0	1.4	invalid	0.666490272000374	51200	0	0	2	51200	1	53248	0	51200	1	0.7	53248	red	blue	0	10	ml	2.7.3	bip	sub-01_ses-01_task-ml_proj-bip_2020-10-16-10-14-12.141483
189	4	1	4	190	volatile	7	20	10	vs	blue	red	red	blue	right	left	0.7	0.3	2	6	1.4	1.8	0	1	0.3	0.7	6	2	1.8	1.4	invalid	0.7164752810003849	51200	0	0	2	51200	1	53248	0	51200	1	0.7	53248	red	blue	0	6	ml	2.7.3	bip	sub-01_ses-01_task-ml_proj-bip_2020-10-16-10-14-12.141483
190	4	1	4	191	volatile	7	20	11	vs	blue	red	red	blue	right	left	0.7	0.3	4	2	2.8	0.6	1	0	0.3	0.7	2	4	0.6	2.8	valid	1.06637715400029	51200	0	0	2	53248	0	53248	0	53248	0	0.7	53248	red	blue	1	0	ml	2.7.3	bip	sub-01_ses-01_task-ml_proj-bip_2020-10-16-10-14-12.141483
191	4	1	4	192	volatile	7	20	12	vs	blue	red	red	blue	right	left	0.7	0.3	6	2	4.2	0.6	1	0	0.3	0.7	2	6	0.6	4.2	valid	1.01639540600081	53248	0	1	1	53248	1	53248	1	53248	1	0.7	53248	red	blue	1	6	ml	2.7.3	bip	sub-01_ses-01_task-ml_proj-bip_2020-10-16-10-14-12.141483
192	4	1	4	193	volatile	7	20	13	vs	red	blue	red	blue	left	right	0.7	0.3	4	2	2.8	0.6	0	1	0.7	0.3	4	2	2.8	0.6	invalid	0.549865512999531	51200	0	0	1	51200	1	51200	1	51200	1	0.7	51200	red	blue	1	0	ml	2.7.3	bip	sub-01_ses-01_task-ml_proj-bip_2020-10-16-10-14-12.141483
193	4	1	4	194	volatile	7	20	14	vs	red	blue	red	blue	left	right	0.7	0.3	6	6	4.2	1.8	1	0	0.7	0.3	6	6	4.2	1.8	valid	1.2663149279997	51200	0	0	1	51200	1	51200	1	53248	0	0.7	51200	red	blue	1	6	ml	2.7.3	bip	sub-01_ses-01_task-ml_proj-bip_2020-10-16-10-14-12.141483
194	4	1	4	195	volatile	7	20	15	vs	blue	red	red	blue	right	left	0.7	0.3	2	2	1.4	0.6	1	0	0.3	0.7	2	2	0.6	1.4	valid	0.6831700160000761	53248	0	1	1	53248	1	53248	1	53248	1	0.7	53248	red	blue	0	2	ml	2.7.3	bip	sub-01_ses-01_task-ml_proj-bip_2020-10-16-10-14-12.141483
195	4	1	4	196	volatile	7	20	16	vs	blue	red	red	blue	right	left	0.7	0.3	6	2	4.2	0.6	1	0	0.3	0.7	2	6	0.6	4.2	valid	0.53320763100055	53248	0	1	1	53248	1	53248	1	53248	1	0.7	53248	red	blue	1	6	ml	2.7.3	bip	sub-01_ses-01_task-ml_proj-bip_2020-10-16-10-14-12.141483
196	4	1	4	197	volatile	7	20	17	vs	blue	red	red	blue	right	left	0.7	0.3	6	4	4.2	1.2	0	1	0.3	0.7	4	6	1.2	4.2	invalid	0.649842681001246	53248	0	1	1	53248	1	53248	1	53248	1	0.7	53248	red	blue	1	0	ml	2.7.3	bip	sub-01_ses-01_task-ml_proj-bip_2020-10-16-10-14-12.141483
197	4	1	4	198	volatile	7	20	18	vs	red	blue	red	blue	left	right	0.7	0.3	2	2	1.4	0.6	1	0	0.7	0.3	2	2	1.4	0.6	valid	0.6664913129989151	51200	0	0	1	51200	1	51200	1	53248	0	0.7	51200	red	blue	1	2	ml	2.7.3	bip	sub-01_ses-01_task-ml_proj-bip_2020-10-16-10-14-12.141483
198	4	1	4	199	volatile	7	20	19	vs	red	blue	red	blue	left	right	0.7	0.3	2	10	1.4	3.0	1	0	0.7	0.3	2	10	1.4	3.0	valid	0.7498225979998101	53248	0	1	2	53248	1	51200	0	53248	1	0.7	51200	red	blue	0	0	ml	2.7.3	bip	sub-01_ses-01_task-ml_proj-bip_2020-10-16-10-14-12.141483
199	4	1	4	200	volatile	7	20	20	vs	red	blue	red	blue	left	right	0.7	0.3	2	4	1.4	1.2	1	0	0.7	0.3	2	4	1.4	1.2	valid	0.9164224929991179	51200	0	0	1	51200	1	51200	1	53248	0	0.7	51200	red	blue	0	2	ml	2.7.3	bip	sub-01_ses-01_task-ml_proj-bip_2020-10-16-10-14-12.141483
200	4	1	5	201	stable	8	200	1	vs	blue	red	red	blue	right	left	0.3	0.7	2	2	0.6	1.4	1	0	0.7	0.3	2	2	1.4	0.6	invalid	0.8331200379998341	53248	0	1	1	51200	0	51200	0	53248	1	0.7	51200	blue	red	1	2	ml	2.7.3	bip	sub-01_ses-01_task-ml_proj-bip_2020-10-16-10-14-12.141483
201	4	1	5	202	stable	8	200	2	vs	red	blue	red	blue	left	right	0.3	0.7	10	2	3.0	1.4	0	1	0.3	0.7	10	2	3.0	1.4	valid	0.49988378099988	51200	0	0	1	51200	1	53248	0	51200	1	0.7	53248	blue	red	0	0	ml	2.7.3	bip	sub-01_ses-01_task-ml_proj-bip_2020-10-16-10-14-12.141483
202	4	1	5	203	stable	8	200	3	vs	red	blue	red	blue	left	right	0.3	0.7	4	6	1.2	4.2	0	1	0.3	0.7	4	6	1.2	4.2	valid	0.8497817249990479	53248	0	1	2	53248	1	53248	1	53248	1	0.7	53248	blue	red	1	6	ml	2.7.3	bip	sub-01_ses-01_task-ml_proj-bip_2020-10-16-10-14-12.141483
203	4	1	5	204	stable	8	200	4	vs	blue	red	red	blue	right	left	0.3	0.7	2	2	0.6	1.4	0	1	0.7	0.3	2	2	1.4	0.6	valid	0.666484075998596	51200	0	0	2	51200	1	51200	1	53248	0	0.7	51200	blue	red	1	2	ml	2.7.3	bip	sub-01_ses-01_task-ml_proj-bip_2020-10-16-10-14-12.141483
204	4	1	5	205	stable	8	200	5	vs	red	blue	red	blue	left	right	0.3	0.7	6	4	1.8	2.8	0	1	0.3	0.7	6	4	1.8	2.8	valid	0.566535246000058	53248	0	1	2	53248	1	53248	1	51200	0	0.7	53248	blue	red	0	4	ml	2.7.3	bip	sub-01_ses-01_task-ml_proj-bip_2020-10-16-10-14-12.141483
205	4	1	5	206	stable	8	200	6	vs	blue	red	red	blue	right	left	0.3	0.7	2	4	0.6	2.8	0	1	0.7	0.3	4	2	2.8	0.6	valid	0.6165157349987571	51200	0	0	2	51200	1	51200	1	51200	1	0.7	51200	blue	red	1	4	ml	2.7.3	bip	sub-01_ses-01_task-ml_proj-bip_2020-10-16-10-14-12.141483
206	4	1	5	207	stable	8	200	7	vs	blue	red	red	blue	right	left	0.3	0.7	2	4	0.6	2.8	0	1	0.7	0.3	4	2	2.8	0.6	valid	0.516537699000764	51200	0	0	2	51200	1	51200	1	51200	1	0.7	51200	blue	red	1	4	ml	2.7.3	bip	sub-01_ses-01_task-ml_proj-bip_2020-10-16-10-14-12.141483
207	4	1	5	208	stable	8	200	8	vs	red	blue	red	blue	left	right	0.3	0.7	6	2	1.8	1.4	0	1	0.3	0.7	6	2	1.8	1.4	valid	0.7498000989999131	51200	0	0	1	51200	1	53248	0	51200	1	0.7	53248	blue	red	0	0	ml	2.7.3	bip	sub-01_ses-01_task-ml_proj-bip_2020-10-16-10-14-12.141483
208	4	1	5	209	stable	8	200	9	vs	blue	red	red	blue	right	left	0.3	0.7	6	4	1.8	2.8	0	1	0.7	0.3	4	6	2.8	1.8	valid	0.5831841369999891	51200	0	0	2	51200	1	51200	1	53248	0	0.7	51200	blue	red	0	4	ml	2.7.3	bip	sub-01_ses-01_task-ml_proj-bip_2020-10-16-10-14-12.141483
209	4	1	5	210	stable	8	200	10	vs	red	blue	red	blue	left	right	0.3	0.7	2	10	0.6	7.0	0	1	0.3	0.7	2	10	0.6	7.0	valid	0.533207467999091	53248	0	1	2	53248	1	53248	1	53248	1	0.7	53248	blue	red	1	10	ml	2.7.3	bip	sub-01_ses-01_task-ml_proj-bip_2020-10-16-10-14-12.141483
210	4	1	5	211	stable	8	200	11	vs	blue	red	red	blue	right	left	0.3	0.7	4	6	1.2	4.2	0	1	0.7	0.3	6	4	4.2	1.2	valid	0.499868872999286	51200	0	0	2	51200	1	51200	1	51200	1	0.7	51200	blue	red	1	6	ml	2.7.3	bip	sub-01_ses-01_task-ml_proj-bip_2020-10-16-10-14-12.141483
211	4	1	5	212	stable	8	200	12	vs	blue	red	red	blue	right	left	0.3	0.7	2	4	0.6	2.8	1	0	0.7	0.3	4	2	2.8	0.6	invalid	0.46654539900009706	51200	0	0	2	51200	1	51200	1	51200	1	0.7	51200	blue	red	1	0	ml	2.7.3	bip	sub-01_ses-01_task-ml_proj-bip_2020-10-16-10-14-12.141483
212	4	1	5	213	stable	8	200	13	vs	red	blue	red	blue	left	right	0.3	0.7	6	6	1.8	4.2	0	1	0.3	0.7	6	6	1.8	4.2	valid	0.5831938720002651	53248	0	1	2	53248	1	53248	1	53248	1	0.7	53248	blue	red	0	6	ml	2.7.3	bip	sub-01_ses-01_task-ml_proj-bip_2020-10-16-10-14-12.141483
213	4	1	5	214	stable	8	200	14	vs	red	blue	red	blue	left	right	0.3	0.7	2	4	0.6	2.8	1	0	0.3	0.7	2	4	0.6	2.8	invalid	0.833117877000404	53248	0	1	2	53248	1	53248	1	53248	1	0.7	53248	blue	red	1	0	ml	2.7.3	bip	sub-01_ses-01_task-ml_proj-bip_2020-10-16-10-14-12.141483
214	4	1	5	215	stable	8	200	15	vs	red	blue	red	blue	left	right	0.3	0.7	2	4	0.6	2.8	1	0	0.3	0.7	2	4	0.6	2.8	invalid	0.749813508000443	53248	0	1	2	53248	1	53248	1	53248	1	0.7	53248	blue	red	1	0	ml	2.7.3	bip	sub-01_ses-01_task-ml_proj-bip_2020-10-16-10-14-12.141483
215	4	1	5	216	stable	8	200	16	vs	blue	red	red	blue	right	left	0.3	0.7	2	10	0.6	7.0	1	0	0.7	0.3	10	2	7.0	0.6	invalid	0.5998467179997529	51200	0	0	2	51200	1	51200	1	51200	1	0.7	51200	blue	red	1	0	ml	2.7.3	bip	sub-01_ses-01_task-ml_proj-bip_2020-10-16-10-14-12.141483
216	4	1	5	217	stable	8	200	17	vs	blue	red	red	blue	right	left	0.3	0.7	10	2	3.0	1.4	0	1	0.7	0.3	2	10	1.4	3.0	valid	0.5498692769997429	53248	0	1	1	53248	1	51200	0	53248	1	0.7	51200	blue	red	0	0	ml	2.7.3	bip	sub-01_ses-01_task-ml_proj-bip_2020-10-16-10-14-12.141483
217	4	1	5	218	stable	8	200	18	vs	red	blue	red	blue	left	right	0.3	0.7	4	6	1.2	4.2	0	1	0.3	0.7	4	6	1.2	4.2	valid	0.8331165150011659	53248	0	1	2	53248	1	53248	1	53248	1	0.7	53248	blue	red	1	6	ml	2.7.3	bip	sub-01_ses-01_task-ml_proj-bip_2020-10-16-10-14-12.141483
218	4	1	5	219	stable	8	200	19	vs	blue	red	red	blue	right	left	0.3	0.7	4	2	1.2	1.4	0	1	0.7	0.3	2	4	1.4	1.2	valid	0.733129526999619	51200	0	0	2	51200	1	51200	1	53248	0	0.7	51200	blue	red	0	2	ml	2.7.3	bip	sub-01_ses-01_task-ml_proj-bip_2020-10-16-10-14-12.141483
219	4	1	5	220	stable	8	200	20	vs	blue	red	red	blue	right	left	0.3	0.7	4	2	1.2	1.4	1	0	0.7	0.3	2	4	1.4	1.2	invalid	0.833100261001164	51200	0	0	2	51200	1	51200	1	53248	0	0.7	51200	blue	red	0	0	ml	2.7.3	bip	sub-01_ses-01_task-ml_proj-bip_2020-10-16-10-14-12.141483
220	4	1	5	221	stable	8	200	21	vs	red	blue	red	blue	left	right	0.3	0.7	10	2	3.0	1.4	0	1	0.3	0.7	10	2	3.0	1.4	valid	0.533197679998921	51200	0	0	1	51200	1	53248	0	51200	1	0.7	53248	blue	red	0	0	ml	2.7.3	bip	sub-01_ses-01_task-ml_proj-bip_2020-10-16-10-14-12.141483
221	4	1	5	222	stable	8	200	22	vs	blue	red	red	blue	right	left	0.3	0.7	2	4	0.6	2.8	0	1	0.7	0.3	4	2	2.8	0.6	valid	0.48320695400070707	51200	0	0	2	51200	1	51200	1	51200	1	0.7	51200	blue	red	1	4	ml	2.7.3	bip	sub-01_ses-01_task-ml_proj-bip_2020-10-16-10-14-12.141483
222	4	1	5	223	stable	8	200	23	vs	red	blue	red	blue	left	right	0.3	0.7	2	10	0.6	7.0	0	1	0.3	0.7	2	10	0.6	7.0	valid	0.549878890999025	53248	0	1	2	53248	1	53248	1	53248	1	0.7	53248	blue	red	1	10	ml	2.7.3	bip	sub-01_ses-01_task-ml_proj-bip_2020-10-16-10-14-12.141483
223	4	1	5	224	stable	8	200	24	vs	red	blue	red	blue	left	right	0.3	0.7	2	6	0.6	4.2	0	1	0.3	0.7	2	6	0.6	4.2	valid	0.499885772998823	53248	0	1	2	53248	1	53248	1	53248	1	0.7	53248	blue	red	1	6	ml	2.7.3	bip	sub-01_ses-01_task-ml_proj-bip_2020-10-16-10-14-12.141483
224	4	1	5	225	stable	8	200	25	vs	red	blue	red	blue	left	right	0.3	0.7	4	2	1.2	1.4	1	0	0.3	0.7	4	2	1.2	1.4	invalid	0.9330961430005121	53248	0	1	2	53248	1	53248	1	51200	0	0.7	53248	blue	red	0	0	ml	2.7.3	bip	sub-01_ses-01_task-ml_proj-bip_2020-10-16-10-14-12.141483
225	4	1	5	226	stable	8	200	26	vs	red	blue	red	blue	left	right	0.3	0.7	2	6	0.6	4.2	0	1	0.3	0.7	2	6	0.6	4.2	valid	0.583196741999927	53248	0	1	2	53248	1	53248	1	53248	1	0.7	53248	blue	red	1	6	ml	2.7.3	bip	sub-01_ses-01_task-ml_proj-bip_2020-10-16-10-14-12.141483
226	4	1	5	227	stable	8	200	27	vs	blue	red	red	blue	right	left	0.3	0.7	2	2	0.6	1.4	0	1	0.7	0.3	2	2	1.4	0.6	valid	0.849768640000548	51200	0	0	2	51200	1	51200	1	53248	0	0.7	51200	blue	red	1	2	ml	2.7.3	bip	sub-01_ses-01_task-ml_proj-bip_2020-10-16-10-14-12.141483
227	4	1	5	228	stable	8	200	28	vs	red	blue	red	blue	left	right	0.3	0.7	6	4	1.8	2.8	0	1	0.3	0.7	6	4	1.8	2.8	valid	0.783132065000245	53248	0	1	2	53248	1	53248	1	51200	0	0.7	53248	blue	red	0	4	ml	2.7.3	bip	sub-01_ses-01_task-ml_proj-bip_2020-10-16-10-14-12.141483
228	4	1	5	229	stable	8	200	29	vs	blue	red	red	blue	right	left	0.3	0.7	2	10	0.6	7.0	0	1	0.7	0.3	10	2	7.0	0.6	valid	0.51653635600087	51200	0	0	2	51200	1	51200	1	51200	1	0.7	51200	blue	red	1	10	ml	2.7.3	bip	sub-01_ses-01_task-ml_proj-bip_2020-10-16-10-14-12.141483
229	4	1	5	230	stable	8	200	30	vs	red	blue	red	blue	left	right	0.3	0.7	6	6	1.8	4.2	0	1	0.3	0.7	6	6	1.8	4.2	valid	0.549874971999088	53248	0	1	2	53248	1	53248	1	53248	1	0.7	53248	blue	red	0	6	ml	2.7.3	bip	sub-01_ses-01_task-ml_proj-bip_2020-10-16-10-14-12.141483
230	4	1	5	231	stable	8	200	31	vs	blue	red	red	blue	right	left	0.3	0.7	2	6	0.6	4.2	1	0	0.7	0.3	6	2	4.2	0.6	invalid	0.6498293599997851	51200	0	0	2	51200	1	51200	1	51200	1	0.7	51200	blue	red	1	0	ml	2.7.3	bip	sub-01_ses-01_task-ml_proj-bip_2020-10-16-10-14-12.141483
231	4	1	5	232	stable	8	200	32	vs	blue	red	red	blue	right	left	0.3	0.7	6	2	1.8	1.4	0	1	0.7	0.3	2	6	1.4	1.8	valid	0.7664788219990442	53248	0	1	1	53248	1	51200	0	53248	1	0.7	51200	blue	red	0	0	ml	2.7.3	bip	sub-01_ses-01_task-ml_proj-bip_2020-10-16-10-14-12.141483
232	4	1	5	233	stable	8	200	33	vs	blue	red	red	blue	right	left	0.3	0.7	6	4	1.8	2.8	1	0	0.7	0.3	4	6	2.8	1.8	invalid	0.583185585001047	51200	0	0	2	51200	1	51200	1	53248	0	0.7	51200	blue	red	0	0	ml	2.7.3	bip	sub-01_ses-01_task-ml_proj-bip_2020-10-16-10-14-12.141483
233	4	1	5	234	stable	8	200	34	vs	red	blue	red	blue	left	right	0.3	0.7	2	6	0.6	4.2	0	1	0.3	0.7	2	6	0.6	4.2	valid	0.6498423699995329	53248	0	1	2	53248	1	53248	1	53248	1	0.7	53248	blue	red	1	6	ml	2.7.3	bip	sub-01_ses-01_task-ml_proj-bip_2020-10-16-10-14-12.141483
234	4	1	5	235	stable	8	200	35	vs	red	blue	red	blue	left	right	0.3	0.7	2	2	0.6	1.4	1	0	0.3	0.7	2	2	0.6	1.4	invalid	0.5165469549992849	53248	0	1	2	53248	1	53248	1	53248	1	0.7	53248	blue	red	0	0	ml	2.7.3	bip	sub-01_ses-01_task-ml_proj-bip_2020-10-16-10-14-12.141483
235	4	1	5	236	stable	8	200	36	vs	red	blue	red	blue	left	right	0.3	0.7	10	2	3.0	1.4	0	1	0.3	0.7	10	2	3.0	1.4	valid	0.5498612230003349	51200	0	0	1	51200	1	53248	0	51200	1	0.7	53248	blue	red	0	0	ml	2.7.3	bip	sub-01_ses-01_task-ml_proj-bip_2020-10-16-10-14-12.141483
236	4	1	5	237	stable	8	200	37	vs	blue	red	red	blue	right	left	0.3	0.7	6	6	1.8	4.2	1	0	0.7	0.3	6	6	4.2	1.8	invalid	0.5665338810013051	53248	0	1	1	51200	0	51200	0	53248	1	0.7	51200	blue	red	1	6	ml	2.7.3	bip	sub-01_ses-01_task-ml_proj-bip_2020-10-16-10-14-12.141483
237	4	1	5	238	stable	8	200	38	vs	red	blue	red	blue	left	right	0.3	0.7	4	6	1.2	4.2	0	1	0.3	0.7	4	6	1.2	4.2	valid	0.799796926001363	53248	0	1	2	53248	1	53248	1	53248	1	0.7	53248	blue	red	1	6	ml	2.7.3	bip	sub-01_ses-01_task-ml_proj-bip_2020-10-16-10-14-12.141483
238	4	1	5	239	stable	8	200	39	vs	blue	red	red	blue	right	left	0.3	0.7	6	4	1.8	2.8	0	1	0.7	0.3	4	6	2.8	1.8	valid	0.566524433001177	51200	0	0	2	51200	1	51200	1	53248	0	0.7	51200	blue	red	0	4	ml	2.7.3	bip	sub-01_ses-01_task-ml_proj-bip_2020-10-16-10-14-12.141483
239	4	1	5	240	stable	8	200	40	vs	blue	red	red	blue	right	left	0.3	0.7	6	6	1.8	4.2	1	0	0.7	0.3	6	6	4.2	1.8	invalid	0.549860859000546	51200	0	0	2	51200	1	51200	1	53248	0	0.7	51200	blue	red	1	0	ml	2.7.3	bip	sub-01_ses-01_task-ml_proj-bip_2020-10-16-10-14-12.141483
240	4	1	5	241	stable	8	200	41	vs	blue	red	red	blue	right	left	0.3	0.7	2	4	0.6	2.8	1	0	0.7	0.3	4	2	2.8	0.6	invalid	0.583183596001618	51200	0	0	2	51200	1	51200	1	51200	1	0.7	51200	blue	red	1	0	ml	2.7.3	bip	sub-01_ses-01_task-ml_proj-bip_2020-10-16-10-14-12.141483
241	4	1	5	242	stable	8	200	42	vs	blue	red	red	blue	right	left	0.3	0.7	10	2	3.0	1.4	1	0	0.7	0.3	2	10	1.4	3.0	invalid	0.516547752999031	53248	0	1	1	53248	1	51200	0	53248	1	0.7	51200	blue	red	0	10	ml	2.7.3	bip	sub-01_ses-01_task-ml_proj-bip_2020-10-16-10-14-12.141483
242	4	1	5	243	stable	8	200	43	vs	red	blue	red	blue	left	right	0.3	0.7	10	2	3.0	1.4	0	1	0.3	0.7	10	2	3.0	1.4	valid	0.4332285500004221	51200	0	0	1	51200	1	53248	0	51200	1	0.7	53248	blue	red	0	0	ml	2.7.3	bip	sub-01_ses-01_task-ml_proj-bip_2020-10-16-10-14-12.141483
243	4	1	5	244	stable	8	200	44	vs	red	blue	red	blue	left	right	0.3	0.7	10	2	3.0	1.4	0	1	0.3	0.7	10	2	3.0	1.4	valid	0.466551940999125	51200	0	0	1	51200	1	53248	0	51200	1	0.7	53248	blue	red	0	0	ml	2.7.3	bip	sub-01_ses-01_task-ml_proj-bip_2020-10-16-10-14-12.141483
244	4	1	5	245	stable	8	200	45	vs	red	blue	red	blue	left	right	0.3	0.7	4	2	1.2	1.4	0	1	0.3	0.7	4	2	1.2	1.4	valid	0.8997562260010451	51200	0	0	1	53248	0	53248	0	51200	1	0.7	53248	blue	red	0	0	ml	2.7.3	bip	sub-01_ses-01_task-ml_proj-bip_2020-10-16-10-14-12.141483
245	4	1	5	246	stable	8	200	46	vs	red	blue	red	blue	left	right	0.3	0.7	10	2	3.0	1.4	0	1	0.3	0.7	10	2	3.0	1.4	valid	0.6998160179991829	51200	0	0	1	51200	1	53248	0	51200	1	0.7	53248	blue	red	0	0	ml	2.7.3	bip	sub-01_ses-01_task-ml_proj-bip_2020-10-16-10-14-12.141483
246	4	1	5	247	stable	8	200	47	vs	blue	red	red	blue	right	left	0.3	0.7	6	6	1.8	4.2	1	0	0.7	0.3	6	6	4.2	1.8	invalid	0.616511780001019	51200	0	0	2	51200	1	51200	1	53248	0	0.7	51200	blue	red	1	0	ml	2.7.3	bip	sub-01_ses-01_task-ml_proj-bip_2020-10-16-10-14-12.141483
247	4	1	5	248	stable	8	200	48	vs	blue	red	red	blue	right	left	0.3	0.7	2	6	0.6	4.2	0	1	0.7	0.3	6	2	4.2	0.6	valid	0.533198637000169	51200	0	0	2	51200	1	51200	1	51200	1	0.7	51200	blue	red	1	6	ml	2.7.3	bip	sub-01_ses-01_task-ml_proj-bip_2020-10-16-10-14-12.141483
248	4	1	5	249	stable	8	200	49	vs	red	blue	red	blue	left	right	0.3	0.7	4	6	1.2	4.2	0	1	0.3	0.7	4	6	1.2	4.2	valid	0.5831915939998001	53248	0	1	2	53248	1	53248	1	53248	1	0.7	53248	blue	red	1	6	ml	2.7.3	bip	sub-01_ses-01_task-ml_proj-bip_2020-10-16-10-14-12.141483
249	4	1	5	250	stable	8	200	50	vs	blue	red	red	blue	right	left	0.3	0.7	2	6	0.6	4.2	0	1	0.7	0.3	6	2	4.2	0.6	valid	0.44989222200092605	51200	0	0	2	51200	1	51200	1	51200	1	0.7	51200	blue	red	1	6	ml	2.7.3	bip	sub-01_ses-01_task-ml_proj-bip_2020-10-16-10-14-12.141483
250	4	1	6	251	stable	8	200	51	vs	blue	red	red	blue	right	left	0.3	0.7	10	2	3.0	1.4	1	0	0.7	0.3	2	10	1.4	3.0	invalid	0.549873534000653	53248	0	1	1	53248	1	51200	0	53248	1	0.7	51200	blue	red	0	10	ml	2.7.3	bip	sub-01_ses-01_task-ml_proj-bip_2020-10-16-10-14-12.141483
251	4	1	6	252	stable	8	200	52	vs	red	blue	red	blue	left	right	0.3	0.7	4	2	1.2	1.4	0	1	0.3	0.7	4	2	1.2	1.4	valid	0.466549947001113	51200	0	0	1	53248	0	53248	0	51200	1	0.7	53248	blue	red	0	0	ml	2.7.3	bip	sub-01_ses-01_task-ml_proj-bip_2020-10-16-10-14-12.141483
252	4	1	6	253	stable	8	200	53	vs	blue	red	red	blue	right	left	0.3	0.7	6	4	1.8	2.8	1	0	0.7	0.3	4	6	2.8	1.8	invalid	0.633185998000045	53248	0	1	1	51200	0	51200	0	53248	1	0.7	51200	blue	red	0	6	ml	2.7.3	bip	sub-01_ses-01_task-ml_proj-bip_2020-10-16-10-14-12.141483
253	4	1	6	254	stable	8	200	54	vs	blue	red	red	blue	right	left	0.3	0.7	2	6	0.6	4.2	0	1	0.7	0.3	6	2	4.2	0.6	valid	0.583185340999989	51200	0	0	2	51200	1	51200	1	51200	1	0.7	51200	blue	red	1	6	ml	2.7.3	bip	sub-01_ses-01_task-ml_proj-bip_2020-10-16-10-14-12.141483
254	4	1	6	255	stable	8	200	55	vs	blue	red	red	blue	right	left	0.3	0.7	2	6	0.6	4.2	0	1	0.7	0.3	6	2	4.2	0.6	valid	0.5332005350010149	51200	0	0	2	51200	1	51200	1	51200	1	0.7	51200	blue	red	1	6	ml	2.7.3	bip	sub-01_ses-01_task-ml_proj-bip_2020-10-16-10-14-12.141483
255	4	1	6	256	stable	8	200	56	vs	blue	red	red	blue	right	left	0.3	0.7	4	6	1.2	4.2	0	1	0.7	0.3	6	4	4.2	1.2	valid	0.48320802699890897	51200	0	0	2	51200	1	51200	1	51200	1	0.7	51200	blue	red	1	6	ml	2.7.3	bip	sub-01_ses-01_task-ml_proj-bip_2020-10-16-10-14-12.141483
256	4	1	6	257	stable	8	200	57	vs	blue	red	red	blue	right	left	0.3	0.7	10	2	3.0	1.4	0	1	0.7	0.3	2	10	1.4	3.0	valid	0.6665021600001639	53248	0	1	1	53248	1	51200	0	53248	1	0.7	51200	blue	red	0	0	ml	2.7.3	bip	sub-01_ses-01_task-ml_proj-bip_2020-10-16-10-14-12.141483
257	4	1	6	258	stable	8	200	58	vs	red	blue	red	blue	left	right	0.3	0.7	6	2	1.8	1.4	0	1	0.3	0.7	6	2	1.8	1.4	valid	1.48291874200004	51200	0	0	1	51200	1	53248	0	51200	1	0.7	53248	blue	red	0	0	ml	2.7.3	bip	sub-01_ses-01_task-ml_proj-bip_2020-10-16-10-14-12.141483
258	4	1	6	259	stable	8	200	59	vs	blue	red	red	blue	right	left	0.3	0.7	4	6	1.2	4.2	1	0	0.7	0.3	6	4	4.2	1.2	invalid	0.7331379400002329	51200	0	0	2	51200	1	51200	1	51200	1	0.7	51200	blue	red	1	0	ml	2.7.3	bip	sub-01_ses-01_task-ml_proj-bip_2020-10-16-10-14-12.141483
259	4	1	6	260	stable	8	200	60	vs	blue	red	red	blue	right	left	0.3	0.7	2	4	0.6	2.8	0	1	0.7	0.3	4	2	2.8	0.6	valid	0.549860421999256	51200	0	0	2	51200	1	51200	1	51200	1	0.7	51200	blue	red	1	4	ml	2.7.3	bip	sub-01_ses-01_task-ml_proj-bip_2020-10-16-10-14-12.141483
260	4	1	6	261	stable	8	200	61	vs	blue	red	red	blue	right	left	0.3	0.7	6	6	1.8	4.2	0	1	0.7	0.3	6	6	4.2	1.8	valid	0.5998490250003671	51200	0	0	2	51200	1	51200	1	53248	0	0.7	51200	blue	red	1	6	ml	2.7.3	bip	sub-01_ses-01_task-ml_proj-bip_2020-10-16-10-14-12.141483
261	4	1	6	262	stable	8	200	62	vs	blue	red	red	blue	right	left	0.3	0.7	2	6	0.6	4.2	1	0	0.7	0.3	6	2	4.2	0.6	invalid	0.566515615999379	51200	0	0	2	51200	1	51200	1	51200	1	0.7	51200	blue	red	1	0	ml	2.7.3	bip	sub-01_ses-01_task-ml_proj-bip_2020-10-16-10-14-12.141483
262	4	1	6	263	stable	8	200	63	vs	blue	red	red	blue	right	left	0.3	0.7	6	6	1.8	4.2	1	0	0.7	0.3	6	6	4.2	1.8	invalid	0.5831819979994181	51200	0	0	2	51200	1	51200	1	53248	0	0.7	51200	blue	red	1	0	ml	2.7.3	bip	sub-01_ses-01_task-ml_proj-bip_2020-10-16-10-14-12.141483
263	4	1	6	264	stable	8	200	64	vs	blue	red	red	blue	right	left	0.3	0.7	6	2	1.8	1.4	0	1	0.7	0.3	2	6	1.4	1.8	valid	0.7164853359990959	53248	0	1	1	53248	1	51200	0	53248	1	0.7	51200	blue	red	0	0	ml	2.7.3	bip	sub-01_ses-01_task-ml_proj-bip_2020-10-16-10-14-12.141483
264	4	1	6	265	stable	8	200	65	vs	blue	red	red	blue	right	left	0.3	0.7	6	2	1.8	1.4	0	1	0.7	0.3	2	6	1.4	1.8	valid	0.699825265000982	53248	0	1	1	53248	1	51200	0	53248	1	0.7	51200	blue	red	0	0	ml	2.7.3	bip	sub-01_ses-01_task-ml_proj-bip_2020-10-16-10-14-12.141483
265	4	1	6	266	stable	8	200	66	vs	blue	red	red	blue	right	left	0.3	0.7	6	6	1.8	4.2	1	0	0.7	0.3	6	6	4.2	1.8	invalid	0.799777424999775	51200	0	0	2	51200	1	51200	1	53248	0	0.7	51200	blue	red	1	0	ml	2.7.3	bip	sub-01_ses-01_task-ml_proj-bip_2020-10-16-10-14-12.141483
266	4	1	6	267	stable	8	200	67	vs	red	blue	red	blue	left	right	0.3	0.7	6	6	1.8	4.2	0	1	0.3	0.7	6	6	1.8	4.2	valid	0.983069460999104	51200	0	0	1	53248	0	53248	0	53248	0	0.7	53248	blue	red	0	0	ml	2.7.3	bip	sub-01_ses-01_task-ml_proj-bip_2020-10-16-10-14-12.141483
267	4	1	6	268	stable	8	200	68	vs	blue	red	red	blue	right	left	0.3	0.7	6	4	1.8	2.8	0	1	0.7	0.3	4	6	2.8	1.8	valid	1.64954030000081	53248	0	1	1	51200	0	51200	0	53248	1	0.7	51200	blue	red	0	0	ml	2.7.3	bip	sub-01_ses-01_task-ml_proj-bip_2020-10-16-10-14-12.141483
268	4	1	6	269	stable	8	200	69	vs	red	blue	red	blue	left	right	0.3	0.7	4	2	1.2	1.4	0	1	0.3	0.7	4	2	1.2	1.4	valid	1.2163386440006398	53248	0	1	2	53248	1	53248	1	51200	0	0.7	53248	blue	red	0	2	ml	2.7.3	bip	sub-01_ses-01_task-ml_proj-bip_2020-10-16-10-14-12.141483
269	4	1	6	270	stable	8	200	70	vs	blue	red	red	blue	right	left	0.3	0.7	6	6	1.8	4.2	0	1	0.7	0.3	6	6	4.2	1.8	valid	0.49988329799998604	51200	0	0	2	51200	1	51200	1	53248	0	0.7	51200	blue	red	1	6	ml	2.7.3	bip	sub-01_ses-01_task-ml_proj-bip_2020-10-16-10-14-12.141483
270	4	1	6	271	stable	8	200	71	vs	red	blue	red	blue	left	right	0.3	0.7	2	2	0.6	1.4	0	1	0.3	0.7	2	2	0.6	1.4	valid	0.8331184819999179	53248	0	1	2	53248	1	53248	1	53248	1	0.7	53248	blue	red	0	2	ml	2.7.3	bip	sub-01_ses-01_task-ml_proj-bip_2020-10-16-10-14-12.141483
271	4	1	6	272	stable	8	200	72	vs	blue	red	red	blue	right	left	0.3	0.7	2	6	0.6	4.2	0	1	0.7	0.3	6	2	4.2	0.6	valid	0.499874974999329	51200	0	0	2	51200	1	51200	1	51200	1	0.7	51200	blue	red	1	6	ml	2.7.3	bip	sub-01_ses-01_task-ml_proj-bip_2020-10-16-10-14-12.141483
272	4	1	6	273	stable	8	200	73	vs	blue	red	red	blue	right	left	0.3	0.7	4	6	1.2	4.2	0	1	0.7	0.3	6	4	4.2	1.2	valid	0.41656760799924103	51200	0	0	2	51200	1	51200	1	51200	1	0.7	51200	blue	red	1	6	ml	2.7.3	bip	sub-01_ses-01_task-ml_proj-bip_2020-10-16-10-14-12.141483
273	4	1	6	274	stable	8	200	74	vs	red	blue	red	blue	left	right	0.3	0.7	2	10	0.6	7.0	0	1	0.3	0.7	2	10	0.6	7.0	valid	0.48322750700026507	53248	0	1	2	53248	1	53248	1	53248	1	0.7	53248	blue	red	1	10	ml	2.7.3	bip	sub-01_ses-01_task-ml_proj-bip_2020-10-16-10-14-12.141483
274	4	1	6	275	stable	8	200	75	vs	blue	red	red	blue	right	left	0.3	0.7	4	6	1.2	4.2	0	1	0.7	0.3	6	4	4.2	1.2	valid	0.53319127100076	51200	0	0	2	51200	1	51200	1	51200	1	0.7	51200	blue	red	1	6	ml	2.7.3	bip	sub-01_ses-01_task-ml_proj-bip_2020-10-16-10-14-12.141483
275	4	1	6	276	stable	8	200	76	vs	red	blue	red	blue	left	right	0.3	0.7	6	4	1.8	2.8	0	1	0.3	0.7	6	4	1.8	2.8	valid	0.48322354999982103	53248	0	1	2	53248	1	53248	1	51200	0	0.7	53248	blue	red	0	4	ml	2.7.3	bip	sub-01_ses-01_task-ml_proj-bip_2020-10-16-10-14-12.141483
276	4	1	6	277	stable	8	200	77	vs	red	blue	red	blue	left	right	0.3	0.7	4	6	1.2	4.2	0	1	0.3	0.7	4	6	1.2	4.2	valid	0.49988285100153007	53248	0	1	2	53248	1	53248	1	53248	1	0.7	53248	blue	red	1	6	ml	2.7.3	bip	sub-01_ses-01_task-ml_proj-bip_2020-10-16-10-14-12.141483
277	4	1	6	278	stable	8	200	78	vs	red	blue	red	blue	left	right	0.3	0.7	10	2	3.0	1.4	1	0	0.3	0.7	10	2	3.0	1.4	invalid	0.5831782730001579	51200	0	0	1	51200	1	53248	0	51200	1	0.7	53248	blue	red	0	10	ml	2.7.3	bip	sub-01_ses-01_task-ml_proj-bip_2020-10-16-10-14-12.141483
278	4	1	6	279	stable	8	200	79	vs	red	blue	red	blue	left	right	0.3	0.7	4	6	1.2	4.2	0	1	0.3	0.7	4	6	1.2	4.2	valid	1.38295245900008	53248	0	1	2	53248	1	53248	1	53248	1	0.7	53248	blue	red	1	6	ml	2.7.3	bip	sub-01_ses-01_task-ml_proj-bip_2020-10-16-10-14-12.141483
279	4	1	6	280	stable	8	200	80	vs	blue	red	red	blue	right	left	0.3	0.7	10	2	3.0	1.4	0	1	0.7	0.3	2	10	1.4	3.0	valid	0.81645393799954	53248	0	1	1	53248	1	51200	0	53248	1	0.7	51200	blue	red	0	0	ml	2.7.3	bip	sub-01_ses-01_task-ml_proj-bip_2020-10-16-10-14-12.141483
280	4	1	6	281	stable	8	200	81	vs	red	blue	red	blue	left	right	0.3	0.7	6	4	1.8	2.8	1	0	0.3	0.7	6	4	1.8	2.8	invalid	1.08303649200025	53248	0	1	2	53248	1	53248	1	51200	0	0.7	53248	blue	red	0	0	ml	2.7.3	bip	sub-01_ses-01_task-ml_proj-bip_2020-10-16-10-14-12.141483
281	4	1	6	282	stable	8	200	82	vs	blue	red	red	blue	right	left	0.3	0.7	2	2	0.6	1.4	0	1	0.7	0.3	2	2	1.4	0.6	valid	0.9830626530001609	51200	0	0	2	51200	1	51200	1	53248	0	0.7	51200	blue	red	1	2	ml	2.7.3	bip	sub-01_ses-01_task-ml_proj-bip_2020-10-16-10-14-12.141483
282	4	1	6	283	stable	8	200	83	vs	red	blue	red	blue	left	right	0.3	0.7	2	6	0.6	4.2	0	1	0.3	0.7	2	6	0.6	4.2	valid	0.599854093999966	53248	0	1	2	53248	1	53248	1	53248	1	0.7	53248	blue	red	1	6	ml	2.7.3	bip	sub-01_ses-01_task-ml_proj-bip_2020-10-16-10-14-12.141483
283	4	1	6	284	stable	8	200	84	vs	red	blue	red	blue	left	right	0.3	0.7	2	4	0.6	2.8	0	1	0.3	0.7	2	4	0.6	2.8	valid	0.5165479360002789	53248	0	1	2	53248	1	53248	1	53248	1	0.7	53248	blue	red	1	4	ml	2.7.3	bip	sub-01_ses-01_task-ml_proj-bip_2020-10-16-10-14-12.141483
284	4	1	6	285	stable	8	200	85	vs	blue	red	red	blue	right	left	0.3	0.7	2	6	0.6	4.2	0	1	0.7	0.3	6	2	4.2	0.6	valid	0.48321250900153206	51200	0	0	2	51200	1	51200	1	51200	1	0.7	51200	blue	red	1	6	ml	2.7.3	bip	sub-01_ses-01_task-ml_proj-bip_2020-10-16-10-14-12.141483
285	4	1	6	286	stable	8	200	86	vs	red	blue	red	blue	left	right	0.3	0.7	6	4	1.8	2.8	0	1	0.3	0.7	6	4	1.8	2.8	valid	0.666507817999445	53248	0	1	2	53248	1	53248	1	51200	0	0.7	53248	blue	red	0	4	ml	2.7.3	bip	sub-01_ses-01_task-ml_proj-bip_2020-10-16-10-14-12.141483
286	4	1	6	287	stable	8	200	87	vs	blue	red	red	blue	right	left	0.3	0.7	2	2	0.6	1.4	1	0	0.7	0.3	2	2	1.4	0.6	invalid	0.549858078999023	51200	0	0	2	51200	1	51200	1	53248	0	0.7	51200	blue	red	1	0	ml	2.7.3	bip	sub-01_ses-01_task-ml_proj-bip_2020-10-16-10-14-12.141483
287	4	1	6	288	stable	8	200	88	vs	red	blue	red	blue	left	right	0.3	0.7	6	6	1.8	4.2	0	1	0.3	0.7	6	6	1.8	4.2	valid	0.43323844100086706	53248	0	1	2	53248	1	53248	1	53248	1	0.7	53248	blue	red	0	6	ml	2.7.3	bip	sub-01_ses-01_task-ml_proj-bip_2020-10-16-10-14-12.141483
288	4	1	6	289	stable	8	200	89	vs	blue	red	red	blue	right	left	0.3	0.7	6	4	1.8	2.8	0	1	0.7	0.3	4	6	2.8	1.8	valid	0.766464237000037	51200	0	0	2	51200	1	51200	1	53248	0	0.7	51200	blue	red	0	4	ml	2.7.3	bip	sub-01_ses-01_task-ml_proj-bip_2020-10-16-10-14-12.141483
289	4	1	6	290	stable	8	200	90	vs	red	blue	red	blue	left	right	0.3	0.7	2	6	0.6	4.2	0	1	0.3	0.7	2	6	0.6	4.2	valid	0.466562798999803	53248	0	1	2	53248	1	53248	1	53248	1	0.7	53248	blue	red	1	6	ml	2.7.3	bip	sub-01_ses-01_task-ml_proj-bip_2020-10-16-10-14-12.141483
290	4	1	6	291	stable	8	200	91	vs	red	blue	red	blue	left	right	0.3	0.7	2	6	0.6	4.2	1	0	0.3	0.7	2	6	0.6	4.2	invalid	0.44990140200025	53248	0	1	2	53248	1	53248	1	53248	1	0.7	53248	blue	red	1	0	ml	2.7.3	bip	sub-01_ses-01_task-ml_proj-bip_2020-10-16-10-14-12.141483
291	4	1	6	292	stable	8	200	92	vs	red	blue	red	blue	left	right	0.3	0.7	6	6	1.8	4.2	1	0	0.3	0.7	6	6	1.8	4.2	invalid	0.8497788470012891	53248	0	1	2	53248	1	53248	1	53248	1	0.7	53248	blue	red	0	0	ml	2.7.3	bip	sub-01_ses-01_task-ml_proj-bip_2020-10-16-10-14-12.141483
292	4	1	6	293	stable	8	200	93	vs	blue	red	red	blue	right	left	0.3	0.7	4	2	1.2	1.4	0	1	0.7	0.3	2	4	1.4	1.2	valid	0.966419737000251	53248	0	1	1	51200	0	51200	0	53248	1	0.7	51200	blue	red	0	0	ml	2.7.3	bip	sub-01_ses-01_task-ml_proj-bip_2020-10-16-10-14-12.141483
293	4	1	6	294	stable	8	200	94	vs	blue	red	red	blue	right	left	0.3	0.7	2	2	0.6	1.4	0	1	0.7	0.3	2	2	1.4	0.6	valid	1.34963788499954	53248	0	1	1	51200	0	51200	0	53248	1	0.7	51200	blue	red	1	0	ml	2.7.3	bip	sub-01_ses-01_task-ml_proj-bip_2020-10-16-10-14-12.141483
294	4	1	6	295	stable	8	200	95	vs	red	blue	red	blue	left	right	0.3	0.7	10	2	3.0	1.4	0	1	0.3	0.7	10	2	3.0	1.4	valid	0.649832036000589	51200	0	0	1	51200	1	53248	0	51200	1	0.7	53248	blue	red	0	0	ml	2.7.3	bip	sub-01_ses-01_task-ml_proj-bip_2020-10-16-10-14-12.141483
295	4	1	6	296	stable	8	200	96	vs	red	blue	red	blue	left	right	0.3	0.7	2	4	0.6	2.8	1	0	0.3	0.7	2	4	0.6	2.8	invalid	0.516546655000639	53248	0	1	2	53248	1	53248	1	53248	1	0.7	53248	blue	red	1	0	ml	2.7.3	bip	sub-01_ses-01_task-ml_proj-bip_2020-10-16-10-14-12.141483
296	4	1	6	297	stable	8	200	97	vs	blue	red	red	blue	right	left	0.3	0.7	4	2	1.2	1.4	0	1	0.7	0.3	2	4	1.4	1.2	valid	0.483212625998931	51200	0	0	2	51200	1	51200	1	53248	0	0.7	51200	blue	red	0	2	ml	2.7.3	bip	sub-01_ses-01_task-ml_proj-bip_2020-10-16-10-14-12.141483
297	4	1	6	298	stable	8	200	98	vs	red	blue	red	blue	left	right	0.3	0.7	6	2	1.8	1.4	1	0	0.3	0.7	6	2	1.8	1.4	invalid	1.3496197790009299	51200	0	0	1	51200	1	53248	0	51200	1	0.7	53248	blue	red	0	6	ml	2.7.3	bip	sub-01_ses-01_task-ml_proj-bip_2020-10-16-10-14-12.141483
298	4	1	6	299	stable	8	200	99	vs	blue	red	red	blue	right	left	0.3	0.7	4	2	1.2	1.4	1	0	0.7	0.3	2	4	1.4	1.2	invalid	0.616516529000364	53248	0	1	1	51200	0	51200	0	53248	1	0.7	51200	blue	red	0	4	ml	2.7.3	bip	sub-01_ses-01_task-ml_proj-bip_2020-10-16-10-14-12.141483
299	4	1	6	300	stable	8	200	100	vs	red	blue	red	blue	left	right	0.3	0.7	2	6	0.6	4.2	0	1	0.3	0.7	2	6	0.6	4.2	valid	1.2163449210002	53248	0	1	2	53248	1	53248	1	53248	1	0.7	53248	blue	red	1	6	ml	2.7.3	bip	sub-01_ses-01_task-ml_proj-bip_2020-10-16-10-14-12.141483
300	4	1	7	301	stable	8	200	101	vs	red	blue	red	blue	left	right	0.3	0.7	2	2	0.6	1.4	0	1	0.3	0.7	2	2	0.6	1.4	valid	1.4662505129999799	51200	0	0	1	53248	0	53248	0	53248	0	0.7	53248	blue	red	0	0	ml	2.7.3	bip	sub-01_ses-01_task-ml_proj-bip_2020-10-16-10-14-12.141483
301	4	1	7	302	stable	8	200	102	vs	red	blue	red	blue	left	right	0.3	0.7	2	4	0.6	2.8	1	0	0.3	0.7	2	4	0.6	2.8	invalid	0.5665330430001629	53248	0	1	2	53248	1	53248	1	53248	1	0.7	53248	blue	red	1	0	ml	2.7.3	bip	sub-01_ses-01_task-ml_proj-bip_2020-10-16-10-14-12.141483
302	4	1	7	303	stable	8	200	103	vs	blue	red	red	blue	right	left	0.3	0.7	2	6	0.6	4.2	0	1	0.7	0.3	6	2	4.2	0.6	valid	0.983063200001197	51200	0	0	2	51200	1	51200	1	51200	1	0.7	51200	blue	red	1	6	ml	2.7.3	bip	sub-01_ses-01_task-ml_proj-bip_2020-10-16-10-14-12.141483
303	4	1	7	304	stable	8	200	104	vs	blue	red	red	blue	right	left	0.3	0.7	4	2	1.2	1.4	0	1	0.7	0.3	2	4	1.4	1.2	valid	0.9330777870000021	51200	0	0	2	51200	1	51200	1	53248	0	0.7	51200	blue	red	0	2	ml	2.7.3	bip	sub-01_ses-01_task-ml_proj-bip_2020-10-16-10-14-12.141483
304	4	1	7	305	stable	8	200	105	vs	red	blue	red	blue	left	right	0.3	0.7	2	10	0.6	7.0	1	0	0.3	0.7	2	10	0.6	7.0	invalid	0.433238322999387	53248	0	1	2	53248	1	53248	1	53248	1	0.7	53248	blue	red	1	0	ml	2.7.3	bip	sub-01_ses-01_task-ml_proj-bip_2020-10-16-10-14-12.141483
305	4	1	7	306	stable	8	200	106	vs	blue	red	red	blue	right	left	0.3	0.7	4	6	1.2	4.2	0	1	0.7	0.3	6	4	4.2	1.2	valid	0.549861785000758	51200	0	0	2	51200	1	51200	1	51200	1	0.7	51200	blue	red	1	6	ml	2.7.3	bip	sub-01_ses-01_task-ml_proj-bip_2020-10-16-10-14-12.141483
306	4	1	7	307	stable	8	200	107	vs	blue	red	red	blue	right	left	0.3	0.7	2	4	0.6	2.8	0	1	0.7	0.3	4	2	2.8	0.6	valid	0.516535651000595	51200	0	0	2	51200	1	51200	1	51200	1	0.7	51200	blue	red	1	4	ml	2.7.3	bip	sub-01_ses-01_task-ml_proj-bip_2020-10-16-10-14-12.141483
307	4	1	7	308	stable	8	200	108	vs	red	blue	red	blue	left	right	0.3	0.7	2	2	0.6	1.4	0	1	0.3	0.7	2	2	0.6	1.4	valid	0.549870300999828	53248	0	1	2	53248	1	53248	1	53248	1	0.7	53248	blue	red	0	2	ml	2.7.3	bip	sub-01_ses-01_task-ml_proj-bip_2020-10-16-10-14-12.141483
308	4	1	7	309	stable	8	200	109	vs	red	blue	red	blue	left	right	0.3	0.7	2	4	0.6	2.8	0	1	0.3	0.7	2	4	0.6	2.8	valid	0.6165148389991371	53248	0	1	2	53248	1	53248	1	53248	1	0.7	53248	blue	red	1	4	ml	2.7.3	bip	sub-01_ses-01_task-ml_proj-bip_2020-10-16-10-14-12.141483
309	4	1	7	310	stable	8	200	110	vs	blue	red	red	blue	right	left	0.3	0.7	6	2	1.8	1.4	1	0	0.7	0.3	2	6	1.4	1.8	invalid	0.999766078999528	53248	0	1	1	53248	1	51200	0	53248	1	0.7	51200	blue	red	0	6	ml	2.7.3	bip	sub-01_ses-01_task-ml_proj-bip_2020-10-16-10-14-12.141483
310	4	1	7	311	stable	8	200	111	vs	blue	red	red	blue	right	left	0.3	0.7	2	4	0.6	2.8	0	1	0.7	0.3	4	2	2.8	0.6	valid	0.699814772000536	51200	0	0	2	51200	1	51200	1	51200	1	0.7	51200	blue	red	1	4	ml	2.7.3	bip	sub-01_ses-01_task-ml_proj-bip_2020-10-16-10-14-12.141483
311	4	1	7	312	stable	8	200	112	vs	red	blue	red	blue	left	right	0.3	0.7	10	2	3.0	1.4	0	1	0.3	0.7	10	2	3.0	1.4	valid	0.6331683240005079	51200	0	0	1	51200	1	53248	0	51200	1	0.7	53248	blue	red	0	0	ml	2.7.3	bip	sub-01_ses-01_task-ml_proj-bip_2020-10-16-10-14-12.141483
312	4	1	7	313	stable	8	200	113	vs	blue	red	red	blue	right	left	0.3	0.7	6	4	1.8	2.8	1	0	0.7	0.3	4	6	2.8	1.8	invalid	1.3662727259998102	51200	0	0	2	51200	1	51200	1	53248	0	0.7	51200	blue	red	0	0	ml	2.7.3	bip	sub-01_ses-01_task-ml_proj-bip_2020-10-16-10-14-12.141483
313	4	1	7	314	stable	8	200	114	vs	blue	red	red	blue	right	left	0.3	0.7	2	10	0.6	7.0	1	0	0.7	0.3	10	2	7.0	0.6	invalid	0.599842730000091	51200	0	0	2	51200	1	51200	1	51200	1	0.7	51200	blue	red	1	0	ml	2.7.3	bip	sub-01_ses-01_task-ml_proj-bip_2020-10-16-10-14-12.141483
314	4	1	7	315	stable	8	200	115	vs	red	blue	red	blue	left	right	0.3	0.7	2	2	0.6	1.4	0	1	0.3	0.7	2	2	0.6	1.4	valid	0.633171870000297	51200	0	0	1	53248	0	53248	0	53248	0	0.7	53248	blue	red	0	0	ml	2.7.3	bip	sub-01_ses-01_task-ml_proj-bip_2020-10-16-10-14-12.141483
315	4	1	7	316	stable	8	200	116	vs	red	blue	red	blue	left	right	0.3	0.7	6	4	1.8	2.8	1	0	0.3	0.7	6	4	1.8	2.8	invalid	0.766460152000946	51200	0	0	1	53248	0	53248	0	51200	1	0.7	53248	blue	red	0	6	ml	2.7.3	bip	sub-01_ses-01_task-ml_proj-bip_2020-10-16-10-14-12.141483
316	4	1	7	317	stable	8	200	117	vs	blue	red	red	blue	right	left	0.3	0.7	2	2	0.6	1.4	1	0	0.7	0.3	2	2	1.4	0.6	invalid	0.633177989000615	53248	0	1	1	51200	0	51200	0	53248	1	0.7	51200	blue	red	1	2	ml	2.7.3	bip	sub-01_ses-01_task-ml_proj-bip_2020-10-16-10-14-12.141483
317	4	1	7	318	stable	8	200	118	vs	red	blue	red	blue	left	right	0.3	0.7	4	2	1.2	1.4	0	1	0.3	0.7	4	2	1.2	1.4	valid	0.483215471000221	51200	0	0	1	53248	0	53248	0	51200	1	0.7	53248	blue	red	0	0	ml	2.7.3	bip	sub-01_ses-01_task-ml_proj-bip_2020-10-16-10-14-12.141483
318	4	1	7	319	stable	8	200	119	vs	blue	red	red	blue	right	left	0.3	0.7	4	2	1.2	1.4	0	1	0.7	0.3	2	4	1.4	1.2	valid	0.649850019999576	53248	0	1	1	51200	0	51200	0	53248	1	0.7	51200	blue	red	0	0	ml	2.7.3	bip	sub-01_ses-01_task-ml_proj-bip_2020-10-16-10-14-12.141483
319	4	1	7	320	stable	8	200	120	vs	red	blue	red	blue	left	right	0.3	0.7	2	4	0.6	2.8	1	0	0.3	0.7	2	4	0.6	2.8	invalid	0.666510798999297	53248	0	1	2	53248	1	53248	1	53248	1	0.7	53248	blue	red	1	0	ml	2.7.3	bip	sub-01_ses-01_task-ml_proj-bip_2020-10-16-10-14-12.141483
320	4	1	7	321	stable	8	200	121	vs	blue	red	red	blue	right	left	0.3	0.7	10	2	3.0	1.4	0	1	0.7	0.3	2	10	1.4	3.0	valid	0.6165235440003021	53248	0	1	1	53248	1	51200	0	53248	1	0.7	51200	blue	red	0	0	ml	2.7.3	bip	sub-01_ses-01_task-ml_proj-bip_2020-10-16-10-14-12.141483
321	4	1	7	322	stable	8	200	122	vs	red	blue	red	blue	left	right	0.3	0.7	6	4	1.8	2.8	0	1	0.3	0.7	6	4	1.8	2.8	valid	0.833126228000765	53248	0	1	2	53248	1	53248	1	51200	0	0.7	53248	blue	red	0	4	ml	2.7.3	bip	sub-01_ses-01_task-ml_proj-bip_2020-10-16-10-14-12.141483
322	4	1	7	323	stable	8	200	123	vs	red	blue	red	blue	left	right	0.3	0.7	2	2	0.6	1.4	1	0	0.3	0.7	2	2	0.6	1.4	invalid	0.816452101000323	53248	0	1	2	53248	1	53248	1	53248	1	0.7	53248	blue	red	0	0	ml	2.7.3	bip	sub-01_ses-01_task-ml_proj-bip_2020-10-16-10-14-12.141483
323	4	1	7	324	stable	8	200	124	vs	red	blue	red	blue	left	right	0.3	0.7	10	2	3.0	1.4	0	1	0.3	0.7	10	2	3.0	1.4	valid	0.583197899000879	51200	0	0	1	51200	1	53248	0	51200	1	0.7	53248	blue	red	0	0	ml	2.7.3	bip	sub-01_ses-01_task-ml_proj-bip_2020-10-16-10-14-12.141483
324	4	1	7	325	stable	8	200	125	vs	red	blue	red	blue	left	right	0.3	0.7	6	4	1.8	2.8	0	1	0.3	0.7	6	4	1.8	2.8	valid	0.466565298000205	53248	0	1	2	53248	1	53248	1	51200	0	0.7	53248	blue	red	0	4	ml	2.7.3	bip	sub-01_ses-01_task-ml_proj-bip_2020-10-16-10-14-12.141483
325	4	1	7	326	stable	8	200	126	vs	red	blue	red	blue	left	right	0.3	0.7	2	2	0.6	1.4	0	1	0.3	0.7	2	2	0.6	1.4	valid	0.7164855310002171	53248	0	1	2	53248	1	53248	1	53248	1	0.7	53248	blue	red	0	2	ml	2.7.3	bip	sub-01_ses-01_task-ml_proj-bip_2020-10-16-10-14-12.141483
326	4	1	7	327	stable	8	200	127	vs	red	blue	red	blue	left	right	0.3	0.7	2	6	0.6	4.2	1	0	0.3	0.7	2	6	0.6	4.2	invalid	0.6498446670011621	53248	0	1	2	53248	1	53248	1	53248	1	0.7	53248	blue	red	1	0	ml	2.7.3	bip	sub-01_ses-01_task-ml_proj-bip_2020-10-16-10-14-12.141483
327	4	1	7	328	stable	8	200	128	vs	blue	red	red	blue	right	left	0.3	0.7	10	2	3.0	1.4	0	1	0.7	0.3	2	10	1.4	3.0	valid	0.6331801399992399	53248	0	1	1	53248	1	51200	0	53248	1	0.7	51200	blue	red	0	0	ml	2.7.3	bip	sub-01_ses-01_task-ml_proj-bip_2020-10-16-10-14-12.141483
328	4	1	7	329	stable	8	200	129	vs	blue	red	red	blue	right	left	0.3	0.7	2	4	0.6	2.8	0	1	0.7	0.3	4	2	2.8	0.6	valid	0.516534746000616	51200	0	0	2	51200	1	51200	1	51200	1	0.7	51200	blue	red	1	4	ml	2.7.3	bip	sub-01_ses-01_task-ml_proj-bip_2020-10-16-10-14-12.141483
329	4	1	7	330	stable	8	200	130	vs	blue	red	red	blue	right	left	0.3	0.7	4	6	1.2	4.2	0	1	0.7	0.3	6	4	4.2	1.2	valid	0.566522159999295	51200	0	0	2	51200	1	51200	1	51200	1	0.7	51200	blue	red	1	6	ml	2.7.3	bip	sub-01_ses-01_task-ml_proj-bip_2020-10-16-10-14-12.141483
330	4	1	7	331	stable	8	200	131	vs	red	blue	red	blue	left	right	0.3	0.7	4	2	1.2	1.4	0	1	0.3	0.7	4	2	1.2	1.4	valid	1.09970720800084	53248	0	1	2	53248	1	53248	1	51200	0	0.7	53248	blue	red	0	2	ml	2.7.3	bip	sub-01_ses-01_task-ml_proj-bip_2020-10-16-10-14-12.141483
331	4	1	7	332	stable	8	200	132	vs	red	blue	red	blue	left	right	0.3	0.7	6	6	1.8	4.2	1	0	0.3	0.7	6	6	1.8	4.2	invalid	0.499884835000557	53248	0	1	2	53248	1	53248	1	53248	1	0.7	53248	blue	red	0	0	ml	2.7.3	bip	sub-01_ses-01_task-ml_proj-bip_2020-10-16-10-14-12.141483
332	4	1	7	333	stable	8	200	133	vs	blue	red	red	blue	right	left	0.3	0.7	2	10	0.6	7.0	0	1	0.7	0.3	10	2	7.0	0.6	valid	0.54985935699915	51200	0	0	2	51200	1	51200	1	51200	1	0.7	51200	blue	red	1	10	ml	2.7.3	bip	sub-01_ses-01_task-ml_proj-bip_2020-10-16-10-14-12.141483
333	4	1	7	334	stable	8	200	134	vs	blue	red	red	blue	right	left	0.3	0.7	6	2	1.8	1.4	0	1	0.7	0.3	2	6	1.4	1.8	valid	1.26632368400169	53248	0	1	1	53248	1	51200	0	53248	1	0.7	51200	blue	red	0	0	ml	2.7.3	bip	sub-01_ses-01_task-ml_proj-bip_2020-10-16-10-14-12.141483
334	4	1	7	335	stable	8	200	135	vs	red	blue	red	blue	left	right	0.3	0.7	6	4	1.8	2.8	1	0	0.3	0.7	6	4	1.8	2.8	invalid	1.16635595799926	53248	0	1	2	53248	1	53248	1	51200	0	0.7	53248	blue	red	0	0	ml	2.7.3	bip	sub-01_ses-01_task-ml_proj-bip_2020-10-16-10-14-12.141483
335	4	1	7	336	stable	8	200	136	vs	red	blue	red	blue	left	right	0.3	0.7	2	6	0.6	4.2	1	0	0.3	0.7	2	6	0.6	4.2	invalid	0.683159459000308	53248	0	1	2	53248	1	53248	1	53248	1	0.7	53248	blue	red	1	0	ml	2.7.3	bip	sub-01_ses-01_task-ml_proj-bip_2020-10-16-10-14-12.141483
336	4	1	7	337	stable	8	200	137	vs	blue	red	red	blue	right	left	0.3	0.7	2	6	0.6	4.2	0	1	0.7	0.3	6	2	4.2	0.6	valid	0.516537330000574	51200	0	0	2	51200	1	51200	1	51200	1	0.7	51200	blue	red	1	6	ml	2.7.3	bip	sub-01_ses-01_task-ml_proj-bip_2020-10-16-10-14-12.141483
337	4	1	7	338	stable	8	200	138	vs	red	blue	red	blue	left	right	0.3	0.7	2	6	0.6	4.2	0	1	0.3	0.7	2	6	0.6	4.2	valid	0.49988526800007105	53248	0	1	2	53248	1	53248	1	53248	1	0.7	53248	blue	red	1	6	ml	2.7.3	bip	sub-01_ses-01_task-ml_proj-bip_2020-10-16-10-14-12.141483
338	4	1	7	339	stable	8	200	139	vs	blue	red	red	blue	right	left	0.3	0.7	6	4	1.8	2.8	1	0	0.7	0.3	4	6	2.8	1.8	invalid	1.04970521199903	51200	0	0	2	51200	1	51200	1	53248	0	0.7	51200	blue	red	0	0	ml	2.7.3	bip	sub-01_ses-01_task-ml_proj-bip_2020-10-16-10-14-12.141483
339	4	1	7	340	stable	8	200	140	vs	blue	red	red	blue	right	left	0.3	0.7	6	6	1.8	4.2	0	1	0.7	0.3	6	6	4.2	1.8	valid	0.833109564000552	51200	0	0	2	51200	1	51200	1	53248	0	0.7	51200	blue	red	1	6	ml	2.7.3	bip	sub-01_ses-01_task-ml_proj-bip_2020-10-16-10-14-12.141483
340	4	1	7	341	stable	8	200	141	vs	blue	red	red	blue	right	left	0.3	0.7	2	2	0.6	1.4	0	1	0.7	0.3	2	2	1.4	0.6	valid	0.599842297999203	51200	0	0	2	51200	1	51200	1	53248	0	0.7	51200	blue	red	1	2	ml	2.7.3	bip	sub-01_ses-01_task-ml_proj-bip_2020-10-16-10-14-12.141483
341	4	1	7	342	stable	8	200	142	vs	blue	red	red	blue	right	left	0.3	0.7	10	2	3.0	1.4	0	1	0.7	0.3	2	10	1.4	3.0	valid	0.8164561300000059	53248	0	1	1	53248	1	51200	0	53248	1	0.7	51200	blue	red	0	0	ml	2.7.3	bip	sub-01_ses-01_task-ml_proj-bip_2020-10-16-10-14-12.141483
342	4	1	7	343	stable	8	200	143	vs	blue	red	red	blue	right	left	0.3	0.7	6	6	1.8	4.2	1	0	0.7	0.3	6	6	4.2	1.8	invalid	0.483214477999354	51200	0	0	2	51200	1	51200	1	53248	0	0.7	51200	blue	red	1	0	ml	2.7.3	bip	sub-01_ses-01_task-ml_proj-bip_2020-10-16-10-14-12.141483
343	4	1	7	344	stable	8	200	144	vs	blue	red	red	blue	right	left	0.3	0.7	6	2	1.8	1.4	0	1	0.7	0.3	2	6	1.4	1.8	valid	1.06637702300031	53248	0	1	1	53248	1	51200	0	53248	1	0.7	51200	blue	red	0	0	ml	2.7.3	bip	sub-01_ses-01_task-ml_proj-bip_2020-10-16-10-14-12.141483
344	4	1	7	345	stable	8	200	145	vs	red	blue	red	blue	left	right	0.3	0.7	2	10	0.6	7.0	1	0	0.3	0.7	2	10	0.6	7.0	invalid	0.649831689001076	53248	0	1	2	53248	1	53248	1	53248	1	0.7	53248	blue	red	1	0	ml	2.7.3	bip	sub-01_ses-01_task-ml_proj-bip_2020-10-16-10-14-12.141483
345	4	1	7	346	stable	8	200	146	vs	blue	red	red	blue	right	left	0.3	0.7	4	6	1.2	4.2	0	1	0.7	0.3	6	4	4.2	1.2	valid	0.616507644999729	51200	0	0	2	51200	1	51200	1	51200	1	0.7	51200	blue	red	1	6	ml	2.7.3	bip	sub-01_ses-01_task-ml_proj-bip_2020-10-16-10-14-12.141483
346	4	1	7	347	stable	8	200	147	vs	red	blue	red	blue	left	right	0.3	0.7	10	2	3.0	1.4	0	1	0.3	0.7	10	2	3.0	1.4	valid	0.633173395000995	51200	0	0	1	51200	1	53248	0	51200	1	0.7	53248	blue	red	0	0	ml	2.7.3	bip	sub-01_ses-01_task-ml_proj-bip_2020-10-16-10-14-12.141483
347	4	1	7	348	stable	8	200	148	vs	red	blue	red	blue	left	right	0.3	0.7	2	10	0.6	7.0	1	0	0.3	0.7	2	10	0.6	7.0	invalid	0.533208136999747	53248	0	1	2	53248	1	53248	1	53248	1	0.7	53248	blue	red	1	0	ml	2.7.3	bip	sub-01_ses-01_task-ml_proj-bip_2020-10-16-10-14-12.141483
348	4	1	7	349	stable	8	200	149	vs	blue	red	red	blue	right	left	0.3	0.7	10	2	3.0	1.4	0	1	0.7	0.3	2	10	1.4	3.0	valid	0.5165379359987129	53248	0	1	1	53248	1	51200	0	53248	1	0.7	51200	blue	red	0	0	ml	2.7.3	bip	sub-01_ses-01_task-ml_proj-bip_2020-10-16-10-14-12.141483
349	4	1	7	350	stable	8	200	150	vs	blue	red	red	blue	right	left	0.3	0.7	4	2	1.2	1.4	1	0	0.7	0.3	2	4	1.4	1.2	invalid	0.983061371000076	51200	0	0	2	51200	1	51200	1	53248	0	0.7	51200	blue	red	0	0	ml	2.7.3	bip	sub-01_ses-01_task-ml_proj-bip_2020-10-16-10-14-12.141483
350	4	1	8	351	stable	8	200	151	vs	red	blue	red	blue	left	right	0.3	0.7	10	2	3.0	1.4	1	0	0.3	0.7	10	2	3.0	1.4	invalid	0.516537716999665	51200	0	0	1	51200	1	53248	0	51200	1	0.7	53248	blue	red	0	10	ml	2.7.3	bip	sub-01_ses-01_task-ml_proj-bip_2020-10-16-10-14-12.141483
351	4	1	8	352	stable	8	200	152	vs	red	blue	red	blue	left	right	0.3	0.7	10	2	3.0	1.4	1	0	0.3	0.7	10	2	3.0	1.4	invalid	0.3999071119997101	51200	0	0	1	51200	1	53248	0	51200	1	0.7	53248	blue	red	0	10	ml	2.7.3	bip	sub-01_ses-01_task-ml_proj-bip_2020-10-16-10-14-12.141483
352	4	1	8	353	stable	8	200	153	vs	red	blue	red	blue	left	right	0.3	0.7	4	2	1.2	1.4	0	1	0.3	0.7	4	2	1.2	1.4	valid	0.516537887000595	51200	0	0	1	53248	0	53248	0	51200	1	0.7	53248	blue	red	0	0	ml	2.7.3	bip	sub-01_ses-01_task-ml_proj-bip_2020-10-16-10-14-12.141483
353	4	1	8	354	stable	8	200	154	vs	blue	red	red	blue	right	left	0.3	0.7	10	2	3.0	1.4	0	1	0.7	0.3	2	10	1.4	3.0	valid	0.533208595999895	53248	0	1	1	53248	1	51200	0	53248	1	0.7	51200	blue	red	0	0	ml	2.7.3	bip	sub-01_ses-01_task-ml_proj-bip_2020-10-16-10-14-12.141483
354	4	1	8	355	stable	8	200	155	vs	blue	red	red	blue	right	left	0.3	0.7	2	4	0.6	2.8	0	1	0.7	0.3	4	2	2.8	0.6	valid	0.633172010000635	51200	0	0	2	51200	1	51200	1	51200	1	0.7	51200	blue	red	1	4	ml	2.7.3	bip	sub-01_ses-01_task-ml_proj-bip_2020-10-16-10-14-12.141483
355	4	1	8	356	stable	8	200	156	vs	red	blue	red	blue	left	right	0.3	0.7	6	6	1.8	4.2	1	0	0.3	0.7	6	6	1.8	4.2	invalid	0.5498657659991301	53248	0	1	2	53248	1	53248	1	53248	1	0.7	53248	blue	red	0	0	ml	2.7.3	bip	sub-01_ses-01_task-ml_proj-bip_2020-10-16-10-14-12.141483
356	4	1	8	357	stable	8	200	157	vs	blue	red	red	blue	right	left	0.3	0.7	2	2	0.6	1.4	0	1	0.7	0.3	2	2	1.4	0.6	valid	0.8497713149990891	51200	0	0	2	51200	1	51200	1	53248	0	0.7	51200	blue	red	1	2	ml	2.7.3	bip	sub-01_ses-01_task-ml_proj-bip_2020-10-16-10-14-12.141483
357	4	1	8	358	stable	8	200	158	vs	red	blue	red	blue	left	right	0.3	0.7	6	2	1.8	1.4	0	1	0.3	0.7	6	2	1.8	1.4	valid	0.816443875999539	51200	0	0	1	51200	1	53248	0	51200	1	0.7	53248	blue	red	0	0	ml	2.7.3	bip	sub-01_ses-01_task-ml_proj-bip_2020-10-16-10-14-12.141483
358	4	1	8	359	stable	8	200	159	vs	red	blue	red	blue	left	right	0.3	0.7	6	2	1.8	1.4	0	1	0.3	0.7	6	2	1.8	1.4	valid	0.9830712839993789	51200	0	0	1	51200	1	53248	0	51200	1	0.7	53248	blue	red	0	0	ml	2.7.3	bip	sub-01_ses-01_task-ml_proj-bip_2020-10-16-10-14-12.141483
359	4	1	8	360	stable	8	200	160	vs	red	blue	red	blue	left	right	0.3	0.7	2	4	0.6	2.8	1	0	0.3	0.7	2	4	0.6	2.8	invalid	0.616515244000766	53248	0	1	2	53248	1	53248	1	53248	1	0.7	53248	blue	red	1	0	ml	2.7.3	bip	sub-01_ses-01_task-ml_proj-bip_2020-10-16-10-14-12.141483
360	4	1	8	361	stable	8	200	161	vs	red	blue	red	blue	left	right	0.3	0.7	2	6	0.6	4.2	0	1	0.3	0.7	2	6	0.6	4.2	valid	0.4998840300013401	53248	0	1	2	53248	1	53248	1	53248	1	0.7	53248	blue	red	1	6	ml	2.7.3	bip	sub-01_ses-01_task-ml_proj-bip_2020-10-16-10-14-12.141483
361	4	1	8	362	stable	8	200	162	vs	red	blue	red	blue	left	right	0.3	0.7	6	2	1.8	1.4	0	1	0.3	0.7	6	2	1.8	1.4	valid	1.0164175829995699	51200	0	0	1	51200	1	53248	0	51200	1	0.7	53248	blue	red	0	0	ml	2.7.3	bip	sub-01_ses-01_task-ml_proj-bip_2020-10-16-10-14-12.141483
362	4	1	8	363	stable	8	200	163	vs	blue	red	red	blue	right	left	0.3	0.7	2	4	0.6	2.8	0	1	0.7	0.3	4	2	2.8	0.6	valid	0.566520598000352	51200	0	0	2	51200	1	51200	1	51200	1	0.7	51200	blue	red	1	4	ml	2.7.3	bip	sub-01_ses-01_task-ml_proj-bip_2020-10-16-10-14-12.141483
363	4	1	8	364	stable	8	200	164	vs	red	blue	red	blue	left	right	0.3	0.7	2	4	0.6	2.8	0	1	0.3	0.7	2	4	0.6	2.8	valid	0.616517671998736	53248	0	1	2	53248	1	53248	1	53248	1	0.7	53248	blue	red	1	4	ml	2.7.3	bip	sub-01_ses-01_task-ml_proj-bip_2020-10-16-10-14-12.141483
364	4	1	8	365	stable	8	200	165	vs	red	blue	red	blue	left	right	0.3	0.7	6	6	1.8	4.2	0	1	0.3	0.7	6	6	1.8	4.2	valid	0.633179672000551	53248	0	1	2	53248	1	53248	1	53248	1	0.7	53248	blue	red	0	6	ml	2.7.3	bip	sub-01_ses-01_task-ml_proj-bip_2020-10-16-10-14-12.141483
365	4	1	8	366	stable	8	200	166	vs	blue	red	red	blue	right	left	0.3	0.7	10	2	3.0	1.4	0	1	0.7	0.3	2	10	1.4	3.0	valid	0.7331488649997479	53248	0	1	1	53248	1	51200	0	53248	1	0.7	51200	blue	red	0	0	ml	2.7.3	bip	sub-01_ses-01_task-ml_proj-bip_2020-10-16-10-14-12.141483
366	4	1	8	367	stable	8	200	167	vs	red	blue	red	blue	left	right	0.3	0.7	4	6	1.2	4.2	0	1	0.3	0.7	4	6	1.2	4.2	valid	0.6665104879994029	53248	0	1	2	53248	1	53248	1	53248	1	0.7	53248	blue	red	1	6	ml	2.7.3	bip	sub-01_ses-01_task-ml_proj-bip_2020-10-16-10-14-12.141483
367	4	1	8	368	stable	8	200	168	vs	blue	red	red	blue	right	left	0.3	0.7	6	4	1.8	2.8	0	1	0.7	0.3	4	6	2.8	1.8	valid	0.699811305999901	51200	0	0	2	51200	1	51200	1	53248	0	0.7	51200	blue	red	0	4	ml	2.7.3	bip	sub-01_ses-01_task-ml_proj-bip_2020-10-16-10-14-12.141483
368	4	1	8	369	stable	8	200	169	vs	blue	red	red	blue	right	left	0.3	0.7	6	4	1.8	2.8	0	1	0.7	0.3	4	6	2.8	1.8	valid	0.716475733999687	51200	0	0	2	51200	1	51200	1	53248	0	0.7	51200	blue	red	0	4	ml	2.7.3	bip	sub-01_ses-01_task-ml_proj-bip_2020-10-16-10-14-12.141483
369	4	1	8	370	stable	8	200	170	vs	blue	red	red	blue	right	left	0.3	0.7	6	4	1.8	2.8	0	1	0.7	0.3	4	6	2.8	1.8	valid	0.7331386529986049	51200	0	0	2	51200	1	51200	1	53248	0	0.7	51200	blue	red	0	4	ml	2.7.3	bip	sub-01_ses-01_task-ml_proj-bip_2020-10-16-10-14-12.141483
370	4	1	8	371	stable	8	200	171	vs	red	blue	red	blue	left	right	0.3	0.7	2	6	0.6	4.2	0	1	0.3	0.7	2	6	0.6	4.2	valid	0.783132717999251	53248	0	1	2	53248	1	53248	1	53248	1	0.7	53248	blue	red	1	6	ml	2.7.3	bip	sub-01_ses-01_task-ml_proj-bip_2020-10-16-10-14-12.141483
371	4	1	8	372	stable	8	200	172	vs	blue	red	red	blue	right	left	0.3	0.7	2	6	0.6	4.2	0	1	0.7	0.3	6	2	4.2	0.6	valid	0.566519856000014	51200	0	0	2	51200	1	51200	1	51200	1	0.7	51200	blue	red	1	6	ml	2.7.3	bip	sub-01_ses-01_task-ml_proj-bip_2020-10-16-10-14-12.141483
372	4	1	8	373	stable	8	200	173	vs	red	blue	red	blue	left	right	0.3	0.7	6	4	1.8	2.8	1	0	0.3	0.7	6	4	1.8	2.8	invalid	0.766465868999148	53248	0	1	2	53248	1	53248	1	51200	0	0.7	53248	blue	red	0	0	ml	2.7.3	bip	sub-01_ses-01_task-ml_proj-bip_2020-10-16-10-14-12.141483
373	4	1	8	374	stable	8	200	174	vs	blue	red	red	blue	right	left	0.3	0.7	2	10	0.6	7.0	1	0	0.7	0.3	10	2	7.0	0.6	invalid	0.5165357379992199	51200	0	0	2	51200	1	51200	1	51200	1	0.7	51200	blue	red	1	0	ml	2.7.3	bip	sub-01_ses-01_task-ml_proj-bip_2020-10-16-10-14-12.141483
374	4	1	8	375	stable	8	200	175	vs	blue	red	red	blue	right	left	0.3	0.7	4	2	1.2	1.4	1	0	0.7	0.3	2	4	1.4	1.2	invalid	0.54986339899915	53248	0	1	1	51200	0	51200	0	53248	1	0.7	51200	blue	red	0	4	ml	2.7.3	bip	sub-01_ses-01_task-ml_proj-bip_2020-10-16-10-14-12.141483
375	4	1	8	376	stable	8	200	176	vs	blue	red	red	blue	right	left	0.3	0.7	2	6	0.6	4.2	0	1	0.7	0.3	6	2	4.2	0.6	valid	0.533211115000086	53248	0	1	1	51200	0	51200	0	51200	0	0.7	51200	blue	red	1	0	ml	2.7.3	bip	sub-01_ses-01_task-ml_proj-bip_2020-10-16-10-14-12.141483
376	4	1	8	377	stable	8	200	177	vs	blue	red	red	blue	right	left	0.3	0.7	6	2	1.8	1.4	0	1	0.7	0.3	2	6	1.4	1.8	valid	0.5332104449989861	53248	0	1	1	53248	1	51200	0	53248	1	0.7	51200	blue	red	0	0	ml	2.7.3	bip	sub-01_ses-01_task-ml_proj-bip_2020-10-16-10-14-12.141483
377	4	1	8	378	stable	8	200	178	vs	red	blue	red	blue	left	right	0.3	0.7	4	6	1.2	4.2	0	1	0.3	0.7	4	6	1.2	4.2	valid	0.533208095999726	53248	0	1	2	53248	1	53248	1	53248	1	0.7	53248	blue	red	1	6	ml	2.7.3	bip	sub-01_ses-01_task-ml_proj-bip_2020-10-16-10-14-12.141483
378	4	1	8	379	stable	8	200	179	vs	red	blue	red	blue	left	right	0.3	0.7	6	4	1.8	2.8	0	1	0.3	0.7	6	4	1.8	2.8	valid	1.1496880160011598	53248	0	1	2	53248	1	53248	1	51200	0	0.7	53248	blue	red	0	4	ml	2.7.3	bip	sub-01_ses-01_task-ml_proj-bip_2020-10-16-10-14-12.141483
379	4	1	8	380	stable	8	200	180	vs	red	blue	red	blue	left	right	0.3	0.7	4	2	1.2	1.4	1	0	0.3	0.7	4	2	1.2	1.4	invalid	0.7831321529993149	53248	0	1	2	53248	1	53248	1	51200	0	0.7	53248	blue	red	0	0	ml	2.7.3	bip	sub-01_ses-01_task-ml_proj-bip_2020-10-16-10-14-12.141483
