Unnamed: 0	sub_id	ses_id	block_no	trial_no	phase_type	phase_no	phase_length	trialInPhase_no	phase_type_order	color_left	color_right	color1	color2	position1	position2	prob1	prob2	mag1	mag2	ev1	ev2	outcome1	outcome2	prob_left	prob_right	mag_left	mag_right	ev_left	ev_right	reward_validity	resp_time	resp_key	timeout	choice_side	choice	ev_corr_resp	ev_correct	prob_corr_resp	prob_correct	mag_corr_resp	mag_correct	high_prob	high_prob_side	high_prob_color	low_prob_color	no_brain	reward	name	version	proj_id	logFileID
0	16	2	1	1	volatile	1	20	1	vs	red	blue	blue	red	right	left	0.7	0.30000000000000004	2	4	1.4	1.2000000000000002	1	0	0.30000000000000004	0.7	4	2	1.2000000000000002	1.4	valid	0.7498068719996809	51200	0	0	2	53248	0	53248	0	51200	1	0.7	53248	blue	red	0	0	ml	2.7.3	bip	sub-16_ses-02_task-ml_proj-bip_2021-02-17-10-14-29.998190
1	16	2	1	2	volatile	1	20	2	vs	blue	red	blue	red	left	right	0.7	0.30000000000000004	10	2	7.0	0.6000000000000001	1	0	0.7	0.30000000000000004	10	2	7.0	0.6000000000000001	valid	0.4832341090004775	53248	0	1	2	51200	0	51200	0	51200	0	0.7	51200	blue	red	1	0	ml	2.7.3	bip	sub-16_ses-02_task-ml_proj-bip_2021-02-17-10-14-29.998190
2	16	2	1	3	volatile	1	20	3	vs	blue	red	blue	red	left	right	0.7	0.30000000000000004	4	6	2.8	1.8000000000000005	0	1	0.7	0.30000000000000004	4	6	2.8	1.8000000000000005	invalid	0.5831946159996733	53248	0	1	2	51200	0	51200	0	53248	1	0.7	51200	blue	red	0	6	ml	2.7.3	bip	sub-16_ses-02_task-ml_proj-bip_2021-02-17-10-14-29.998190
3	16	2	1	4	volatile	1	20	4	vs	blue	red	blue	red	left	right	0.7	0.30000000000000004	2	2	1.4	0.6000000000000001	1	0	0.7	0.30000000000000004	2	2	1.4	0.6000000000000001	valid	0.5998574350014678	53248	0	1	2	51200	0	51200	0	53248	1	0.7	51200	blue	red	1	0	ml	2.7.3	bip	sub-16_ses-02_task-ml_proj-bip_2021-02-17-10-14-29.998190
4	16	2	1	5	volatile	1	20	5	vs	blue	red	blue	red	left	right	0.7	0.30000000000000004	6	6	4.199999999999998	1.8000000000000005	1	0	0.7	0.30000000000000004	6	6	4.199999999999998	1.8000000000000005	valid	0.3999077190001117	51200	0	0	1	51200	1	51200	1	53248	0	0.7	51200	blue	red	1	6	ml	2.7.3	bip	sub-16_ses-02_task-ml_proj-bip_2021-02-17-10-14-29.998190
5	16	2	1	6	volatile	1	20	6	vs	blue	red	blue	red	left	right	0.7	0.30000000000000004	6	2	4.199999999999998	0.6000000000000001	1	0	0.7	0.30000000000000004	6	2	4.199999999999998	0.6000000000000001	valid	0.4499004299996159	51200	0	0	1	51200	1	51200	1	51200	1	0.7	51200	blue	red	1	6	ml	2.7.3	bip	sub-16_ses-02_task-ml_proj-bip_2021-02-17-10-14-29.998190
6	16	2	1	7	volatile	1	20	7	vs	red	blue	blue	red	right	left	0.7	0.30000000000000004	6	2	4.199999999999998	0.6000000000000001	1	0	0.30000000000000004	0.7	2	6	0.6000000000000001	4.199999999999998	valid	0.4332521939995786	53248	0	1	1	53248	1	53248	1	53248	1	0.7	53248	blue	red	1	6	ml	2.7.3	bip	sub-16_ses-02_task-ml_proj-bip_2021-02-17-10-14-29.998190
7	16	2	1	8	volatile	1	20	8	vs	red	blue	blue	red	right	left	0.7	0.30000000000000004	2	10	1.4	3.0000000000000004	1	0	0.30000000000000004	0.7	10	2	3.0000000000000004	1.4	valid	0.81644773699918	51200	0	0	2	51200	1	53248	0	51200	1	0.7	53248	blue	red	0	0	ml	2.7.3	bip	sub-16_ses-02_task-ml_proj-bip_2021-02-17-10-14-29.998190
8	16	2	1	9	volatile	1	20	9	vs	red	blue	blue	red	right	left	0.7	0.30000000000000004	4	6	2.8	1.8000000000000005	0	1	0.30000000000000004	0.7	6	4	1.8000000000000005	2.8	invalid	0.39991924300011306	53248	0	1	1	53248	1	53248	1	51200	0	0.7	53248	blue	red	0	0	ml	2.7.3	bip	sub-16_ses-02_task-ml_proj-bip_2021-02-17-10-14-29.998190
9	16	2	1	10	volatile	1	20	10	vs	red	blue	blue	red	right	left	0.7	0.30000000000000004	2	4	1.4	1.2000000000000002	1	0	0.30000000000000004	0.7	4	2	1.2000000000000002	1.4	valid	1.0830451199999516	53248	0	1	1	53248	1	53248	1	51200	0	0.7	53248	blue	red	0	2	ml	2.7.3	bip	sub-16_ses-02_task-ml_proj-bip_2021-02-17-10-14-29.998190
10	16	2	1	11	volatile	1	20	11	vs	blue	red	blue	red	left	right	0.7	0.30000000000000004	6	2	4.199999999999998	0.6000000000000001	0	1	0.7	0.30000000000000004	6	2	4.199999999999998	0.6000000000000001	invalid	0.4332300240002951	51200	0	0	1	51200	1	51200	1	51200	1	0.7	51200	blue	red	1	0	ml	2.7.3	bip	sub-16_ses-02_task-ml_proj-bip_2021-02-17-10-14-29.998190
11	16	2	1	12	volatile	1	20	12	vs	blue	red	blue	red	left	right	0.7	0.30000000000000004	2	4	1.4	1.2000000000000002	1	0	0.7	0.30000000000000004	2	4	1.4	1.2000000000000002	valid	0.8830982670006051	51200	0	0	1	51200	1	51200	1	53248	0	0.7	51200	blue	red	0	2	ml	2.7.3	bip	sub-16_ses-02_task-ml_proj-bip_2021-02-17-10-14-29.998190
12	16	2	1	13	volatile	1	20	13	vs	blue	red	blue	red	left	right	0.7	0.30000000000000004	2	6	1.4	1.8000000000000005	1	0	0.7	0.30000000000000004	2	6	1.4	1.8000000000000005	valid	1.0164018170016789	51200	0	0	1	53248	0	51200	1	53248	0	0.7	51200	blue	red	0	2	ml	2.7.3	bip	sub-16_ses-02_task-ml_proj-bip_2021-02-17-10-14-29.998190
13	16	2	1	14	volatile	1	20	14	vs	blue	red	blue	red	left	right	0.7	0.30000000000000004	4	6	2.8	1.8000000000000005	1	0	0.7	0.30000000000000004	4	6	2.8	1.8000000000000005	valid	0.5998476460008533	51200	0	0	1	51200	1	51200	1	53248	0	0.7	51200	blue	red	0	4	ml	2.7.3	bip	sub-16_ses-02_task-ml_proj-bip_2021-02-17-10-14-29.998190
14	16	2	1	15	volatile	1	20	15	vs	red	blue	blue	red	right	left	0.7	0.30000000000000004	2	2	1.4	0.6000000000000001	1	0	0.30000000000000004	0.7	2	2	0.6000000000000001	1.4	valid	0.6165194019995397	53248	0	1	1	53248	1	53248	1	53248	1	0.7	53248	blue	red	0	2	ml	2.7.3	bip	sub-16_ses-02_task-ml_proj-bip_2021-02-17-10-14-29.998190
15	16	2	1	16	volatile	1	20	16	vs	red	blue	blue	red	right	left	0.7	0.30000000000000004	4	2	2.8	0.6000000000000001	0	1	0.30000000000000004	0.7	2	4	0.6000000000000001	2.8	invalid	0.5498678229996585	53248	0	1	1	53248	1	53248	1	53248	1	0.7	53248	blue	red	1	0	ml	2.7.3	bip	sub-16_ses-02_task-ml_proj-bip_2021-02-17-10-14-29.998190
16	16	2	1	17	volatile	1	20	17	vs	red	blue	blue	red	right	left	0.7	0.30000000000000004	4	6	2.8	1.8000000000000005	1	0	0.30000000000000004	0.7	6	4	1.8000000000000005	2.8	valid	0.5998581240000931	53248	0	1	1	53248	1	53248	1	51200	0	0.7	53248	blue	red	0	4	ml	2.7.3	bip	sub-16_ses-02_task-ml_proj-bip_2021-02-17-10-14-29.998190
17	16	2	1	18	volatile	1	20	18	vs	red	blue	blue	red	right	left	0.7	0.30000000000000004	10	2	7.0	0.6000000000000001	1	0	0.30000000000000004	0.7	2	10	0.6000000000000001	7.0	valid	0.4998905730008119	53248	0	1	1	53248	1	53248	1	53248	1	0.7	53248	blue	red	1	10	ml	2.7.3	bip	sub-16_ses-02_task-ml_proj-bip_2021-02-17-10-14-29.998190
18	16	2	1	19	volatile	1	20	19	vs	red	blue	blue	red	right	left	0.7	0.30000000000000004	10	2	7.0	0.6000000000000001	0	1	0.30000000000000004	0.7	2	10	0.6000000000000001	7.0	invalid	0.5998565440004313	53248	0	1	1	53248	1	53248	1	53248	1	0.7	53248	blue	red	1	0	ml	2.7.3	bip	sub-16_ses-02_task-ml_proj-bip_2021-02-17-10-14-29.998190
19	16	2	1	20	volatile	1	20	20	vs	blue	red	blue	red	left	right	0.7	0.30000000000000004	6	6	4.199999999999998	1.8000000000000005	0	1	0.7	0.30000000000000004	6	6	4.199999999999998	1.8000000000000005	invalid	0.483213704001173	51200	0	0	1	51200	1	51200	1	53248	0	0.7	51200	blue	red	1	0	ml	2.7.3	bip	sub-16_ses-02_task-ml_proj-bip_2021-02-17-10-14-29.998190
20	16	2	1	21	volatile	2	20	1	vs	blue	red	blue	red	left	right	0.30000000000000004	0.7	2	2	0.6000000000000001	1.4	0	1	0.30000000000000004	0.7	2	2	0.6000000000000001	1.4	valid	0.5665190270010498	51200	0	0	1	53248	0	53248	0	53248	0	0.7	53248	red	blue	0	0	ml	2.7.3	bip	sub-16_ses-02_task-ml_proj-bip_2021-02-17-10-14-29.998190
21	16	2	1	22	volatile	2	20	2	vs	red	blue	blue	red	right	left	0.30000000000000004	0.7	4	2	1.2000000000000002	1.4	0	1	0.7	0.30000000000000004	2	4	1.4	1.2000000000000002	valid	0.5831949779985734	53248	0	1	1	51200	0	51200	0	53248	1	0.7	51200	red	blue	0	0	ml	2.7.3	bip	sub-16_ses-02_task-ml_proj-bip_2021-02-17-10-14-29.998190
22	16	2	1	23	volatile	2	20	3	vs	blue	red	blue	red	left	right	0.30000000000000004	0.7	6	4	1.8000000000000005	2.8	0	1	0.30000000000000004	0.7	6	4	1.8000000000000005	2.8	valid	0.5831903359994612	51200	0	0	1	53248	0	53248	0	51200	1	0.7	53248	red	blue	0	0	ml	2.7.3	bip	sub-16_ses-02_task-ml_proj-bip_2021-02-17-10-14-29.998190
23	16	2	1	24	volatile	2	20	4	vs	blue	red	blue	red	left	right	0.30000000000000004	0.7	2	4	0.6000000000000001	2.8	0	1	0.30000000000000004	0.7	2	4	0.6000000000000001	2.8	valid	0.7331408080008259	51200	0	0	1	53248	0	53248	0	53248	0	0.7	53248	red	blue	1	0	ml	2.7.3	bip	sub-16_ses-02_task-ml_proj-bip_2021-02-17-10-14-29.998190
24	16	2	1	25	volatile	2	20	5	vs	blue	red	blue	red	left	right	0.30000000000000004	0.7	10	2	3.0000000000000004	1.4	1	0	0.30000000000000004	0.7	10	2	3.0000000000000004	1.4	invalid	0.583188053999038	51200	0	0	1	51200	1	53248	0	51200	1	0.7	53248	red	blue	0	10	ml	2.7.3	bip	sub-16_ses-02_task-ml_proj-bip_2021-02-17-10-14-29.998190
25	16	2	1	26	volatile	2	20	6	vs	red	blue	blue	red	right	left	0.30000000000000004	0.7	2	6	0.6000000000000001	4.199999999999998	1	0	0.7	0.30000000000000004	6	2	4.199999999999998	0.6000000000000001	invalid	0.8997566390007705	51200	0	0	2	51200	1	51200	1	51200	1	0.7	51200	red	blue	1	0	ml	2.7.3	bip	sub-16_ses-02_task-ml_proj-bip_2021-02-17-10-14-29.998190
26	16	2	1	27	volatile	2	20	7	vs	red	blue	blue	red	right	left	0.30000000000000004	0.7	6	6	1.8000000000000005	4.199999999999998	0	1	0.7	0.30000000000000004	6	6	4.199999999999998	1.8000000000000005	valid	0.4665657349996764	53248	0	1	1	51200	0	51200	0	53248	1	0.7	51200	red	blue	1	0	ml	2.7.3	bip	sub-16_ses-02_task-ml_proj-bip_2021-02-17-10-14-29.998190
27	16	2	1	28	volatile	2	20	8	vs	blue	red	blue	red	left	right	0.30000000000000004	0.7	4	2	1.2000000000000002	1.4	0	1	0.30000000000000004	0.7	4	2	1.2000000000000002	1.4	valid	0.41656786100065796	51200	0	0	1	53248	0	53248	0	51200	1	0.7	53248	red	blue	0	0	ml	2.7.3	bip	sub-16_ses-02_task-ml_proj-bip_2021-02-17-10-14-29.998190
28	16	2	1	29	volatile	2	20	9	vs	red	blue	blue	red	right	left	0.30000000000000004	0.7	2	4	0.6000000000000001	2.8	0	1	0.7	0.30000000000000004	4	2	2.8	0.6000000000000001	valid	0.3999133409997739	51200	0	0	2	51200	1	51200	1	51200	1	0.7	51200	red	blue	1	4	ml	2.7.3	bip	sub-16_ses-02_task-ml_proj-bip_2021-02-17-10-14-29.998190
29	16	2	1	30	volatile	2	20	10	vs	blue	red	blue	red	left	right	0.30000000000000004	0.7	6	2	1.8000000000000005	1.4	1	0	0.30000000000000004	0.7	6	2	1.8000000000000005	1.4	invalid	0.4332453949991759	53248	0	1	2	51200	0	53248	1	51200	0	0.7	53248	red	blue	0	0	ml	2.7.3	bip	sub-16_ses-02_task-ml_proj-bip_2021-02-17-10-14-29.998190
30	16	2	1	31	volatile	2	20	11	vs	red	blue	blue	red	right	left	0.30000000000000004	0.7	10	2	3.0000000000000004	1.4	0	1	0.7	0.30000000000000004	2	10	1.4	3.0000000000000004	valid	0.8331199869990087	53248	0	1	1	53248	1	51200	0	53248	1	0.7	51200	red	blue	0	0	ml	2.7.3	bip	sub-16_ses-02_task-ml_proj-bip_2021-02-17-10-14-29.998190
31	16	2	1	32	volatile	2	20	12	vs	red	blue	blue	red	right	left	0.30000000000000004	0.7	2	10	0.6000000000000001	7.0	0	1	0.7	0.30000000000000004	10	2	7.0	0.6000000000000001	valid	0.4498921839985997	51200	0	0	2	51200	1	51200	1	51200	1	0.7	51200	red	blue	1	10	ml	2.7.3	bip	sub-16_ses-02_task-ml_proj-bip_2021-02-17-10-14-29.998190
32	16	2	1	33	volatile	2	20	13	vs	red	blue	blue	red	right	left	0.30000000000000004	0.7	6	2	1.8000000000000005	1.4	1	0	0.7	0.30000000000000004	2	6	1.4	1.8000000000000005	invalid	0.5831801389995235	51200	0	0	2	53248	0	51200	1	53248	0	0.7	51200	red	blue	0	0	ml	2.7.3	bip	sub-16_ses-02_task-ml_proj-bip_2021-02-17-10-14-29.998190
33	16	2	1	34	volatile	2	20	14	vs	red	blue	blue	red	right	left	0.30000000000000004	0.7	10	2	3.0000000000000004	1.4	0	1	0.7	0.30000000000000004	2	10	1.4	3.0000000000000004	valid	0.6331886150001083	53248	0	1	1	53248	1	51200	0	53248	1	0.7	51200	red	blue	0	0	ml	2.7.3	bip	sub-16_ses-02_task-ml_proj-bip_2021-02-17-10-14-29.998190
34	16	2	1	35	volatile	2	20	15	vs	blue	red	blue	red	left	right	0.30000000000000004	0.7	6	4	1.8000000000000005	2.8	0	1	0.30000000000000004	0.7	6	4	1.8000000000000005	2.8	valid	0.5831822460004332	51200	0	0	1	53248	0	53248	0	51200	1	0.7	53248	red	blue	0	0	ml	2.7.3	bip	sub-16_ses-02_task-ml_proj-bip_2021-02-17-10-14-29.998190
35	16	2	1	36	volatile	2	20	16	vs	blue	red	blue	red	left	right	0.30000000000000004	0.7	2	6	0.6000000000000001	4.199999999999998	0	1	0.30000000000000004	0.7	2	6	0.6000000000000001	4.199999999999998	valid	0.8497752869989199	53248	0	1	2	53248	1	53248	1	53248	1	0.7	53248	red	blue	1	6	ml	2.7.3	bip	sub-16_ses-02_task-ml_proj-bip_2021-02-17-10-14-29.998190
36	16	2	1	37	volatile	2	20	17	vs	blue	red	blue	red	left	right	0.30000000000000004	0.7	4	6	1.2000000000000002	4.199999999999998	0	1	0.30000000000000004	0.7	4	6	1.2000000000000002	4.199999999999998	valid	0.43324292599936604	53248	0	1	2	53248	1	53248	1	53248	1	0.7	53248	red	blue	1	6	ml	2.7.3	bip	sub-16_ses-02_task-ml_proj-bip_2021-02-17-10-14-29.998190
37	16	2	1	38	volatile	2	20	18	vs	red	blue	blue	red	right	left	0.30000000000000004	0.7	6	4	1.8000000000000005	2.8	1	0	0.7	0.30000000000000004	4	6	2.8	1.8000000000000005	invalid	0.4832166849992064	51200	0	0	2	51200	1	51200	1	53248	0	0.7	51200	red	blue	0	0	ml	2.7.3	bip	sub-16_ses-02_task-ml_proj-bip_2021-02-17-10-14-29.998190
38	16	2	1	39	volatile	2	20	19	vs	red	blue	blue	red	right	left	0.30000000000000004	0.7	2	2	0.6000000000000001	1.4	0	1	0.7	0.30000000000000004	2	2	1.4	0.6000000000000001	valid	0.566513052001028	51200	0	0	2	51200	1	51200	1	53248	0	0.7	51200	red	blue	1	2	ml	2.7.3	bip	sub-16_ses-02_task-ml_proj-bip_2021-02-17-10-14-29.998190
39	16	2	1	40	volatile	2	20	20	vs	blue	red	blue	red	left	right	0.30000000000000004	0.7	6	6	1.8000000000000005	4.199999999999998	1	0	0.30000000000000004	0.7	6	6	1.8000000000000005	4.199999999999998	invalid	0.4998876640001981	53248	0	1	2	53248	1	53248	1	53248	1	0.7	53248	red	blue	0	0	ml	2.7.3	bip	sub-16_ses-02_task-ml_proj-bip_2021-02-17-10-14-29.998190
40	16	2	1	41	volatile	3	20	1	vs	red	blue	blue	red	right	left	0.7	0.30000000000000004	2	4	1.4	1.2000000000000002	0	1	0.30000000000000004	0.7	4	2	1.2000000000000002	1.4	invalid	0.5332005429991113	51200	0	0	2	53248	0	53248	0	51200	1	0.7	53248	blue	red	0	4	ml	2.7.3	bip	sub-16_ses-02_task-ml_proj-bip_2021-02-17-10-14-29.998190
41	16	2	1	42	volatile	3	20	2	vs	blue	red	blue	red	left	right	0.7	0.30000000000000004	4	6	2.8	1.8000000000000005	1	0	0.7	0.30000000000000004	4	6	2.8	1.8000000000000005	valid	0.4665801040009683	53248	0	1	2	51200	0	51200	0	53248	1	0.7	51200	blue	red	0	0	ml	2.7.3	bip	sub-16_ses-02_task-ml_proj-bip_2021-02-17-10-14-29.998190
42	16	2	1	43	volatile	3	20	3	vs	blue	red	blue	red	left	right	0.7	0.30000000000000004	4	2	2.8	0.6000000000000001	1	0	0.7	0.30000000000000004	4	2	2.8	0.6000000000000001	valid	0.5165499090016965	53248	0	1	2	51200	0	51200	0	51200	0	0.7	51200	blue	red	1	0	ml	2.7.3	bip	sub-16_ses-02_task-ml_proj-bip_2021-02-17-10-14-29.998190
43	16	2	1	44	volatile	3	20	4	vs	red	blue	blue	red	right	left	0.7	0.30000000000000004	4	2	2.8	0.6000000000000001	1	0	0.30000000000000004	0.7	2	4	0.6000000000000001	2.8	valid	0.4165675530002773	51200	0	0	2	53248	0	53248	0	53248	0	0.7	53248	blue	red	1	0	ml	2.7.3	bip	sub-16_ses-02_task-ml_proj-bip_2021-02-17-10-14-29.998190
44	16	2	1	45	volatile	3	20	5	vs	blue	red	blue	red	left	right	0.7	0.30000000000000004	10	2	7.0	0.6000000000000001	0	1	0.7	0.30000000000000004	10	2	7.0	0.6000000000000001	invalid	0.4165677050004888	51200	0	0	1	51200	1	51200	1	51200	1	0.7	51200	blue	red	1	0	ml	2.7.3	bip	sub-16_ses-02_task-ml_proj-bip_2021-02-17-10-14-29.998190
45	16	2	1	46	volatile	3	20	6	vs	red	blue	blue	red	right	left	0.7	0.30000000000000004	2	2	1.4	0.6000000000000001	0	1	0.30000000000000004	0.7	2	2	0.6000000000000001	1.4	invalid	0.5332100800005719	53248	0	1	1	53248	1	53248	1	53248	1	0.7	53248	blue	red	0	0	ml	2.7.3	bip	sub-16_ses-02_task-ml_proj-bip_2021-02-17-10-14-29.998190
46	16	2	1	47	volatile	3	20	7	vs	blue	red	blue	red	left	right	0.7	0.30000000000000004	6	2	4.199999999999998	0.6000000000000001	0	1	0.7	0.30000000000000004	6	2	4.199999999999998	0.6000000000000001	invalid	0.38325134700062335	51200	0	0	1	51200	1	51200	1	51200	1	0.7	51200	blue	red	1	0	ml	2.7.3	bip	sub-16_ses-02_task-ml_proj-bip_2021-02-17-10-14-29.998190
47	16	2	1	48	volatile	3	20	8	vs	red	blue	blue	red	right	left	0.7	0.30000000000000004	4	6	2.8	1.8000000000000005	1	0	0.30000000000000004	0.7	6	4	1.8000000000000005	2.8	valid	0.5665238220008177	51200	0	0	2	53248	0	53248	0	51200	1	0.7	53248	blue	red	0	0	ml	2.7.3	bip	sub-16_ses-02_task-ml_proj-bip_2021-02-17-10-14-29.998190
48	16	2	1	49	volatile	3	20	9	vs	red	blue	blue	red	right	left	0.7	0.30000000000000004	6	4	4.199999999999998	1.2000000000000002	1	0	0.30000000000000004	0.7	4	6	1.2000000000000002	4.199999999999998	valid	0.5498726100013299	53248	0	1	1	53248	1	53248	1	53248	1	0.7	53248	blue	red	1	6	ml	2.7.3	bip	sub-16_ses-02_task-ml_proj-bip_2021-02-17-10-14-29.998190
49	16	2	1	50	volatile	3	20	10	vs	blue	red	blue	red	left	right	0.7	0.30000000000000004	6	6	4.199999999999998	1.8000000000000005	1	0	0.7	0.30000000000000004	6	6	4.199999999999998	1.8000000000000005	valid	0.4332312090009509	51200	0	0	1	51200	1	51200	1	53248	0	0.7	51200	blue	red	1	6	ml	2.7.3	bip	sub-16_ses-02_task-ml_proj-bip_2021-02-17-10-14-29.998190
50	16	2	2	51	volatile	3	20	11	vs	red	blue	blue	red	right	left	0.7	0.30000000000000004	4	6	2.8	1.8000000000000005	1	0	0.30000000000000004	0.7	6	4	1.8000000000000005	2.8	valid	0.6331840820002981	51200	0	0	2	53248	0	53248	0	51200	1	0.7	53248	blue	red	0	0	ml	2.7.3	bip	sub-16_ses-02_task-ml_proj-bip_2021-02-17-10-14-29.998190
51	16	2	2	52	volatile	3	20	12	vs	red	blue	blue	red	right	left	0.7	0.30000000000000004	4	2	2.8	0.6000000000000001	1	0	0.30000000000000004	0.7	2	4	0.6000000000000001	2.8	valid	0.4165858010001102	53248	0	1	1	53248	1	53248	1	53248	1	0.7	53248	blue	red	1	4	ml	2.7.3	bip	sub-16_ses-02_task-ml_proj-bip_2021-02-17-10-14-29.998190
52	16	2	2	53	volatile	3	20	13	vs	red	blue	blue	red	right	left	0.7	0.30000000000000004	2	10	1.4	3.0000000000000004	1	0	0.30000000000000004	0.7	10	2	3.0000000000000004	1.4	valid	0.966401286999826	51200	0	0	2	51200	1	53248	0	51200	1	0.7	53248	blue	red	0	0	ml	2.7.3	bip	sub-16_ses-02_task-ml_proj-bip_2021-02-17-10-14-29.998190
53	16	2	2	54	volatile	3	20	14	vs	red	blue	blue	red	right	left	0.7	0.30000000000000004	10	2	7.0	0.6000000000000001	1	0	0.30000000000000004	0.7	2	10	0.6000000000000001	7.0	valid	0.449903857001118	53248	0	1	1	53248	1	53248	1	53248	1	0.7	53248	blue	red	1	10	ml	2.7.3	bip	sub-16_ses-02_task-ml_proj-bip_2021-02-17-10-14-29.998190
54	16	2	2	55	volatile	3	20	15	vs	blue	red	blue	red	left	right	0.7	0.30000000000000004	2	10	1.4	3.0000000000000004	1	0	0.7	0.30000000000000004	2	10	1.4	3.0000000000000004	valid	1.282969272999253	51200	0	0	1	53248	0	51200	1	53248	0	0.7	51200	blue	red	0	2	ml	2.7.3	bip	sub-16_ses-02_task-ml_proj-bip_2021-02-17-10-14-29.998190
55	16	2	2	56	volatile	3	20	16	vs	blue	red	blue	red	left	right	0.7	0.30000000000000004	2	2	1.4	0.6000000000000001	0	1	0.7	0.30000000000000004	2	2	1.4	0.6000000000000001	invalid	0.4832155540007079	51200	0	0	1	51200	1	51200	1	53248	0	0.7	51200	blue	red	1	0	ml	2.7.3	bip	sub-16_ses-02_task-ml_proj-bip_2021-02-17-10-14-29.998190
56	16	2	2	57	volatile	3	20	17	vs	blue	red	blue	red	left	right	0.7	0.30000000000000004	6	6	4.199999999999998	1.8000000000000005	1	0	0.7	0.30000000000000004	6	6	4.199999999999998	1.8000000000000005	valid	0.41660257799958345	51200	0	0	1	51200	1	51200	1	53248	0	0.7	51200	blue	red	1	6	ml	2.7.3	bip	sub-16_ses-02_task-ml_proj-bip_2021-02-17-10-14-29.998190
57	16	2	2	58	volatile	3	20	18	vs	blue	red	blue	red	left	right	0.7	0.30000000000000004	2	6	1.4	1.8000000000000005	1	0	0.7	0.30000000000000004	2	6	1.4	1.8000000000000005	valid	0.7997875290002412	51200	0	0	1	53248	0	51200	1	53248	0	0.7	51200	blue	red	0	2	ml	2.7.3	bip	sub-16_ses-02_task-ml_proj-bip_2021-02-17-10-14-29.998190
58	16	2	2	59	volatile	3	20	19	vs	blue	red	blue	red	left	right	0.7	0.30000000000000004	2	6	1.4	1.8000000000000005	1	0	0.7	0.30000000000000004	2	6	1.4	1.8000000000000005	valid	0.5665088249988912	51200	0	0	1	53248	0	51200	1	53248	0	0.7	51200	blue	red	0	2	ml	2.7.3	bip	sub-16_ses-02_task-ml_proj-bip_2021-02-17-10-14-29.998190
59	16	2	2	60	volatile	3	20	20	vs	red	blue	blue	red	right	left	0.7	0.30000000000000004	2	6	1.4	1.8000000000000005	0	1	0.30000000000000004	0.7	6	2	1.8000000000000005	1.4	invalid	0.8164587610008311	53248	0	1	1	51200	0	53248	1	51200	0	0.7	53248	blue	red	0	0	ml	2.7.3	bip	sub-16_ses-02_task-ml_proj-bip_2021-02-17-10-14-29.998190
60	16	2	2	61	volatile	4	40	1	vs	red	blue	blue	red	right	left	0.30000000000000004	0.7	4	2	1.2000000000000002	1.4	1	0	0.7	0.30000000000000004	2	4	1.4	1.2000000000000002	invalid	0.5665344140015804	53248	0	1	1	51200	0	51200	0	53248	1	0.7	51200	red	blue	0	4	ml	2.7.3	bip	sub-16_ses-02_task-ml_proj-bip_2021-02-17-10-14-29.998190
61	16	2	2	62	volatile	4	40	2	vs	blue	red	blue	red	left	right	0.30000000000000004	0.7	6	6	1.8000000000000005	4.199999999999998	0	1	0.30000000000000004	0.7	6	6	1.8000000000000005	4.199999999999998	valid	0.4498897430003126	51200	0	0	1	53248	0	53248	0	53248	0	0.7	53248	red	blue	0	0	ml	2.7.3	bip	sub-16_ses-02_task-ml_proj-bip_2021-02-17-10-14-29.998190
62	16	2	2	63	volatile	4	40	3	vs	red	blue	blue	red	right	left	0.30000000000000004	0.7	10	2	3.0000000000000004	1.4	1	0	0.7	0.30000000000000004	2	10	1.4	3.0000000000000004	invalid	0.4832258639999054	53248	0	1	1	53248	1	51200	0	53248	1	0.7	51200	red	blue	0	10	ml	2.7.3	bip	sub-16_ses-02_task-ml_proj-bip_2021-02-17-10-14-29.998190
63	16	2	2	64	volatile	4	40	4	vs	red	blue	blue	red	right	left	0.30000000000000004	0.7	2	2	0.6000000000000001	1.4	0	1	0.7	0.30000000000000004	2	2	1.4	0.6000000000000001	valid	0.4499033399988548	53248	0	1	1	51200	0	51200	0	53248	1	0.7	51200	red	blue	1	0	ml	2.7.3	bip	sub-16_ses-02_task-ml_proj-bip_2021-02-17-10-14-29.998190
64	16	2	2	65	volatile	4	40	5	vs	blue	red	blue	red	left	right	0.30000000000000004	0.7	6	4	1.8000000000000005	2.8	1	0	0.30000000000000004	0.7	6	4	1.8000000000000005	2.8	invalid	0.4165677130004042	51200	0	0	1	53248	0	53248	0	51200	1	0.7	53248	red	blue	0	6	ml	2.7.3	bip	sub-16_ses-02_task-ml_proj-bip_2021-02-17-10-14-29.998190
65	16	2	2	66	volatile	4	40	6	vs	red	blue	blue	red	right	left	0.30000000000000004	0.7	6	4	1.8000000000000005	2.8	0	1	0.7	0.30000000000000004	4	6	2.8	1.8000000000000005	valid	0.3999241059991617	53248	0	1	1	51200	0	51200	0	53248	1	0.7	51200	red	blue	0	0	ml	2.7.3	bip	sub-16_ses-02_task-ml_proj-bip_2021-02-17-10-14-29.998190
66	16	2	2	67	volatile	4	40	7	vs	blue	red	blue	red	left	right	0.30000000000000004	0.7	6	6	1.8000000000000005	4.199999999999998	0	1	0.30000000000000004	0.7	6	6	1.8000000000000005	4.199999999999998	valid	0.4665531209993787	51200	0	0	1	53248	0	53248	0	53248	0	0.7	53248	red	blue	0	0	ml	2.7.3	bip	sub-16_ses-02_task-ml_proj-bip_2021-02-17-10-14-29.998190
67	16	2	2	68	volatile	4	40	8	vs	red	blue	blue	red	right	left	0.30000000000000004	0.7	2	6	0.6000000000000001	4.199999999999998	0	1	0.7	0.30000000000000004	6	2	4.199999999999998	0.6000000000000001	valid	0.5832025159998011	53248	0	1	1	51200	0	51200	0	51200	0	0.7	51200	red	blue	1	0	ml	2.7.3	bip	sub-16_ses-02_task-ml_proj-bip_2021-02-17-10-14-29.998190
68	16	2	2	69	volatile	4	40	9	vs	red	blue	blue	red	right	left	0.30000000000000004	0.7	6	2	1.8000000000000005	1.4	1	0	0.7	0.30000000000000004	2	6	1.4	1.8000000000000005	invalid	0.7331514240013348	53248	0	1	1	53248	1	51200	0	53248	1	0.7	51200	red	blue	0	6	ml	2.7.3	bip	sub-16_ses-02_task-ml_proj-bip_2021-02-17-10-14-29.998190
69	16	2	2	70	volatile	4	40	10	vs	blue	red	blue	red	left	right	0.30000000000000004	0.7	2	4	0.6000000000000001	2.8	0	1	0.30000000000000004	0.7	2	4	0.6000000000000001	2.8	valid	0.4998768620007468	51200	0	0	1	53248	0	53248	0	53248	0	0.7	53248	red	blue	1	0	ml	2.7.3	bip	sub-16_ses-02_task-ml_proj-bip_2021-02-17-10-14-29.998190
70	16	2	2	71	volatile	4	40	11	vs	blue	red	blue	red	left	right	0.30000000000000004	0.7	6	4	1.8000000000000005	2.8	0	1	0.30000000000000004	0.7	6	4	1.8000000000000005	2.8	valid	0.4332307750009932	51200	0	0	1	53248	0	53248	0	51200	1	0.7	53248	red	blue	0	0	ml	2.7.3	bip	sub-16_ses-02_task-ml_proj-bip_2021-02-17-10-14-29.998190
71	16	2	2	72	volatile	4	40	12	vs	red	blue	blue	red	right	left	0.30000000000000004	0.7	2	10	0.6000000000000001	7.0	0	1	0.7	0.30000000000000004	10	2	7.0	0.6000000000000001	valid	0.6831622749996313	53248	0	1	1	51200	0	51200	0	51200	0	0.7	51200	red	blue	1	0	ml	2.7.3	bip	sub-16_ses-02_task-ml_proj-bip_2021-02-17-10-14-29.998190
72	16	2	2	73	volatile	4	40	13	vs	blue	red	blue	red	left	right	0.30000000000000004	0.7	2	2	0.6000000000000001	1.4	0	1	0.30000000000000004	0.7	2	2	0.6000000000000001	1.4	valid	0.6331691670002328	51200	0	0	1	53248	0	53248	0	53248	0	0.7	53248	red	blue	0	0	ml	2.7.3	bip	sub-16_ses-02_task-ml_proj-bip_2021-02-17-10-14-29.998190
73	16	2	2	74	volatile	4	40	14	vs	red	blue	blue	red	right	left	0.30000000000000004	0.7	2	2	0.6000000000000001	1.4	0	1	0.7	0.30000000000000004	2	2	1.4	0.6000000000000001	valid	0.8331027780004661	51200	0	0	2	51200	1	51200	1	53248	0	0.7	51200	red	blue	1	2	ml	2.7.3	bip	sub-16_ses-02_task-ml_proj-bip_2021-02-17-10-14-29.998190
74	16	2	2	75	volatile	4	40	15	vs	blue	red	blue	red	left	right	0.30000000000000004	0.7	4	6	1.2000000000000002	4.199999999999998	0	1	0.30000000000000004	0.7	4	6	1.2000000000000002	4.199999999999998	valid	0.4665651220002474	53248	0	1	2	53248	1	53248	1	53248	1	0.7	53248	red	blue	1	6	ml	2.7.3	bip	sub-16_ses-02_task-ml_proj-bip_2021-02-17-10-14-29.998190
75	16	2	2	76	volatile	4	40	16	vs	red	blue	blue	red	right	left	0.30000000000000004	0.7	10	2	3.0000000000000004	1.4	0	1	0.7	0.30000000000000004	2	10	1.4	3.0000000000000004	valid	0.9497459049998724	53248	0	1	1	53248	1	51200	0	53248	1	0.7	51200	red	blue	0	0	ml	2.7.3	bip	sub-16_ses-02_task-ml_proj-bip_2021-02-17-10-14-29.998190
76	16	2	2	77	volatile	4	40	17	vs	red	blue	blue	red	right	left	0.30000000000000004	0.7	2	4	0.6000000000000001	2.8	0	1	0.7	0.30000000000000004	4	2	2.8	0.6000000000000001	valid	0.4665662269999302	51200	0	0	2	51200	1	51200	1	51200	1	0.7	51200	red	blue	1	4	ml	2.7.3	bip	sub-16_ses-02_task-ml_proj-bip_2021-02-17-10-14-29.998190
77	16	2	2	78	volatile	4	40	18	vs	red	blue	blue	red	right	left	0.30000000000000004	0.7	6	6	1.8000000000000005	4.199999999999998	1	0	0.7	0.30000000000000004	6	6	4.199999999999998	1.8000000000000005	invalid	0.4165670719994523	51200	0	0	2	51200	1	51200	1	53248	0	0.7	51200	red	blue	1	0	ml	2.7.3	bip	sub-16_ses-02_task-ml_proj-bip_2021-02-17-10-14-29.998190
78	16	2	2	79	volatile	4	40	19	vs	blue	red	blue	red	left	right	0.30000000000000004	0.7	2	2	0.6000000000000001	1.4	1	0	0.30000000000000004	0.7	2	2	0.6000000000000001	1.4	invalid	0.5332138859994302	53248	0	1	2	53248	1	53248	1	53248	1	0.7	53248	red	blue	0	0	ml	2.7.3	bip	sub-16_ses-02_task-ml_proj-bip_2021-02-17-10-14-29.998190
79	16	2	2	80	volatile	4	40	20	vs	red	blue	blue	red	right	left	0.30000000000000004	0.7	6	4	1.8000000000000005	2.8	0	1	0.7	0.30000000000000004	4	6	2.8	1.8000000000000005	valid	0.4165674679989024	51200	0	0	2	51200	1	51200	1	53248	0	0.7	51200	red	blue	0	4	ml	2.7.3	bip	sub-16_ses-02_task-ml_proj-bip_2021-02-17-10-14-29.998190
80	16	2	2	81	volatile	4	40	21	vs	blue	red	blue	red	left	right	0.30000000000000004	0.7	10	2	3.0000000000000004	1.4	0	1	0.30000000000000004	0.7	10	2	3.0000000000000004	1.4	valid	0.6998271060001571	53248	0	1	2	51200	0	53248	1	51200	0	0.7	53248	red	blue	0	2	ml	2.7.3	bip	sub-16_ses-02_task-ml_proj-bip_2021-02-17-10-14-29.998190
81	16	2	2	82	volatile	4	40	22	vs	blue	red	blue	red	left	right	0.30000000000000004	0.7	2	6	0.6000000000000001	4.199999999999998	1	0	0.30000000000000004	0.7	2	6	0.6000000000000001	4.199999999999998	invalid	0.4499111400000402	53248	0	1	2	53248	1	53248	1	53248	1	0.7	53248	red	blue	1	0	ml	2.7.3	bip	sub-16_ses-02_task-ml_proj-bip_2021-02-17-10-14-29.998190
82	16	2	2	83	volatile	4	40	23	vs	red	blue	blue	red	right	left	0.30000000000000004	0.7	2	10	0.6000000000000001	7.0	1	0	0.7	0.30000000000000004	10	2	7.0	0.6000000000000001	invalid	0.5165366800010815	51200	0	0	2	51200	1	51200	1	51200	1	0.7	51200	red	blue	1	0	ml	2.7.3	bip	sub-16_ses-02_task-ml_proj-bip_2021-02-17-10-14-29.998190
83	16	2	2	84	volatile	4	40	24	vs	red	blue	blue	red	right	left	0.30000000000000004	0.7	4	6	1.2000000000000002	4.199999999999998	0	1	0.7	0.30000000000000004	6	4	4.199999999999998	1.2000000000000002	valid	0.4165648020007211	51200	0	0	2	51200	1	51200	1	51200	1	0.7	51200	red	blue	1	6	ml	2.7.3	bip	sub-16_ses-02_task-ml_proj-bip_2021-02-17-10-14-29.998190
84	16	2	2	85	volatile	4	40	25	vs	blue	red	blue	red	left	right	0.30000000000000004	0.7	2	10	0.6000000000000001	7.0	1	0	0.30000000000000004	0.7	2	10	0.6000000000000001	7.0	invalid	0.5665355290002481	53248	0	1	2	53248	1	53248	1	53248	1	0.7	53248	red	blue	1	0	ml	2.7.3	bip	sub-16_ses-02_task-ml_proj-bip_2021-02-17-10-14-29.998190
85	16	2	2	86	volatile	4	40	26	vs	blue	red	blue	red	left	right	0.30000000000000004	0.7	2	4	0.6000000000000001	2.8	0	1	0.30000000000000004	0.7	2	4	0.6000000000000001	2.8	valid	0.4499036050001449	53248	0	1	2	53248	1	53248	1	53248	1	0.7	53248	red	blue	1	4	ml	2.7.3	bip	sub-16_ses-02_task-ml_proj-bip_2021-02-17-10-14-29.998190
86	16	2	2	87	volatile	4	40	27	vs	blue	red	blue	red	left	right	0.30000000000000004	0.7	4	2	1.2000000000000002	1.4	0	1	0.30000000000000004	0.7	4	2	1.2000000000000002	1.4	valid	0.6165186180005549	53248	0	1	2	53248	1	53248	1	51200	0	0.7	53248	red	blue	0	2	ml	2.7.3	bip	sub-16_ses-02_task-ml_proj-bip_2021-02-17-10-14-29.998190
87	16	2	2	88	volatile	4	40	28	vs	red	blue	blue	red	right	left	0.30000000000000004	0.7	2	6	0.6000000000000001	4.199999999999998	0	1	0.7	0.30000000000000004	6	2	4.199999999999998	0.6000000000000001	valid	0.5332014180003171	51200	0	0	2	51200	1	51200	1	51200	1	0.7	51200	red	blue	1	6	ml	2.7.3	bip	sub-16_ses-02_task-ml_proj-bip_2021-02-17-10-14-29.998190
88	16	2	2	89	volatile	4	40	29	vs	blue	red	blue	red	left	right	0.30000000000000004	0.7	6	2	1.8000000000000005	1.4	1	0	0.30000000000000004	0.7	6	2	1.8000000000000005	1.4	invalid	0.4832257630005188	53248	0	1	2	51200	0	53248	1	51200	0	0.7	53248	red	blue	0	0	ml	2.7.3	bip	sub-16_ses-02_task-ml_proj-bip_2021-02-17-10-14-29.998190
89	16	2	2	90	volatile	4	40	30	vs	red	blue	blue	red	right	left	0.30000000000000004	0.7	2	4	0.6000000000000001	2.8	0	1	0.7	0.30000000000000004	4	2	2.8	0.6000000000000001	valid	0.4665522960003727	51200	0	0	2	51200	1	51200	1	51200	1	0.7	51200	red	blue	1	4	ml	2.7.3	bip	sub-16_ses-02_task-ml_proj-bip_2021-02-17-10-14-29.998190
90	16	2	2	91	volatile	4	40	31	vs	blue	red	blue	red	left	right	0.30000000000000004	0.7	10	2	3.0000000000000004	1.4	0	1	0.30000000000000004	0.7	10	2	3.0000000000000004	1.4	valid	0.766466410999783	53248	0	1	2	51200	0	53248	1	51200	0	0.7	53248	red	blue	0	2	ml	2.7.3	bip	sub-16_ses-02_task-ml_proj-bip_2021-02-17-10-14-29.998190
91	16	2	2	92	volatile	4	40	32	vs	red	blue	blue	red	right	left	0.30000000000000004	0.7	4	6	1.2000000000000002	4.199999999999998	0	1	0.7	0.30000000000000004	6	4	4.199999999999998	1.2000000000000002	valid	0.4665524329993786	51200	0	0	2	51200	1	51200	1	51200	1	0.7	51200	red	blue	1	6	ml	2.7.3	bip	sub-16_ses-02_task-ml_proj-bip_2021-02-17-10-14-29.998190
92	16	2	2	93	volatile	4	40	33	vs	red	blue	blue	red	right	left	0.30000000000000004	0.7	6	6	1.8000000000000005	4.199999999999998	0	1	0.7	0.30000000000000004	6	6	4.199999999999998	1.8000000000000005	valid	0.5831752499998402	51200	0	0	2	51200	1	51200	1	53248	0	0.7	51200	red	blue	1	6	ml	2.7.3	bip	sub-16_ses-02_task-ml_proj-bip_2021-02-17-10-14-29.998190
93	16	2	2	94	volatile	4	40	34	vs	blue	red	blue	red	left	right	0.30000000000000004	0.7	2	10	0.6000000000000001	7.0	0	1	0.30000000000000004	0.7	2	10	0.6000000000000001	7.0	valid	1.1663518259992998	53248	0	1	2	53248	1	53248	1	53248	1	0.7	53248	red	blue	1	10	ml	2.7.3	bip	sub-16_ses-02_task-ml_proj-bip_2021-02-17-10-14-29.998190
94	16	2	2	95	volatile	4	40	35	vs	blue	red	blue	red	left	right	0.30000000000000004	0.7	2	6	0.6000000000000001	4.199999999999998	0	1	0.30000000000000004	0.7	2	6	0.6000000000000001	4.199999999999998	valid	0.4332328389991744	53248	0	1	2	53248	1	53248	1	53248	1	0.7	53248	red	blue	1	6	ml	2.7.3	bip	sub-16_ses-02_task-ml_proj-bip_2021-02-17-10-14-29.998190
95	16	2	2	96	volatile	4	40	36	vs	blue	red	blue	red	left	right	0.30000000000000004	0.7	4	6	1.2000000000000002	4.199999999999998	0	1	0.30000000000000004	0.7	4	6	1.2000000000000002	4.199999999999998	valid	0.41657851099989773	53248	0	1	2	53248	1	53248	1	53248	1	0.7	53248	red	blue	1	6	ml	2.7.3	bip	sub-16_ses-02_task-ml_proj-bip_2021-02-17-10-14-29.998190
96	16	2	2	97	volatile	4	40	37	vs	red	blue	blue	red	right	left	0.30000000000000004	0.7	6	2	1.8000000000000005	1.4	1	0	0.7	0.30000000000000004	2	6	1.4	1.8000000000000005	invalid	0.8331091330001072	51200	0	0	2	53248	0	51200	1	53248	0	0.7	51200	red	blue	0	0	ml	2.7.3	bip	sub-16_ses-02_task-ml_proj-bip_2021-02-17-10-14-29.998190
97	16	2	2	98	volatile	4	40	38	vs	blue	red	blue	red	left	right	0.30000000000000004	0.7	4	2	1.2000000000000002	1.4	0	1	0.30000000000000004	0.7	4	2	1.2000000000000002	1.4	valid	0.5498709159983264	53248	0	1	2	53248	1	53248	1	51200	0	0.7	53248	red	blue	0	2	ml	2.7.3	bip	sub-16_ses-02_task-ml_proj-bip_2021-02-17-10-14-29.998190
98	16	2	2	99	volatile	4	40	39	vs	red	blue	blue	red	right	left	0.30000000000000004	0.7	4	2	1.2000000000000002	1.4	0	1	0.7	0.30000000000000004	2	4	1.4	1.2000000000000002	valid	0.4498912899998686	51200	0	0	2	51200	1	51200	1	53248	0	0.7	51200	red	blue	0	2	ml	2.7.3	bip	sub-16_ses-02_task-ml_proj-bip_2021-02-17-10-14-29.998190
99	16	2	2	100	volatile	4	40	40	vs	blue	red	blue	red	left	right	0.30000000000000004	0.7	6	2	1.8000000000000005	1.4	1	0	0.30000000000000004	0.7	6	2	1.8000000000000005	1.4	invalid	0.48322542599999	53248	0	1	2	51200	0	53248	1	51200	0	0.7	53248	red	blue	0	0	ml	2.7.3	bip	sub-16_ses-02_task-ml_proj-bip_2021-02-17-10-14-29.998190
100	16	2	3	101	volatile	5	40	1	vs	blue	red	blue	red	left	right	0.7	0.30000000000000004	2	10	1.4	3.0000000000000004	0	1	0.7	0.30000000000000004	2	10	1.4	3.0000000000000004	invalid	0.8164591089989699	53248	0	1	2	53248	1	51200	0	53248	1	0.7	51200	blue	red	0	10	ml	2.7.3	bip	sub-16_ses-02_task-ml_proj-bip_2021-02-17-10-14-29.998190
101	16	2	3	102	volatile	5	40	2	vs	red	blue	blue	red	right	left	0.7	0.30000000000000004	2	2	1.4	0.6000000000000001	1	0	0.30000000000000004	0.7	2	2	0.6000000000000001	1.4	valid	0.43323045000033744	51200	0	0	2	53248	0	53248	0	53248	0	0.7	53248	blue	red	0	0	ml	2.7.3	bip	sub-16_ses-02_task-ml_proj-bip_2021-02-17-10-14-29.998190
102	16	2	3	103	volatile	5	40	3	vs	blue	red	blue	red	left	right	0.7	0.30000000000000004	2	2	1.4	0.6000000000000001	1	0	0.7	0.30000000000000004	2	2	1.4	0.6000000000000001	valid	0.5332102079992183	53248	0	1	2	51200	0	51200	0	53248	1	0.7	51200	blue	red	1	0	ml	2.7.3	bip	sub-16_ses-02_task-ml_proj-bip_2021-02-17-10-14-29.998190
103	16	2	3	104	volatile	5	40	4	vs	red	blue	blue	red	right	left	0.7	0.30000000000000004	6	4	4.199999999999998	1.2000000000000002	1	0	0.30000000000000004	0.7	4	6	1.2000000000000002	4.199999999999998	valid	0.4332379389998096	51200	0	0	2	53248	0	53248	0	53248	0	0.7	53248	blue	red	1	0	ml	2.7.3	bip	sub-16_ses-02_task-ml_proj-bip_2021-02-17-10-14-29.998190
104	16	2	3	105	volatile	5	40	5	vs	red	blue	blue	red	right	left	0.7	0.30000000000000004	2	6	1.4	1.8000000000000005	0	1	0.30000000000000004	0.7	6	2	1.8000000000000005	1.4	invalid	0.4332485720005934	51200	0	0	2	51200	1	53248	0	51200	1	0.7	53248	blue	red	0	6	ml	2.7.3	bip	sub-16_ses-02_task-ml_proj-bip_2021-02-17-10-14-29.998190
105	16	2	3	106	volatile	5	40	6	vs	blue	red	blue	red	left	right	0.7	0.30000000000000004	2	6	1.4	1.8000000000000005	1	0	0.7	0.30000000000000004	2	6	1.4	1.8000000000000005	valid	0.4165781499996229	53248	0	1	2	53248	1	51200	0	53248	1	0.7	51200	blue	red	0	0	ml	2.7.3	bip	sub-16_ses-02_task-ml_proj-bip_2021-02-17-10-14-29.998190
106	16	2	3	107	volatile	5	40	7	vs	red	blue	blue	red	right	left	0.7	0.30000000000000004	6	2	4.199999999999998	0.6000000000000001	0	1	0.30000000000000004	0.7	2	6	0.6000000000000001	4.199999999999998	invalid	0.8997661789999256	53248	0	1	1	53248	1	53248	1	53248	1	0.7	53248	blue	red	1	0	ml	2.7.3	bip	sub-16_ses-02_task-ml_proj-bip_2021-02-17-10-14-29.998190
107	16	2	3	108	volatile	5	40	8	vs	blue	red	blue	red	left	right	0.7	0.30000000000000004	6	4	4.199999999999998	1.2000000000000002	0	1	0.7	0.30000000000000004	6	4	4.199999999999998	1.2000000000000002	invalid	0.3999047710003651	51200	0	0	1	51200	1	51200	1	51200	1	0.7	51200	blue	red	1	0	ml	2.7.3	bip	sub-16_ses-02_task-ml_proj-bip_2021-02-17-10-14-29.998190
108	16	2	3	109	volatile	5	40	9	vs	blue	red	blue	red	left	right	0.7	0.30000000000000004	2	4	1.4	1.2000000000000002	0	1	0.7	0.30000000000000004	2	4	1.4	1.2000000000000002	invalid	0.7831340009997803	53248	0	1	2	51200	0	51200	0	53248	1	0.7	51200	blue	red	0	4	ml	2.7.3	bip	sub-16_ses-02_task-ml_proj-bip_2021-02-17-10-14-29.998190
109	16	2	3	110	volatile	5	40	10	vs	red	blue	blue	red	right	left	0.7	0.30000000000000004	2	10	1.4	3.0000000000000004	1	0	0.30000000000000004	0.7	10	2	3.0000000000000004	1.4	valid	0.3832457049993536	51200	0	0	2	51200	1	53248	0	51200	1	0.7	53248	blue	red	0	0	ml	2.7.3	bip	sub-16_ses-02_task-ml_proj-bip_2021-02-17-10-14-29.998190
110	16	2	3	111	volatile	5	40	11	vs	blue	red	blue	red	left	right	0.7	0.30000000000000004	4	6	2.8	1.8000000000000005	1	0	0.7	0.30000000000000004	4	6	2.8	1.8000000000000005	valid	0.5498694739999337	53248	0	1	2	51200	0	51200	0	53248	1	0.7	51200	blue	red	0	0	ml	2.7.3	bip	sub-16_ses-02_task-ml_proj-bip_2021-02-17-10-14-29.998190
111	16	2	3	112	volatile	5	40	12	vs	red	blue	blue	red	right	left	0.7	0.30000000000000004	2	10	1.4	3.0000000000000004	0	1	0.30000000000000004	0.7	10	2	3.0000000000000004	1.4	invalid	0.3999067879994982	51200	0	0	2	51200	1	53248	0	51200	1	0.7	53248	blue	red	0	10	ml	2.7.3	bip	sub-16_ses-02_task-ml_proj-bip_2021-02-17-10-14-29.998190
112	16	2	3	113	volatile	5	40	13	vs	blue	red	blue	red	left	right	0.7	0.30000000000000004	4	2	2.8	0.6000000000000001	1	0	0.7	0.30000000000000004	4	2	2.8	0.6000000000000001	valid	0.4499095490009495	53248	0	1	2	51200	0	51200	0	51200	0	0.7	51200	blue	red	1	0	ml	2.7.3	bip	sub-16_ses-02_task-ml_proj-bip_2021-02-17-10-14-29.998190
113	16	2	3	114	volatile	5	40	14	vs	blue	red	blue	red	left	right	0.7	0.30000000000000004	6	6	4.199999999999998	1.8000000000000005	0	1	0.7	0.30000000000000004	6	6	4.199999999999998	1.8000000000000005	invalid	0.43324214099993696	53248	0	1	2	51200	0	51200	0	53248	1	0.7	51200	blue	red	1	6	ml	2.7.3	bip	sub-16_ses-02_task-ml_proj-bip_2021-02-17-10-14-29.998190
114	16	2	3	115	volatile	5	40	15	vs	red	blue	blue	red	right	left	0.7	0.30000000000000004	4	6	2.8	1.8000000000000005	1	0	0.30000000000000004	0.7	6	4	1.8000000000000005	2.8	valid	0.4498953510010324	51200	0	0	2	53248	0	53248	0	51200	1	0.7	53248	blue	red	0	0	ml	2.7.3	bip	sub-16_ses-02_task-ml_proj-bip_2021-02-17-10-14-29.998190
115	16	2	3	116	volatile	5	40	16	vs	blue	red	blue	red	left	right	0.7	0.30000000000000004	2	4	1.4	1.2000000000000002	1	0	0.7	0.30000000000000004	2	4	1.4	1.2000000000000002	valid	0.4332410160004656	53248	0	1	2	51200	0	51200	0	53248	1	0.7	51200	blue	red	0	0	ml	2.7.3	bip	sub-16_ses-02_task-ml_proj-bip_2021-02-17-10-14-29.998190
116	16	2	3	117	volatile	5	40	17	vs	red	blue	blue	red	right	left	0.7	0.30000000000000004	2	2	1.4	0.6000000000000001	0	1	0.30000000000000004	0.7	2	2	0.6000000000000001	1.4	invalid	0.5831814470002428	51200	0	0	2	53248	0	53248	0	53248	0	0.7	53248	blue	red	0	2	ml	2.7.3	bip	sub-16_ses-02_task-ml_proj-bip_2021-02-17-10-14-29.998190
117	16	2	3	118	volatile	5	40	18	vs	red	blue	blue	red	right	left	0.7	0.30000000000000004	2	4	1.4	1.2000000000000002	1	0	0.30000000000000004	0.7	4	2	1.2000000000000002	1.4	valid	0.3999183350006206	51200	0	0	2	53248	0	53248	0	51200	1	0.7	53248	blue	red	0	0	ml	2.7.3	bip	sub-16_ses-02_task-ml_proj-bip_2021-02-17-10-14-29.998190
118	16	2	3	119	volatile	5	40	19	vs	red	blue	blue	red	right	left	0.7	0.30000000000000004	6	4	4.199999999999998	1.2000000000000002	1	0	0.30000000000000004	0.7	4	6	1.2000000000000002	4.199999999999998	valid	0.5165355169992836	51200	0	0	2	53248	0	53248	0	53248	0	0.7	53248	blue	red	1	0	ml	2.7.3	bip	sub-16_ses-02_task-ml_proj-bip_2021-02-17-10-14-29.998190
119	16	2	3	120	volatile	5	40	20	vs	blue	red	blue	red	left	right	0.7	0.30000000000000004	4	2	2.8	0.6000000000000001	0	1	0.7	0.30000000000000004	4	2	2.8	0.6000000000000001	invalid	0.6165173399986088	53248	0	1	2	51200	0	51200	0	51200	0	0.7	51200	blue	red	1	2	ml	2.7.3	bip	sub-16_ses-02_task-ml_proj-bip_2021-02-17-10-14-29.998190
120	16	2	3	121	volatile	5	40	21	vs	blue	red	blue	red	left	right	0.7	0.30000000000000004	6	4	4.199999999999998	1.2000000000000002	1	0	0.7	0.30000000000000004	6	4	4.199999999999998	1.2000000000000002	valid	0.4665629840001202	53248	0	1	2	51200	0	51200	0	51200	0	0.7	51200	blue	red	1	0	ml	2.7.3	bip	sub-16_ses-02_task-ml_proj-bip_2021-02-17-10-14-29.998190
121	16	2	3	122	volatile	5	40	22	vs	red	blue	blue	red	right	left	0.7	0.30000000000000004	2	2	1.4	0.6000000000000001	1	0	0.30000000000000004	0.7	2	2	0.6000000000000001	1.4	valid	0.6165085039992846	51200	0	0	2	53248	0	53248	0	53248	0	0.7	53248	blue	red	0	0	ml	2.7.3	bip	sub-16_ses-02_task-ml_proj-bip_2021-02-17-10-14-29.998190
122	16	2	3	123	volatile	5	40	23	vs	blue	red	blue	red	left	right	0.7	0.30000000000000004	2	6	1.4	1.8000000000000005	1	0	0.7	0.30000000000000004	2	6	1.4	1.8000000000000005	valid	0.54986946399913	53248	0	1	2	53248	1	51200	0	53248	1	0.7	51200	blue	red	0	0	ml	2.7.3	bip	sub-16_ses-02_task-ml_proj-bip_2021-02-17-10-14-29.998190
123	16	2	3	124	volatile	5	40	24	vs	blue	red	blue	red	left	right	0.7	0.30000000000000004	10	2	7.0	0.6000000000000001	1	0	0.7	0.30000000000000004	10	2	7.0	0.6000000000000001	valid	0.4332287390006968	51200	0	0	1	51200	1	51200	1	51200	1	0.7	51200	blue	red	1	10	ml	2.7.3	bip	sub-16_ses-02_task-ml_proj-bip_2021-02-17-10-14-29.998190
124	16	2	3	125	volatile	5	40	25	vs	red	blue	blue	red	right	left	0.7	0.30000000000000004	2	6	1.4	1.8000000000000005	1	0	0.30000000000000004	0.7	6	2	1.8000000000000005	1.4	valid	0.4165774940011033	53248	0	1	1	51200	0	53248	1	51200	0	0.7	53248	blue	red	0	2	ml	2.7.3	bip	sub-16_ses-02_task-ml_proj-bip_2021-02-17-10-14-29.998190
125	16	2	3	126	volatile	5	40	26	vs	blue	red	blue	red	left	right	0.7	0.30000000000000004	6	6	4.199999999999998	1.8000000000000005	1	0	0.7	0.30000000000000004	6	6	4.199999999999998	1.8000000000000005	valid	0.4498896840013913	51200	0	0	1	51200	1	51200	1	53248	0	0.7	51200	blue	red	1	6	ml	2.7.3	bip	sub-16_ses-02_task-ml_proj-bip_2021-02-17-10-14-29.998190
126	16	2	3	127	volatile	5	40	27	vs	red	blue	blue	red	right	left	0.7	0.30000000000000004	2	6	1.4	1.8000000000000005	1	0	0.30000000000000004	0.7	6	2	1.8000000000000005	1.4	valid	0.5832007760000124	53248	0	1	1	51200	0	53248	1	51200	0	0.7	53248	blue	red	0	2	ml	2.7.3	bip	sub-16_ses-02_task-ml_proj-bip_2021-02-17-10-14-29.998190
127	16	2	3	128	volatile	5	40	28	vs	blue	red	blue	red	left	right	0.7	0.30000000000000004	4	2	2.8	0.6000000000000001	0	1	0.7	0.30000000000000004	4	2	2.8	0.6000000000000001	invalid	0.4332371130003594	51200	0	0	1	51200	1	51200	1	51200	1	0.7	51200	blue	red	1	0	ml	2.7.3	bip	sub-16_ses-02_task-ml_proj-bip_2021-02-17-10-14-29.998190
128	16	2	3	129	volatile	5	40	29	vs	red	blue	blue	red	right	left	0.7	0.30000000000000004	10	2	7.0	0.6000000000000001	1	0	0.30000000000000004	0.7	2	10	0.6000000000000001	7.0	valid	0.41657673199915735	53248	0	1	1	53248	1	53248	1	53248	1	0.7	53248	blue	red	1	10	ml	2.7.3	bip	sub-16_ses-02_task-ml_proj-bip_2021-02-17-10-14-29.998190
129	16	2	3	130	volatile	5	40	30	vs	red	blue	blue	red	right	left	0.7	0.30000000000000004	4	2	2.8	0.6000000000000001	1	0	0.30000000000000004	0.7	2	4	0.6000000000000001	2.8	valid	0.449902367001414	53248	0	1	1	53248	1	53248	1	53248	1	0.7	53248	blue	red	1	4	ml	2.7.3	bip	sub-16_ses-02_task-ml_proj-bip_2021-02-17-10-14-29.998190
130	16	2	3	131	volatile	5	40	31	vs	blue	red	blue	red	left	right	0.7	0.30000000000000004	6	2	4.199999999999998	0.6000000000000001	1	0	0.7	0.30000000000000004	6	2	4.199999999999998	0.6000000000000001	valid	0.4665535669992096	51200	0	0	1	51200	1	51200	1	51200	1	0.7	51200	blue	red	1	6	ml	2.7.3	bip	sub-16_ses-02_task-ml_proj-bip_2021-02-17-10-14-29.998190
131	16	2	3	132	volatile	5	40	32	vs	red	blue	blue	red	right	left	0.7	0.30000000000000004	6	6	4.199999999999998	1.8000000000000005	1	0	0.30000000000000004	0.7	6	6	1.8000000000000005	4.199999999999998	valid	0.4998862419997749	53248	0	1	1	53248	1	53248	1	53248	1	0.7	53248	blue	red	0	6	ml	2.7.3	bip	sub-16_ses-02_task-ml_proj-bip_2021-02-17-10-14-29.998190
132	16	2	3	133	volatile	5	40	33	vs	red	blue	blue	red	right	left	0.7	0.30000000000000004	10	2	7.0	0.6000000000000001	1	0	0.30000000000000004	0.7	2	10	0.6000000000000001	7.0	valid	0.41657986900099786	53248	0	1	1	53248	1	53248	1	53248	1	0.7	53248	blue	red	1	10	ml	2.7.3	bip	sub-16_ses-02_task-ml_proj-bip_2021-02-17-10-14-29.998190
133	16	2	3	134	volatile	5	40	34	vs	blue	red	blue	red	left	right	0.7	0.30000000000000004	4	6	2.8	1.8000000000000005	1	0	0.7	0.30000000000000004	4	6	2.8	1.8000000000000005	valid	0.6165076889992633	51200	0	0	1	51200	1	51200	1	53248	0	0.7	51200	blue	red	0	4	ml	2.7.3	bip	sub-16_ses-02_task-ml_proj-bip_2021-02-17-10-14-29.998190
134	16	2	3	135	volatile	5	40	35	vs	red	blue	blue	red	right	left	0.7	0.30000000000000004	10	2	7.0	0.6000000000000001	1	0	0.30000000000000004	0.7	2	10	0.6000000000000001	7.0	valid	0.4832304330011538	53248	0	1	1	53248	1	53248	1	53248	1	0.7	53248	blue	red	1	10	ml	2.7.3	bip	sub-16_ses-02_task-ml_proj-bip_2021-02-17-10-14-29.998190
135	16	2	3	136	volatile	5	40	36	vs	red	blue	blue	red	right	left	0.7	0.30000000000000004	4	2	2.8	0.6000000000000001	0	1	0.30000000000000004	0.7	2	4	0.6000000000000001	2.8	invalid	0.5498716199999762	53248	0	1	1	53248	1	53248	1	53248	1	0.7	53248	blue	red	1	0	ml	2.7.3	bip	sub-16_ses-02_task-ml_proj-bip_2021-02-17-10-14-29.998190
136	16	2	3	137	volatile	5	40	37	vs	blue	red	blue	red	left	right	0.7	0.30000000000000004	2	6	1.4	1.8000000000000005	1	0	0.7	0.30000000000000004	2	6	1.4	1.8000000000000005	valid	0.4665515249998862	51200	0	0	1	53248	0	51200	1	53248	0	0.7	51200	blue	red	0	2	ml	2.7.3	bip	sub-16_ses-02_task-ml_proj-bip_2021-02-17-10-14-29.998190
137	16	2	3	138	volatile	5	40	38	vs	blue	red	blue	red	left	right	0.7	0.30000000000000004	10	2	7.0	0.6000000000000001	1	0	0.7	0.30000000000000004	10	2	7.0	0.6000000000000001	valid	0.4998776729989913	51200	0	0	1	51200	1	51200	1	51200	1	0.7	51200	blue	red	1	10	ml	2.7.3	bip	sub-16_ses-02_task-ml_proj-bip_2021-02-17-10-14-29.998190
138	16	2	3	139	volatile	5	40	39	vs	red	blue	blue	red	right	left	0.7	0.30000000000000004	6	6	4.199999999999998	1.8000000000000005	0	1	0.30000000000000004	0.7	6	6	1.8000000000000005	4.199999999999998	invalid	0.38325373499901616	53248	0	1	1	53248	1	53248	1	53248	1	0.7	53248	blue	red	0	0	ml	2.7.3	bip	sub-16_ses-02_task-ml_proj-bip_2021-02-17-10-14-29.998190
139	16	2	3	140	volatile	5	40	40	vs	blue	red	blue	red	left	right	0.7	0.30000000000000004	6	4	4.199999999999998	1.2000000000000002	1	0	0.7	0.30000000000000004	6	4	4.199999999999998	1.2000000000000002	valid	0.4332344729991746	51200	0	0	1	51200	1	51200	1	51200	1	0.7	51200	blue	red	1	6	ml	2.7.3	bip	sub-16_ses-02_task-ml_proj-bip_2021-02-17-10-14-29.998190
140	16	2	3	141	volatile	6	20	1	vs	blue	red	blue	red	left	right	0.30000000000000004	0.7	4	6	1.2000000000000002	4.199999999999998	0	1	0.30000000000000004	0.7	4	6	1.2000000000000002	4.199999999999998	valid	0.533199206000063	51200	0	0	1	53248	0	53248	0	53248	0	0.7	53248	red	blue	1	0	ml	2.7.3	bip	sub-16_ses-02_task-ml_proj-bip_2021-02-17-10-14-29.998190
141	16	2	3	142	volatile	6	20	2	vs	blue	red	blue	red	left	right	0.30000000000000004	0.7	6	4	1.8000000000000005	2.8	0	1	0.30000000000000004	0.7	6	4	1.8000000000000005	2.8	valid	0.4332288629993855	51200	0	0	1	53248	0	53248	0	51200	1	0.7	53248	red	blue	0	0	ml	2.7.3	bip	sub-16_ses-02_task-ml_proj-bip_2021-02-17-10-14-29.998190
142	16	2	3	143	volatile	6	20	3	vs	blue	red	blue	red	left	right	0.30000000000000004	0.7	4	2	1.2000000000000002	1.4	1	0	0.30000000000000004	0.7	4	2	1.2000000000000002	1.4	invalid	0.39990581300116906	51200	0	0	1	53248	0	53248	0	51200	1	0.7	53248	red	blue	0	4	ml	2.7.3	bip	sub-16_ses-02_task-ml_proj-bip_2021-02-17-10-14-29.998190
143	16	2	3	144	volatile	6	20	4	vs	red	blue	blue	red	right	left	0.30000000000000004	0.7	2	6	0.6000000000000001	4.199999999999998	0	1	0.7	0.30000000000000004	6	2	4.199999999999998	0.6000000000000001	valid	0.43324583100002206	53248	0	1	1	51200	0	51200	0	51200	0	0.7	51200	red	blue	1	0	ml	2.7.3	bip	sub-16_ses-02_task-ml_proj-bip_2021-02-17-10-14-29.998190
144	16	2	3	145	volatile	6	20	5	vs	red	blue	blue	red	right	left	0.30000000000000004	0.7	6	6	1.8000000000000005	4.199999999999998	0	1	0.7	0.30000000000000004	6	6	4.199999999999998	1.8000000000000005	valid	0.5499086540003191	53248	0	1	1	51200	0	51200	0	53248	1	0.7	51200	red	blue	1	0	ml	2.7.3	bip	sub-16_ses-02_task-ml_proj-bip_2021-02-17-10-14-29.998190
145	16	2	3	146	volatile	6	20	6	vs	red	blue	blue	red	right	left	0.30000000000000004	0.7	4	6	1.2000000000000002	4.199999999999998	1	0	0.7	0.30000000000000004	6	4	4.199999999999998	1.2000000000000002	invalid	0.4165818950004905	53248	0	1	1	51200	0	51200	0	51200	0	0.7	51200	red	blue	1	4	ml	2.7.3	bip	sub-16_ses-02_task-ml_proj-bip_2021-02-17-10-14-29.998190
146	16	2	3	147	volatile	6	20	7	vs	red	blue	blue	red	right	left	0.30000000000000004	0.7	2	6	0.6000000000000001	4.199999999999998	1	0	0.7	0.30000000000000004	6	2	4.199999999999998	0.6000000000000001	invalid	0.6831648990009853	53248	0	1	1	51200	0	51200	0	51200	0	0.7	51200	red	blue	1	2	ml	2.7.3	bip	sub-16_ses-02_task-ml_proj-bip_2021-02-17-10-14-29.998190
147	16	2	3	148	volatile	6	20	8	vs	blue	red	blue	red	left	right	0.30000000000000004	0.7	2	6	0.6000000000000001	4.199999999999998	0	1	0.30000000000000004	0.7	2	6	0.6000000000000001	4.199999999999998	valid	0.5498535850001645	51200	0	0	1	53248	0	53248	0	53248	0	0.7	53248	red	blue	1	0	ml	2.7.3	bip	sub-16_ses-02_task-ml_proj-bip_2021-02-17-10-14-29.998190
148	16	2	3	149	volatile	6	20	9	vs	red	blue	blue	red	right	left	0.30000000000000004	0.7	4	2	1.2000000000000002	1.4	0	1	0.7	0.30000000000000004	2	4	1.4	1.2000000000000002	valid	0.4165788369991788	53248	0	1	1	51200	0	51200	0	53248	1	0.7	51200	red	blue	0	0	ml	2.7.3	bip	sub-16_ses-02_task-ml_proj-bip_2021-02-17-10-14-29.998190
149	16	2	3	150	volatile	6	20	10	vs	blue	red	blue	red	left	right	0.30000000000000004	0.7	4	6	1.2000000000000002	4.199999999999998	0	1	0.30000000000000004	0.7	4	6	1.2000000000000002	4.199999999999998	valid	0.4165678219997062	51200	0	0	1	53248	0	53248	0	53248	0	0.7	53248	red	blue	1	0	ml	2.7.3	bip	sub-16_ses-02_task-ml_proj-bip_2021-02-17-10-14-29.998190
150	16	2	4	151	volatile	6	20	11	vs	red	blue	blue	red	right	left	0.30000000000000004	0.7	2	4	0.6000000000000001	2.8	0	1	0.7	0.30000000000000004	4	2	2.8	0.6000000000000001	valid	0.5332014899995556	51200	0	0	2	51200	1	51200	1	51200	1	0.7	51200	red	blue	1	4	ml	2.7.3	bip	sub-16_ses-02_task-ml_proj-bip_2021-02-17-10-14-29.998190
151	16	2	4	152	volatile	6	20	12	vs	blue	red	blue	red	left	right	0.30000000000000004	0.7	2	6	0.6000000000000001	4.199999999999998	0	1	0.30000000000000004	0.7	2	6	0.6000000000000001	4.199999999999998	valid	0.3665944149997813	53248	0	1	2	53248	1	53248	1	53248	1	0.7	53248	red	blue	1	6	ml	2.7.3	bip	sub-16_ses-02_task-ml_proj-bip_2021-02-17-10-14-29.998190
152	16	2	4	153	volatile	6	20	13	vs	blue	red	blue	red	left	right	0.30000000000000004	0.7	10	2	3.0000000000000004	1.4	1	0	0.30000000000000004	0.7	10	2	3.0000000000000004	1.4	invalid	1.049713366001015	51200	0	0	1	51200	1	53248	0	51200	1	0.7	53248	red	blue	0	10	ml	2.7.3	bip	sub-16_ses-02_task-ml_proj-bip_2021-02-17-10-14-29.998190
153	16	2	4	154	volatile	6	20	14	vs	blue	red	blue	red	left	right	0.30000000000000004	0.7	2	4	0.6000000000000001	2.8	0	1	0.30000000000000004	0.7	2	4	0.6000000000000001	2.8	valid	0.5165485699999408	53248	0	1	2	53248	1	53248	1	53248	1	0.7	53248	red	blue	1	4	ml	2.7.3	bip	sub-16_ses-02_task-ml_proj-bip_2021-02-17-10-14-29.998190
154	16	2	4	155	volatile	6	20	15	vs	red	blue	blue	red	right	left	0.30000000000000004	0.7	2	2	0.6000000000000001	1.4	1	0	0.7	0.30000000000000004	2	2	1.4	0.6000000000000001	invalid	0.5665218440008175	51200	0	0	2	51200	1	51200	1	53248	0	0.7	51200	red	blue	1	0	ml	2.7.3	bip	sub-16_ses-02_task-ml_proj-bip_2021-02-17-10-14-29.998190
155	16	2	4	156	volatile	6	20	16	vs	red	blue	blue	red	right	left	0.30000000000000004	0.7	10	2	3.0000000000000004	1.4	0	1	0.7	0.30000000000000004	2	10	1.4	3.0000000000000004	valid	0.7664715239989164	53248	0	1	1	53248	1	51200	0	53248	1	0.7	51200	red	blue	0	0	ml	2.7.3	bip	sub-16_ses-02_task-ml_proj-bip_2021-02-17-10-14-29.998190
156	16	2	4	157	volatile	6	20	17	vs	red	blue	blue	red	right	left	0.30000000000000004	0.7	10	2	3.0000000000000004	1.4	0	1	0.7	0.30000000000000004	2	10	1.4	3.0000000000000004	valid	0.3999160610001127	53248	0	1	1	53248	1	51200	0	53248	1	0.7	51200	red	blue	0	0	ml	2.7.3	bip	sub-16_ses-02_task-ml_proj-bip_2021-02-17-10-14-29.998190
157	16	2	4	158	volatile	6	20	18	vs	blue	red	blue	red	left	right	0.30000000000000004	0.7	2	2	0.6000000000000001	1.4	0	1	0.30000000000000004	0.7	2	2	0.6000000000000001	1.4	valid	0.6665006450002693	51200	0	0	1	53248	0	53248	0	53248	0	0.7	53248	red	blue	0	0	ml	2.7.3	bip	sub-16_ses-02_task-ml_proj-bip_2021-02-17-10-14-29.998190
158	16	2	4	159	volatile	6	20	19	vs	red	blue	blue	red	right	left	0.30000000000000004	0.7	2	10	0.6000000000000001	7.0	0	1	0.7	0.30000000000000004	10	2	7.0	0.6000000000000001	valid	0.3832394839992048	51200	0	0	2	51200	1	51200	1	51200	1	0.7	51200	red	blue	1	10	ml	2.7.3	bip	sub-16_ses-02_task-ml_proj-bip_2021-02-17-10-14-29.998190
159	16	2	4	160	volatile	6	20	20	vs	blue	red	blue	red	left	right	0.30000000000000004	0.7	6	6	1.8000000000000005	4.199999999999998	1	0	0.30000000000000004	0.7	6	6	1.8000000000000005	4.199999999999998	invalid	0.3999166389985476	53248	0	1	2	53248	1	53248	1	53248	1	0.7	53248	red	blue	0	0	ml	2.7.3	bip	sub-16_ses-02_task-ml_proj-bip_2021-02-17-10-14-29.998190
160	16	2	4	161	volatile	7	40	1	vs	red	blue	blue	red	right	left	0.7	0.30000000000000004	2	4	1.4	1.2000000000000002	0	1	0.30000000000000004	0.7	4	2	1.2000000000000002	1.4	invalid	0.3499220459998469	51200	0	0	2	53248	0	53248	0	51200	1	0.7	53248	blue	red	0	4	ml	2.7.3	bip	sub-16_ses-02_task-ml_proj-bip_2021-02-17-10-14-29.998190
161	16	2	4	162	volatile	7	40	2	vs	blue	red	blue	red	left	right	0.7	0.30000000000000004	4	6	2.8	1.8000000000000005	0	1	0.7	0.30000000000000004	4	6	2.8	1.8000000000000005	invalid	0.4498968910011172	53248	0	1	2	51200	0	51200	0	53248	1	0.7	51200	blue	red	0	6	ml	2.7.3	bip	sub-16_ses-02_task-ml_proj-bip_2021-02-17-10-14-29.998190
162	16	2	4	163	volatile	7	40	3	vs	blue	red	blue	red	left	right	0.7	0.30000000000000004	6	4	4.199999999999998	1.2000000000000002	1	0	0.7	0.30000000000000004	6	4	4.199999999999998	1.2000000000000002	valid	0.9664249119996384	53248	0	1	2	51200	0	51200	0	51200	0	0.7	51200	blue	red	1	0	ml	2.7.3	bip	sub-16_ses-02_task-ml_proj-bip_2021-02-17-10-14-29.998190
163	16	2	4	164	volatile	7	40	4	vs	blue	red	blue	red	left	right	0.7	0.30000000000000004	2	4	1.4	1.2000000000000002	1	0	0.7	0.30000000000000004	2	4	1.4	1.2000000000000002	valid	0.5665242140003102	53248	0	1	2	51200	0	51200	0	53248	1	0.7	51200	blue	red	0	0	ml	2.7.3	bip	sub-16_ses-02_task-ml_proj-bip_2021-02-17-10-14-29.998190
164	16	2	4	165	volatile	7	40	5	vs	blue	red	blue	red	left	right	0.7	0.30000000000000004	2	10	1.4	3.0000000000000004	1	0	0.7	0.30000000000000004	2	10	1.4	3.0000000000000004	valid	0.4998865929992462	53248	0	1	2	53248	1	51200	0	53248	1	0.7	51200	blue	red	0	0	ml	2.7.3	bip	sub-16_ses-02_task-ml_proj-bip_2021-02-17-10-14-29.998190
165	16	2	4	166	volatile	7	40	6	vs	blue	red	blue	red	left	right	0.7	0.30000000000000004	2	6	1.4	1.8000000000000005	0	1	0.7	0.30000000000000004	2	6	1.4	1.8000000000000005	invalid	0.4165783720000036	53248	0	1	2	53248	1	51200	0	53248	1	0.7	51200	blue	red	0	6	ml	2.7.3	bip	sub-16_ses-02_task-ml_proj-bip_2021-02-17-10-14-29.998190
166	16	2	4	167	volatile	7	40	7	vs	blue	red	blue	red	left	right	0.7	0.30000000000000004	4	6	2.8	1.8000000000000005	0	1	0.7	0.30000000000000004	4	6	2.8	1.8000000000000005	invalid	0.43324176500027534	53248	0	1	2	51200	0	51200	0	53248	1	0.7	51200	blue	red	0	6	ml	2.7.3	bip	sub-16_ses-02_task-ml_proj-bip_2021-02-17-10-14-29.998190
167	16	2	4	168	volatile	7	40	8	vs	red	blue	blue	red	right	left	0.7	0.30000000000000004	2	6	1.4	1.8000000000000005	1	0	0.30000000000000004	0.7	6	2	1.8000000000000005	1.4	valid	0.5165416380004899	51200	0	0	2	51200	1	53248	0	51200	1	0.7	53248	blue	red	0	0	ml	2.7.3	bip	sub-16_ses-02_task-ml_proj-bip_2021-02-17-10-14-29.998190
168	16	2	4	169	volatile	7	40	9	vs	red	blue	blue	red	right	left	0.7	0.30000000000000004	10	2	7.0	0.6000000000000001	0	1	0.30000000000000004	0.7	2	10	0.6000000000000001	7.0	invalid	0.9164182659988	51200	0	0	2	53248	0	53248	0	53248	0	0.7	53248	blue	red	1	2	ml	2.7.3	bip	sub-16_ses-02_task-ml_proj-bip_2021-02-17-10-14-29.998190
169	16	2	4	170	volatile	7	40	10	vs	red	blue	blue	red	right	left	0.7	0.30000000000000004	6	2	4.199999999999998	0.6000000000000001	1	0	0.30000000000000004	0.7	2	6	0.6000000000000001	4.199999999999998	valid	0.516536144001293	51200	0	0	2	53248	0	53248	0	53248	0	0.7	53248	blue	red	1	0	ml	2.7.3	bip	sub-16_ses-02_task-ml_proj-bip_2021-02-17-10-14-29.998190
170	16	2	4	171	volatile	7	40	11	vs	red	blue	blue	red	right	left	0.7	0.30000000000000004	6	4	4.199999999999998	1.2000000000000002	1	0	0.30000000000000004	0.7	4	6	1.2000000000000002	4.199999999999998	valid	0.5998474649986747	51200	0	0	2	53248	0	53248	0	53248	0	0.7	53248	blue	red	1	0	ml	2.7.3	bip	sub-16_ses-02_task-ml_proj-bip_2021-02-17-10-14-29.998190
171	16	2	4	172	volatile	7	40	12	vs	blue	red	blue	red	left	right	0.7	0.30000000000000004	10	2	7.0	0.6000000000000001	1	0	0.7	0.30000000000000004	10	2	7.0	0.6000000000000001	valid	0.6331688749996829	51200	0	0	1	51200	1	51200	1	51200	1	0.7	51200	blue	red	1	10	ml	2.7.3	bip	sub-16_ses-02_task-ml_proj-bip_2021-02-17-10-14-29.998190
172	16	2	4	173	volatile	7	40	13	vs	blue	red	blue	red	left	right	0.7	0.30000000000000004	2	10	1.4	3.0000000000000004	1	0	0.7	0.30000000000000004	2	10	1.4	3.0000000000000004	valid	0.5998581950007065	53248	0	1	2	53248	1	51200	0	53248	1	0.7	51200	blue	red	0	0	ml	2.7.3	bip	sub-16_ses-02_task-ml_proj-bip_2021-02-17-10-14-29.998190
173	16	2	4	174	volatile	7	40	14	vs	blue	red	blue	red	left	right	0.7	0.30000000000000004	6	6	4.199999999999998	1.8000000000000005	1	0	0.7	0.30000000000000004	6	6	4.199999999999998	1.8000000000000005	valid	0.5165489130013157	53248	0	1	2	51200	0	51200	0	53248	1	0.7	51200	blue	red	1	0	ml	2.7.3	bip	sub-16_ses-02_task-ml_proj-bip_2021-02-17-10-14-29.998190
174	16	2	4	175	volatile	7	40	15	vs	blue	red	blue	red	left	right	0.7	0.30000000000000004	6	6	4.199999999999998	1.8000000000000005	1	0	0.7	0.30000000000000004	6	6	4.199999999999998	1.8000000000000005	valid	0.4665651729992533	53248	0	1	2	51200	0	51200	0	53248	1	0.7	51200	blue	red	1	0	ml	2.7.3	bip	sub-16_ses-02_task-ml_proj-bip_2021-02-17-10-14-29.998190
175	16	2	4	176	volatile	7	40	16	vs	red	blue	blue	red	right	left	0.7	0.30000000000000004	2	4	1.4	1.2000000000000002	1	0	0.30000000000000004	0.7	4	2	1.2000000000000002	1.4	valid	0.8664315930000157	51200	0	0	2	53248	0	53248	0	51200	1	0.7	53248	blue	red	0	0	ml	2.7.3	bip	sub-16_ses-02_task-ml_proj-bip_2021-02-17-10-14-29.998190
176	16	2	4	177	volatile	7	40	17	vs	red	blue	blue	red	right	left	0.7	0.30000000000000004	2	6	1.4	1.8000000000000005	1	0	0.30000000000000004	0.7	6	2	1.8000000000000005	1.4	valid	0.3999155339988647	53248	0	1	1	51200	0	53248	1	51200	0	0.7	53248	blue	red	0	2	ml	2.7.3	bip	sub-16_ses-02_task-ml_proj-bip_2021-02-17-10-14-29.998190
177	16	2	4	178	volatile	7	40	18	vs	red	blue	blue	red	right	left	0.7	0.30000000000000004	2	10	1.4	3.0000000000000004	1	0	0.30000000000000004	0.7	10	2	3.0000000000000004	1.4	valid	0.6165165330003219	53248	0	1	1	51200	0	53248	1	51200	0	0.7	53248	blue	red	0	2	ml	2.7.3	bip	sub-16_ses-02_task-ml_proj-bip_2021-02-17-10-14-29.998190
178	16	2	4	179	volatile	7	40	19	vs	blue	red	blue	red	left	right	0.7	0.30000000000000004	2	2	1.4	0.6000000000000001	1	0	0.7	0.30000000000000004	2	2	1.4	0.6000000000000001	valid	0.5831852139999683	51200	0	0	1	51200	1	51200	1	53248	0	0.7	51200	blue	red	1	2	ml	2.7.3	bip	sub-16_ses-02_task-ml_proj-bip_2021-02-17-10-14-29.998190
179	16	2	4	180	volatile	7	40	20	vs	red	blue	blue	red	right	left	0.7	0.30000000000000004	6	4	4.199999999999998	1.2000000000000002	1	0	0.30000000000000004	0.7	4	6	1.2000000000000002	4.199999999999998	valid	0.3999250690012559	53248	0	1	1	53248	1	53248	1	53248	1	0.7	53248	blue	red	1	6	ml	2.7.3	bip	sub-16_ses-02_task-ml_proj-bip_2021-02-17-10-14-29.998190
180	16	2	4	181	volatile	7	40	21	vs	red	blue	blue	red	right	left	0.7	0.30000000000000004	2	4	1.4	1.2000000000000002	1	0	0.30000000000000004	0.7	4	2	1.2000000000000002	1.4	valid	0.4165791470004479	53248	0	1	1	53248	1	53248	1	51200	0	0.7	53248	blue	red	0	2	ml	2.7.3	bip	sub-16_ses-02_task-ml_proj-bip_2021-02-17-10-14-29.998190
181	16	2	4	182	volatile	7	40	22	vs	red	blue	blue	red	right	left	0.7	0.30000000000000004	2	6	1.4	1.8000000000000005	1	0	0.30000000000000004	0.7	6	2	1.8000000000000005	1.4	valid	0.4165767380000034	53248	0	1	1	51200	0	53248	1	51200	0	0.7	53248	blue	red	0	2	ml	2.7.3	bip	sub-16_ses-02_task-ml_proj-bip_2021-02-17-10-14-29.998190
182	16	2	4	183	volatile	7	40	23	vs	blue	red	blue	red	left	right	0.7	0.30000000000000004	10	2	7.0	0.6000000000000001	0	1	0.7	0.30000000000000004	10	2	7.0	0.6000000000000001	invalid	0.3999029510014225	51200	0	0	1	51200	1	51200	1	51200	1	0.7	51200	blue	red	1	0	ml	2.7.3	bip	sub-16_ses-02_task-ml_proj-bip_2021-02-17-10-14-29.998190
183	16	2	4	184	volatile	7	40	24	vs	blue	red	blue	red	left	right	0.7	0.30000000000000004	6	4	4.199999999999998	1.2000000000000002	0	1	0.7	0.30000000000000004	6	4	4.199999999999998	1.2000000000000002	invalid	0.3832469650005805	51200	0	0	1	51200	1	51200	1	51200	1	0.7	51200	blue	red	1	0	ml	2.7.3	bip	sub-16_ses-02_task-ml_proj-bip_2021-02-17-10-14-29.998190
184	16	2	4	185	volatile	7	40	25	vs	blue	red	blue	red	left	right	0.7	0.30000000000000004	2	4	1.4	1.2000000000000002	0	1	0.7	0.30000000000000004	2	4	1.4	1.2000000000000002	invalid	0.39990629100066144	51200	0	0	1	51200	1	51200	1	53248	0	0.7	51200	blue	red	0	0	ml	2.7.3	bip	sub-16_ses-02_task-ml_proj-bip_2021-02-17-10-14-29.998190
185	16	2	4	186	volatile	7	40	26	vs	red	blue	blue	red	right	left	0.7	0.30000000000000004	4	6	2.8	1.8000000000000005	1	0	0.30000000000000004	0.7	6	4	1.8000000000000005	2.8	valid	0.5831951170002867	53248	0	1	1	53248	1	53248	1	51200	0	0.7	53248	blue	red	0	4	ml	2.7.3	bip	sub-16_ses-02_task-ml_proj-bip_2021-02-17-10-14-29.998190
186	16	2	4	187	volatile	7	40	27	vs	red	blue	blue	red	right	left	0.7	0.30000000000000004	2	2	1.4	0.6000000000000001	0	1	0.30000000000000004	0.7	2	2	0.6000000000000001	1.4	invalid	0.4665620679988933	53248	0	1	1	53248	1	53248	1	53248	1	0.7	53248	blue	red	0	0	ml	2.7.3	bip	sub-16_ses-02_task-ml_proj-bip_2021-02-17-10-14-29.998190
187	16	2	4	188	volatile	7	40	28	vs	blue	red	blue	red	left	right	0.7	0.30000000000000004	2	2	1.4	0.6000000000000001	1	0	0.7	0.30000000000000004	2	2	1.4	0.6000000000000001	valid	0.4832222300010472	53248	0	1	2	51200	0	51200	0	53248	1	0.7	51200	blue	red	1	0	ml	2.7.3	bip	sub-16_ses-02_task-ml_proj-bip_2021-02-17-10-14-29.998190
188	16	2	4	189	volatile	7	40	29	vs	red	blue	blue	red	right	left	0.7	0.30000000000000004	2	6	1.4	1.8000000000000005	1	0	0.30000000000000004	0.7	6	2	1.8000000000000005	1.4	valid	0.4332446090011217	51200	0	0	2	51200	1	53248	0	51200	1	0.7	53248	blue	red	0	0	ml	2.7.3	bip	sub-16_ses-02_task-ml_proj-bip_2021-02-17-10-14-29.998190
189	16	2	4	190	volatile	7	40	30	vs	red	blue	blue	red	right	left	0.7	0.30000000000000004	6	6	4.199999999999998	1.8000000000000005	0	1	0.30000000000000004	0.7	6	6	1.8000000000000005	4.199999999999998	invalid	0.3832447519998823	51200	0	0	2	53248	0	53248	0	53248	0	0.7	53248	blue	red	0	6	ml	2.7.3	bip	sub-16_ses-02_task-ml_proj-bip_2021-02-17-10-14-29.998190
190	16	2	4	191	volatile	7	40	31	vs	blue	red	blue	red	left	right	0.7	0.30000000000000004	2	2	1.4	0.6000000000000001	1	0	0.7	0.30000000000000004	2	2	1.4	0.6000000000000001	valid	0.4165818620003847	53248	0	1	2	51200	0	51200	0	53248	1	0.7	51200	blue	red	1	0	ml	2.7.3	bip	sub-16_ses-02_task-ml_proj-bip_2021-02-17-10-14-29.998190
191	16	2	4	192	volatile	7	40	32	vs	red	blue	blue	red	right	left	0.7	0.30000000000000004	2	4	1.4	1.2000000000000002	1	0	0.30000000000000004	0.7	4	2	1.2000000000000002	1.4	valid	0.5665244120009447	51200	0	0	2	53248	0	53248	0	51200	1	0.7	53248	blue	red	0	0	ml	2.7.3	bip	sub-16_ses-02_task-ml_proj-bip_2021-02-17-10-14-29.998190
192	16	2	4	193	volatile	7	40	33	vs	blue	red	blue	red	left	right	0.7	0.30000000000000004	6	6	4.199999999999998	1.8000000000000005	1	0	0.7	0.30000000000000004	6	6	4.199999999999998	1.8000000000000005	valid	1.0663818800003355	53248	0	1	2	51200	0	51200	0	53248	1	0.7	51200	blue	red	1	0	ml	2.7.3	bip	sub-16_ses-02_task-ml_proj-bip_2021-02-17-10-14-29.998190
193	16	2	4	194	volatile	7	40	34	vs	red	blue	blue	red	right	left	0.7	0.30000000000000004	2	10	1.4	3.0000000000000004	0	1	0.30000000000000004	0.7	10	2	3.0000000000000004	1.4	invalid	1.2996457319986805	53248	0	1	1	51200	0	53248	1	51200	0	0.7	53248	blue	red	0	0	ml	2.7.3	bip	sub-16_ses-02_task-ml_proj-bip_2021-02-17-10-14-29.998190
194	16	2	4	195	volatile	7	40	35	vs	blue	red	blue	red	left	right	0.7	0.30000000000000004	6	4	4.199999999999998	1.2000000000000002	1	0	0.7	0.30000000000000004	6	4	4.199999999999998	1.2000000000000002	valid	0.3999087209995196	51200	0	0	1	51200	1	51200	1	51200	1	0.7	51200	blue	red	1	6	ml	2.7.3	bip	sub-16_ses-02_task-ml_proj-bip_2021-02-17-10-14-29.998190
195	16	2	4	196	volatile	7	40	36	vs	red	blue	blue	red	right	left	0.7	0.30000000000000004	10	2	7.0	0.6000000000000001	0	1	0.30000000000000004	0.7	2	10	0.6000000000000001	7.0	invalid	0.3832529979990795	53248	0	1	1	53248	1	53248	1	53248	1	0.7	53248	blue	red	1	0	ml	2.7.3	bip	sub-16_ses-02_task-ml_proj-bip_2021-02-17-10-14-29.998190
196	16	2	4	197	volatile	7	40	37	vs	red	blue	blue	red	right	left	0.7	0.30000000000000004	6	2	4.199999999999998	0.6000000000000001	1	0	0.30000000000000004	0.7	2	6	0.6000000000000001	4.199999999999998	valid	0.4165742370005319	53248	0	1	1	53248	1	53248	1	53248	1	0.7	53248	blue	red	1	6	ml	2.7.3	bip	sub-16_ses-02_task-ml_proj-bip_2021-02-17-10-14-29.998190
197	16	2	4	198	volatile	7	40	38	vs	red	blue	blue	red	right	left	0.7	0.30000000000000004	4	2	2.8	0.6000000000000001	1	0	0.30000000000000004	0.7	2	4	0.6000000000000001	2.8	valid	0.4665666799992323	53248	0	1	1	53248	1	53248	1	53248	1	0.7	53248	blue	red	1	4	ml	2.7.3	bip	sub-16_ses-02_task-ml_proj-bip_2021-02-17-10-14-29.998190
198	16	2	4	199	volatile	7	40	39	vs	blue	red	blue	red	left	right	0.7	0.30000000000000004	2	4	1.4	1.2000000000000002	1	0	0.7	0.30000000000000004	2	4	1.4	1.2000000000000002	valid	0.5665234079988295	51200	0	0	1	51200	1	51200	1	53248	0	0.7	51200	blue	red	0	2	ml	2.7.3	bip	sub-16_ses-02_task-ml_proj-bip_2021-02-17-10-14-29.998190
199	16	2	4	200	volatile	7	40	40	vs	blue	red	blue	red	left	right	0.7	0.30000000000000004	2	6	1.4	1.8000000000000005	1	0	0.7	0.30000000000000004	2	6	1.4	1.8000000000000005	valid	0.7997861620006006	51200	0	0	1	53248	0	51200	1	53248	0	0.7	51200	blue	red	0	2	ml	2.7.3	bip	sub-16_ses-02_task-ml_proj-bip_2021-02-17-10-14-29.998190
200	16	2	5	201	stable	8	200	1	vs	blue	red	blue	red	left	right	0.30000000000000004	0.7	6	6	1.8000000000000005	4.199999999999998	0	1	0.30000000000000004	0.7	6	6	1.8000000000000005	4.199999999999998	valid	0.6998239409986127	51200	0	0	1	53248	0	53248	0	53248	0	0.7	53248	red	blue	0	0	ml	2.7.3	bip	sub-16_ses-02_task-ml_proj-bip_2021-02-17-10-14-29.998190
201	16	2	5	202	stable	8	200	2	vs	blue	red	blue	red	left	right	0.30000000000000004	0.7	6	2	1.8000000000000005	1.4	1	0	0.30000000000000004	0.7	6	2	1.8000000000000005	1.4	invalid	0.4832453950002673	51200	0	0	1	51200	1	53248	0	51200	1	0.7	53248	red	blue	0	6	ml	2.7.3	bip	sub-16_ses-02_task-ml_proj-bip_2021-02-17-10-14-29.998190
202	16	2	5	203	stable	8	200	3	vs	blue	red	blue	red	left	right	0.30000000000000004	0.7	6	4	1.8000000000000005	2.8	0	1	0.30000000000000004	0.7	6	4	1.8000000000000005	2.8	valid	0.466551357998469	51200	0	0	1	53248	0	53248	0	51200	1	0.7	53248	red	blue	0	0	ml	2.7.3	bip	sub-16_ses-02_task-ml_proj-bip_2021-02-17-10-14-29.998190
203	16	2	5	204	stable	8	200	4	vs	red	blue	blue	red	right	left	0.30000000000000004	0.7	4	6	1.2000000000000002	4.199999999999998	0	1	0.7	0.30000000000000004	6	4	4.199999999999998	1.2000000000000002	valid	0.6331786940008897	53248	0	1	1	51200	0	51200	0	51200	0	0.7	51200	red	blue	1	0	ml	2.7.3	bip	sub-16_ses-02_task-ml_proj-bip_2021-02-17-10-14-29.998190
204	16	2	5	205	stable	8	200	5	vs	red	blue	blue	red	right	left	0.30000000000000004	0.7	2	2	0.6000000000000001	1.4	0	1	0.7	0.30000000000000004	2	2	1.4	0.6000000000000001	valid	0.5665355300006922	53248	0	1	1	51200	0	51200	0	53248	1	0.7	51200	red	blue	1	0	ml	2.7.3	bip	sub-16_ses-02_task-ml_proj-bip_2021-02-17-10-14-29.998190
205	16	2	5	206	stable	8	200	6	vs	red	blue	blue	red	right	left	0.30000000000000004	0.7	2	10	0.6000000000000001	7.0	0	1	0.7	0.30000000000000004	10	2	7.0	0.6000000000000001	valid	0.7664615269986825	51200	0	0	2	51200	1	51200	1	51200	1	0.7	51200	red	blue	1	10	ml	2.7.3	bip	sub-16_ses-02_task-ml_proj-bip_2021-02-17-10-14-29.998190
206	16	2	5	207	stable	8	200	7	vs	blue	red	blue	red	left	right	0.30000000000000004	0.7	4	2	1.2000000000000002	1.4	0	1	0.30000000000000004	0.7	4	2	1.2000000000000002	1.4	valid	0.5332061979988794	53248	0	1	2	53248	1	53248	1	51200	0	0.7	53248	red	blue	0	2	ml	2.7.3	bip	sub-16_ses-02_task-ml_proj-bip_2021-02-17-10-14-29.998190
207	16	2	5	208	stable	8	200	8	vs	red	blue	blue	red	right	left	0.30000000000000004	0.7	2	10	0.6000000000000001	7.0	1	0	0.7	0.30000000000000004	10	2	7.0	0.6000000000000001	invalid	0.4332296690008661	51200	0	0	2	51200	1	51200	1	51200	1	0.7	51200	red	blue	1	0	ml	2.7.3	bip	sub-16_ses-02_task-ml_proj-bip_2021-02-17-10-14-29.998190
208	16	2	5	209	stable	8	200	9	vs	blue	red	blue	red	left	right	0.30000000000000004	0.7	6	2	1.8000000000000005	1.4	0	1	0.30000000000000004	0.7	6	2	1.8000000000000005	1.4	valid	0.3999106609990122	53248	0	1	2	51200	0	53248	1	51200	0	0.7	53248	red	blue	0	2	ml	2.7.3	bip	sub-16_ses-02_task-ml_proj-bip_2021-02-17-10-14-29.998190
209	16	2	5	210	stable	8	200	10	vs	red	blue	blue	red	right	left	0.30000000000000004	0.7	6	2	1.8000000000000005	1.4	1	0	0.7	0.30000000000000004	2	6	1.4	1.8000000000000005	invalid	0.5165400580008281	51200	0	0	2	53248	0	51200	1	53248	0	0.7	51200	red	blue	0	0	ml	2.7.3	bip	sub-16_ses-02_task-ml_proj-bip_2021-02-17-10-14-29.998190
210	16	2	5	211	stable	8	200	11	vs	red	blue	blue	red	right	left	0.30000000000000004	0.7	2	10	0.6000000000000001	7.0	0	1	0.7	0.30000000000000004	10	2	7.0	0.6000000000000001	valid	0.4332282010000199	51200	0	0	2	51200	1	51200	1	51200	1	0.7	51200	red	blue	1	10	ml	2.7.3	bip	sub-16_ses-02_task-ml_proj-bip_2021-02-17-10-14-29.998190
211	16	2	5	212	stable	8	200	12	vs	blue	red	blue	red	left	right	0.30000000000000004	0.7	2	2	0.6000000000000001	1.4	0	1	0.30000000000000004	0.7	2	2	0.6000000000000001	1.4	valid	0.5332082120003179	53248	0	1	2	53248	1	53248	1	53248	1	0.7	53248	red	blue	0	2	ml	2.7.3	bip	sub-16_ses-02_task-ml_proj-bip_2021-02-17-10-14-29.998190
212	16	2	5	213	stable	8	200	13	vs	red	blue	blue	red	right	left	0.30000000000000004	0.7	2	6	0.6000000000000001	4.199999999999998	0	1	0.7	0.30000000000000004	6	2	4.199999999999998	0.6000000000000001	valid	0.3832413860000088	51200	0	0	2	51200	1	51200	1	51200	1	0.7	51200	red	blue	1	6	ml	2.7.3	bip	sub-16_ses-02_task-ml_proj-bip_2021-02-17-10-14-29.998190
213	16	2	5	214	stable	8	200	14	vs	blue	red	blue	red	left	right	0.30000000000000004	0.7	2	10	0.6000000000000001	7.0	1	0	0.30000000000000004	0.7	2	10	0.6000000000000001	7.0	invalid	0.4165859010008717	53248	0	1	2	53248	1	53248	1	53248	1	0.7	53248	red	blue	1	0	ml	2.7.3	bip	sub-16_ses-02_task-ml_proj-bip_2021-02-17-10-14-29.998190
214	16	2	5	215	stable	8	200	15	vs	red	blue	blue	red	right	left	0.30000000000000004	0.7	2	2	0.6000000000000001	1.4	0	1	0.7	0.30000000000000004	2	2	1.4	0.6000000000000001	valid	0.6498371520010551	51200	0	0	2	51200	1	51200	1	53248	0	0.7	51200	red	blue	1	2	ml	2.7.3	bip	sub-16_ses-02_task-ml_proj-bip_2021-02-17-10-14-29.998190
215	16	2	5	216	stable	8	200	16	vs	red	blue	blue	red	right	left	0.30000000000000004	0.7	6	4	1.8000000000000005	2.8	0	1	0.7	0.30000000000000004	4	6	2.8	1.8000000000000005	valid	0.4498920480000379	51200	0	0	2	51200	1	51200	1	53248	0	0.7	51200	red	blue	0	4	ml	2.7.3	bip	sub-16_ses-02_task-ml_proj-bip_2021-02-17-10-14-29.998190
216	16	2	5	217	stable	8	200	17	vs	blue	red	blue	red	left	right	0.30000000000000004	0.7	4	6	1.2000000000000002	4.199999999999998	0	1	0.30000000000000004	0.7	4	6	1.2000000000000002	4.199999999999998	valid	0.6831717850000132	53248	0	1	2	53248	1	53248	1	53248	1	0.7	53248	red	blue	1	6	ml	2.7.3	bip	sub-16_ses-02_task-ml_proj-bip_2021-02-17-10-14-29.998190
217	16	2	5	218	stable	8	200	18	vs	blue	red	blue	red	left	right	0.30000000000000004	0.7	6	2	1.8000000000000005	1.4	0	1	0.30000000000000004	0.7	6	2	1.8000000000000005	1.4	valid	0.5165528079996875	53248	0	1	2	51200	0	53248	1	51200	0	0.7	53248	red	blue	0	2	ml	2.7.3	bip	sub-16_ses-02_task-ml_proj-bip_2021-02-17-10-14-29.998190
218	16	2	5	219	stable	8	200	19	vs	red	blue	blue	red	right	left	0.30000000000000004	0.7	4	6	1.2000000000000002	4.199999999999998	1	0	0.7	0.30000000000000004	6	4	4.199999999999998	1.2000000000000002	invalid	0.3832423240000935	51200	0	0	2	51200	1	51200	1	51200	1	0.7	51200	red	blue	1	0	ml	2.7.3	bip	sub-16_ses-02_task-ml_proj-bip_2021-02-17-10-14-29.998190
219	16	2	5	220	stable	8	200	20	vs	blue	red	blue	red	left	right	0.30000000000000004	0.7	2	10	0.6000000000000001	7.0	0	1	0.30000000000000004	0.7	2	10	0.6000000000000001	7.0	valid	0.4332397569996829	53248	0	1	2	53248	1	53248	1	53248	1	0.7	53248	red	blue	1	10	ml	2.7.3	bip	sub-16_ses-02_task-ml_proj-bip_2021-02-17-10-14-29.998190
220	16	2	5	221	stable	8	200	21	vs	red	blue	blue	red	right	left	0.30000000000000004	0.7	2	6	0.6000000000000001	4.199999999999998	0	1	0.7	0.30000000000000004	6	2	4.199999999999998	0.6000000000000001	valid	0.3832513110010041	51200	0	0	2	51200	1	51200	1	51200	1	0.7	51200	red	blue	1	6	ml	2.7.3	bip	sub-16_ses-02_task-ml_proj-bip_2021-02-17-10-14-29.998190
221	16	2	5	222	stable	8	200	22	vs	red	blue	blue	red	right	left	0.30000000000000004	0.7	2	4	0.6000000000000001	2.8	1	0	0.7	0.30000000000000004	4	2	2.8	0.6000000000000001	invalid	0.4498893710006087	51200	0	0	2	51200	1	51200	1	51200	1	0.7	51200	red	blue	1	0	ml	2.7.3	bip	sub-16_ses-02_task-ml_proj-bip_2021-02-17-10-14-29.998190
222	16	2	5	223	stable	8	200	23	vs	blue	red	blue	red	left	right	0.30000000000000004	0.7	6	6	1.8000000000000005	4.199999999999998	0	1	0.30000000000000004	0.7	6	6	1.8000000000000005	4.199999999999998	valid	0.4998888390000502	53248	0	1	2	53248	1	53248	1	53248	1	0.7	53248	red	blue	0	6	ml	2.7.3	bip	sub-16_ses-02_task-ml_proj-bip_2021-02-17-10-14-29.998190
223	16	2	5	224	stable	8	200	24	vs	red	blue	blue	red	right	left	0.30000000000000004	0.7	2	4	0.6000000000000001	2.8	1	0	0.7	0.30000000000000004	4	2	2.8	0.6000000000000001	invalid	0.5332017300006555	51200	0	0	2	51200	1	51200	1	51200	1	0.7	51200	red	blue	1	0	ml	2.7.3	bip	sub-16_ses-02_task-ml_proj-bip_2021-02-17-10-14-29.998190
224	16	2	5	225	stable	8	200	25	vs	blue	red	blue	red	left	right	0.30000000000000004	0.7	6	4	1.8000000000000005	2.8	0	1	0.30000000000000004	0.7	6	4	1.8000000000000005	2.8	valid	0.4332371959990269	53248	0	1	2	53248	1	53248	1	51200	0	0.7	53248	red	blue	0	4	ml	2.7.3	bip	sub-16_ses-02_task-ml_proj-bip_2021-02-17-10-14-29.998190
225	16	2	5	226	stable	8	200	26	vs	red	blue	blue	red	right	left	0.30000000000000004	0.7	2	4	0.6000000000000001	2.8	0	1	0.7	0.30000000000000004	4	2	2.8	0.6000000000000001	valid	0.3665834339990397	51200	0	0	2	51200	1	51200	1	51200	1	0.7	51200	red	blue	1	4	ml	2.7.3	bip	sub-16_ses-02_task-ml_proj-bip_2021-02-17-10-14-29.998190
226	16	2	5	227	stable	8	200	27	vs	blue	red	blue	red	left	right	0.30000000000000004	0.7	10	2	3.0000000000000004	1.4	1	0	0.30000000000000004	0.7	10	2	3.0000000000000004	1.4	invalid	0.8497663520010974	51200	0	0	1	51200	1	53248	0	51200	1	0.7	53248	red	blue	0	10	ml	2.7.3	bip	sub-16_ses-02_task-ml_proj-bip_2021-02-17-10-14-29.998190
227	16	2	5	228	stable	8	200	28	vs	blue	red	blue	red	left	right	0.30000000000000004	0.7	4	6	1.2000000000000002	4.199999999999998	0	1	0.30000000000000004	0.7	4	6	1.2000000000000002	4.199999999999998	valid	0.5998548650004523	51200	0	0	1	53248	0	53248	0	53248	0	0.7	53248	red	blue	1	0	ml	2.7.3	bip	sub-16_ses-02_task-ml_proj-bip_2021-02-17-10-14-29.998190
228	16	2	5	229	stable	8	200	29	vs	red	blue	blue	red	right	left	0.30000000000000004	0.7	2	6	0.6000000000000001	4.199999999999998	1	0	0.7	0.30000000000000004	6	2	4.199999999999998	0.6000000000000001	invalid	1.0163821209989692	51200	0	0	2	51200	1	51200	1	51200	1	0.7	51200	red	blue	1	0	ml	2.7.3	bip	sub-16_ses-02_task-ml_proj-bip_2021-02-17-10-14-29.998190
229	16	2	5	230	stable	8	200	30	vs	blue	red	blue	red	left	right	0.30000000000000004	0.7	2	4	0.6000000000000001	2.8	0	1	0.30000000000000004	0.7	2	4	0.6000000000000001	2.8	valid	0.6831655379992299	53248	0	1	2	53248	1	53248	1	53248	1	0.7	53248	red	blue	1	4	ml	2.7.3	bip	sub-16_ses-02_task-ml_proj-bip_2021-02-17-10-14-29.998190
230	16	2	5	231	stable	8	200	31	vs	blue	red	blue	red	left	right	0.30000000000000004	0.7	10	2	3.0000000000000004	1.4	1	0	0.30000000000000004	0.7	10	2	3.0000000000000004	1.4	invalid	0.6165008509997278	51200	0	0	1	51200	1	53248	0	51200	1	0.7	53248	red	blue	0	10	ml	2.7.3	bip	sub-16_ses-02_task-ml_proj-bip_2021-02-17-10-14-29.998190
231	16	2	5	232	stable	8	200	32	vs	blue	red	blue	red	left	right	0.30000000000000004	0.7	2	6	0.6000000000000001	4.199999999999998	1	0	0.30000000000000004	0.7	2	6	0.6000000000000001	4.199999999999998	invalid	0.8664416400006303	51200	0	0	1	53248	0	53248	0	53248	0	0.7	53248	red	blue	1	2	ml	2.7.3	bip	sub-16_ses-02_task-ml_proj-bip_2021-02-17-10-14-29.998190
232	16	2	5	233	stable	8	200	33	vs	red	blue	blue	red	right	left	0.30000000000000004	0.7	10	2	3.0000000000000004	1.4	0	1	0.7	0.30000000000000004	2	10	1.4	3.0000000000000004	valid	0.4499005769994256	53248	0	1	1	53248	1	51200	0	53248	1	0.7	51200	red	blue	0	0	ml	2.7.3	bip	sub-16_ses-02_task-ml_proj-bip_2021-02-17-10-14-29.998190
233	16	2	5	234	stable	8	200	34	vs	blue	red	blue	red	left	right	0.30000000000000004	0.7	2	4	0.6000000000000001	2.8	0	1	0.30000000000000004	0.7	2	4	0.6000000000000001	2.8	valid	0.43328275800013216	51200	0	0	1	53248	0	53248	0	53248	0	0.7	53248	red	blue	1	0	ml	2.7.3	bip	sub-16_ses-02_task-ml_proj-bip_2021-02-17-10-14-29.998190
234	16	2	5	235	stable	8	200	35	vs	red	blue	blue	red	right	left	0.30000000000000004	0.7	2	2	0.6000000000000001	1.4	0	1	0.7	0.30000000000000004	2	2	1.4	0.6000000000000001	valid	0.4998891650011501	53248	0	1	1	51200	0	51200	0	53248	1	0.7	51200	red	blue	1	0	ml	2.7.3	bip	sub-16_ses-02_task-ml_proj-bip_2021-02-17-10-14-29.998190
235	16	2	5	236	stable	8	200	36	vs	red	blue	blue	red	right	left	0.30000000000000004	0.7	4	2	1.2000000000000002	1.4	1	0	0.7	0.30000000000000004	2	4	1.4	1.2000000000000002	invalid	0.4665638799997396	53248	0	1	1	51200	0	51200	0	53248	1	0.7	51200	red	blue	0	4	ml	2.7.3	bip	sub-16_ses-02_task-ml_proj-bip_2021-02-17-10-14-29.998190
236	16	2	5	237	stable	8	200	37	vs	red	blue	blue	red	right	left	0.30000000000000004	0.7	6	6	1.8000000000000005	4.199999999999998	0	1	0.7	0.30000000000000004	6	6	4.199999999999998	1.8000000000000005	valid	0.466564129001199	53248	0	1	1	51200	0	51200	0	53248	1	0.7	51200	red	blue	1	0	ml	2.7.3	bip	sub-16_ses-02_task-ml_proj-bip_2021-02-17-10-14-29.998190
237	16	2	5	238	stable	8	200	38	vs	red	blue	blue	red	right	left	0.30000000000000004	0.7	2	4	0.6000000000000001	2.8	0	1	0.7	0.30000000000000004	4	2	2.8	0.6000000000000001	valid	0.8664416859992343	53248	0	1	1	51200	0	51200	0	51200	0	0.7	51200	red	blue	1	0	ml	2.7.3	bip	sub-16_ses-02_task-ml_proj-bip_2021-02-17-10-14-29.998190
238	16	2	5	239	stable	8	200	39	vs	red	blue	blue	red	right	left	0.30000000000000004	0.7	2	10	0.6000000000000001	7.0	0	1	0.7	0.30000000000000004	10	2	7.0	0.6000000000000001	valid	0.8830934130000969	51200	0	0	2	51200	1	51200	1	51200	1	0.7	51200	red	blue	1	10	ml	2.7.3	bip	sub-16_ses-02_task-ml_proj-bip_2021-02-17-10-14-29.998190
239	16	2	5	240	stable	8	200	40	vs	red	blue	blue	red	right	left	0.30000000000000004	0.7	6	4	1.8000000000000005	2.8	0	1	0.7	0.30000000000000004	4	6	2.8	1.8000000000000005	valid	0.8497818800005916	53248	0	1	1	51200	0	51200	0	53248	1	0.7	51200	red	blue	0	0	ml	2.7.3	bip	sub-16_ses-02_task-ml_proj-bip_2021-02-17-10-14-29.998190
240	16	2	5	241	stable	8	200	41	vs	blue	red	blue	red	left	right	0.30000000000000004	0.7	10	2	3.0000000000000004	1.4	1	0	0.30000000000000004	0.7	10	2	3.0000000000000004	1.4	invalid	0.5165380300004472	51200	0	0	1	51200	1	53248	0	51200	1	0.7	53248	red	blue	0	10	ml	2.7.3	bip	sub-16_ses-02_task-ml_proj-bip_2021-02-17-10-14-29.998190
241	16	2	5	242	stable	8	200	42	vs	blue	red	blue	red	left	right	0.30000000000000004	0.7	4	6	1.2000000000000002	4.199999999999998	1	0	0.30000000000000004	0.7	4	6	1.2000000000000002	4.199999999999998	invalid	0.4165683529990929	51200	0	0	1	53248	0	53248	0	53248	0	0.7	53248	red	blue	1	4	ml	2.7.3	bip	sub-16_ses-02_task-ml_proj-bip_2021-02-17-10-14-29.998190
242	16	2	5	243	stable	8	200	43	vs	blue	red	blue	red	left	right	0.30000000000000004	0.7	6	6	1.8000000000000005	4.199999999999998	0	1	0.30000000000000004	0.7	6	6	1.8000000000000005	4.199999999999998	valid	0.4832175150004332	51200	0	0	1	53248	0	53248	0	53248	0	0.7	53248	red	blue	0	0	ml	2.7.3	bip	sub-16_ses-02_task-ml_proj-bip_2021-02-17-10-14-29.998190
243	16	2	5	244	stable	8	200	44	vs	blue	red	blue	red	left	right	0.30000000000000004	0.7	6	6	1.8000000000000005	4.199999999999998	0	1	0.30000000000000004	0.7	6	6	1.8000000000000005	4.199999999999998	valid	0.4165697640000872	51200	0	0	1	53248	0	53248	0	53248	0	0.7	53248	red	blue	0	0	ml	2.7.3	bip	sub-16_ses-02_task-ml_proj-bip_2021-02-17-10-14-29.998190
244	16	2	5	245	stable	8	200	45	vs	blue	red	blue	red	left	right	0.30000000000000004	0.7	4	6	1.2000000000000002	4.199999999999998	0	1	0.30000000000000004	0.7	4	6	1.2000000000000002	4.199999999999998	valid	0.4998744539989275	51200	0	0	1	53248	0	53248	0	53248	0	0.7	53248	red	blue	1	0	ml	2.7.3	bip	sub-16_ses-02_task-ml_proj-bip_2021-02-17-10-14-29.998190
245	16	2	5	246	stable	8	200	46	vs	blue	red	blue	red	left	right	0.30000000000000004	0.7	6	4	1.8000000000000005	2.8	0	1	0.30000000000000004	0.7	6	4	1.8000000000000005	2.8	valid	0.4332385910001904	53248	0	1	2	53248	1	53248	1	51200	0	0.7	53248	red	blue	0	4	ml	2.7.3	bip	sub-16_ses-02_task-ml_proj-bip_2021-02-17-10-14-29.998190
246	16	2	5	247	stable	8	200	47	vs	red	blue	blue	red	right	left	0.30000000000000004	0.7	6	4	1.8000000000000005	2.8	0	1	0.7	0.30000000000000004	4	6	2.8	1.8000000000000005	valid	0.3999086439998791	51200	0	0	2	51200	1	51200	1	53248	0	0.7	51200	red	blue	0	4	ml	2.7.3	bip	sub-16_ses-02_task-ml_proj-bip_2021-02-17-10-14-29.998190
247	16	2	5	248	stable	8	200	48	vs	blue	red	blue	red	left	right	0.30000000000000004	0.7	2	2	0.6000000000000001	1.4	1	0	0.30000000000000004	0.7	2	2	0.6000000000000001	1.4	invalid	0.3832528909988469	53248	0	1	2	53248	1	53248	1	53248	1	0.7	53248	red	blue	0	0	ml	2.7.3	bip	sub-16_ses-02_task-ml_proj-bip_2021-02-17-10-14-29.998190
248	16	2	5	249	stable	8	200	49	vs	red	blue	blue	red	right	left	0.30000000000000004	0.7	10	2	3.0000000000000004	1.4	1	0	0.7	0.30000000000000004	2	10	1.4	3.0000000000000004	invalid	0.3832460590001574	51200	0	0	2	53248	0	51200	1	53248	0	0.7	51200	red	blue	0	0	ml	2.7.3	bip	sub-16_ses-02_task-ml_proj-bip_2021-02-17-10-14-29.998190
249	16	2	5	250	stable	8	200	50	vs	blue	red	blue	red	left	right	0.30000000000000004	0.7	2	4	0.6000000000000001	2.8	0	1	0.30000000000000004	0.7	2	4	0.6000000000000001	2.8	valid	0.483225637999567	53248	0	1	2	53248	1	53248	1	53248	1	0.7	53248	red	blue	1	4	ml	2.7.3	bip	sub-16_ses-02_task-ml_proj-bip_2021-02-17-10-14-29.998190
250	16	2	6	251	stable	8	200	51	vs	blue	red	blue	red	left	right	0.30000000000000004	0.7	2	10	0.6000000000000001	7.0	0	1	0.30000000000000004	0.7	2	10	0.6000000000000001	7.0	valid	0.6498358720000397	53248	0	1	2	53248	1	53248	1	53248	1	0.7	53248	red	blue	1	10	ml	2.7.3	bip	sub-16_ses-02_task-ml_proj-bip_2021-02-17-10-14-29.998190
251	16	2	6	252	stable	8	200	52	vs	red	blue	blue	red	right	left	0.30000000000000004	0.7	2	2	0.6000000000000001	1.4	0	1	0.7	0.30000000000000004	2	2	1.4	0.6000000000000001	valid	0.549859959000969	51200	0	0	2	51200	1	51200	1	53248	0	0.7	51200	red	blue	1	2	ml	2.7.3	bip	sub-16_ses-02_task-ml_proj-bip_2021-02-17-10-14-29.998190
252	16	2	6	253	stable	8	200	53	vs	red	blue	blue	red	right	left	0.30000000000000004	0.7	6	4	1.8000000000000005	2.8	0	1	0.7	0.30000000000000004	4	6	2.8	1.8000000000000005	valid	0.4498906099997839	51200	0	0	2	51200	1	51200	1	53248	0	0.7	51200	red	blue	0	4	ml	2.7.3	bip	sub-16_ses-02_task-ml_proj-bip_2021-02-17-10-14-29.998190
253	16	2	6	254	stable	8	200	54	vs	red	blue	blue	red	right	left	0.30000000000000004	0.7	6	4	1.8000000000000005	2.8	0	1	0.7	0.30000000000000004	4	6	2.8	1.8000000000000005	valid	0.3832428059995436	51200	0	0	2	51200	1	51200	1	53248	0	0.7	51200	red	blue	0	4	ml	2.7.3	bip	sub-16_ses-02_task-ml_proj-bip_2021-02-17-10-14-29.998190
254	16	2	6	255	stable	8	200	55	vs	blue	red	blue	red	left	right	0.30000000000000004	0.7	10	2	3.0000000000000004	1.4	0	1	0.30000000000000004	0.7	10	2	3.0000000000000004	1.4	valid	0.6831544379983825	51200	0	0	1	51200	1	53248	0	51200	1	0.7	53248	red	blue	0	0	ml	2.7.3	bip	sub-16_ses-02_task-ml_proj-bip_2021-02-17-10-14-29.998190
255	16	2	6	256	stable	8	200	56	vs	red	blue	blue	red	right	left	0.30000000000000004	0.7	2	2	0.6000000000000001	1.4	0	1	0.7	0.30000000000000004	2	2	1.4	0.6000000000000001	valid	0.4998726489993714	51200	0	0	2	51200	1	51200	1	53248	0	0.7	51200	red	blue	1	2	ml	2.7.3	bip	sub-16_ses-02_task-ml_proj-bip_2021-02-17-10-14-29.998190
256	16	2	6	257	stable	8	200	57	vs	red	blue	blue	red	right	left	0.30000000000000004	0.7	4	2	1.2000000000000002	1.4	0	1	0.7	0.30000000000000004	2	4	1.4	1.2000000000000002	valid	0.4998805350005569	51200	0	0	2	51200	1	51200	1	53248	0	0.7	51200	red	blue	0	2	ml	2.7.3	bip	sub-16_ses-02_task-ml_proj-bip_2021-02-17-10-14-29.998190
257	16	2	6	258	stable	8	200	58	vs	red	blue	blue	red	right	left	0.30000000000000004	0.7	4	2	1.2000000000000002	1.4	1	0	0.7	0.30000000000000004	2	4	1.4	1.2000000000000002	invalid	0.7997796119998384	51200	0	0	2	51200	1	51200	1	53248	0	0.7	51200	red	blue	0	0	ml	2.7.3	bip	sub-16_ses-02_task-ml_proj-bip_2021-02-17-10-14-29.998190
258	16	2	6	259	stable	8	200	59	vs	blue	red	blue	red	left	right	0.30000000000000004	0.7	2	2	0.6000000000000001	1.4	0	1	0.30000000000000004	0.7	2	2	0.6000000000000001	1.4	valid	0.5998581809999449	53248	0	1	2	53248	1	53248	1	53248	1	0.7	53248	red	blue	0	2	ml	2.7.3	bip	sub-16_ses-02_task-ml_proj-bip_2021-02-17-10-14-29.998190
259	16	2	6	260	stable	8	200	60	vs	blue	red	blue	red	left	right	0.30000000000000004	0.7	2	6	0.6000000000000001	4.199999999999998	0	1	0.30000000000000004	0.7	2	6	0.6000000000000001	4.199999999999998	valid	0.433244324000043	53248	0	1	2	53248	1	53248	1	53248	1	0.7	53248	red	blue	1	6	ml	2.7.3	bip	sub-16_ses-02_task-ml_proj-bip_2021-02-17-10-14-29.998190
260	16	2	6	261	stable	8	200	61	vs	blue	red	blue	red	left	right	0.30000000000000004	0.7	2	10	0.6000000000000001	7.0	1	0	0.30000000000000004	0.7	2	10	0.6000000000000001	7.0	invalid	0.4665636000008817	53248	0	1	2	53248	1	53248	1	53248	1	0.7	53248	red	blue	1	0	ml	2.7.3	bip	sub-16_ses-02_task-ml_proj-bip_2021-02-17-10-14-29.998190
261	16	2	6	262	stable	8	200	62	vs	blue	red	blue	red	left	right	0.30000000000000004	0.7	6	4	1.8000000000000005	2.8	1	0	0.30000000000000004	0.7	6	4	1.8000000000000005	2.8	invalid	0.4332410840015655	53248	0	1	2	53248	1	53248	1	51200	0	0.7	53248	red	blue	0	0	ml	2.7.3	bip	sub-16_ses-02_task-ml_proj-bip_2021-02-17-10-14-29.998190
262	16	2	6	263	stable	8	200	63	vs	blue	red	blue	red	left	right	0.30000000000000004	0.7	2	10	0.6000000000000001	7.0	0	1	0.30000000000000004	0.7	2	10	0.6000000000000001	7.0	valid	0.5332086010002968	53248	0	1	2	53248	1	53248	1	53248	1	0.7	53248	red	blue	1	10	ml	2.7.3	bip	sub-16_ses-02_task-ml_proj-bip_2021-02-17-10-14-29.998190
263	16	2	6	264	stable	8	200	64	vs	blue	red	blue	red	left	right	0.30000000000000004	0.7	6	2	1.8000000000000005	1.4	0	1	0.30000000000000004	0.7	6	2	1.8000000000000005	1.4	valid	0.8164589740008523	53248	0	1	2	51200	0	53248	1	51200	0	0.7	53248	red	blue	0	2	ml	2.7.3	bip	sub-16_ses-02_task-ml_proj-bip_2021-02-17-10-14-29.998190
264	16	2	6	265	stable	8	200	65	vs	red	blue	blue	red	right	left	0.30000000000000004	0.7	4	6	1.2000000000000002	4.199999999999998	1	0	0.7	0.30000000000000004	6	4	4.199999999999998	1.2000000000000002	invalid	0.4832115389999672	51200	0	0	2	51200	1	51200	1	51200	1	0.7	51200	red	blue	1	0	ml	2.7.3	bip	sub-16_ses-02_task-ml_proj-bip_2021-02-17-10-14-29.998190
265	16	2	6	266	stable	8	200	66	vs	red	blue	blue	red	right	left	0.30000000000000004	0.7	6	6	1.8000000000000005	4.199999999999998	0	1	0.7	0.30000000000000004	6	6	4.199999999999998	1.8000000000000005	valid	0.3665884459987865	51200	0	0	2	51200	1	51200	1	53248	0	0.7	51200	red	blue	1	6	ml	2.7.3	bip	sub-16_ses-02_task-ml_proj-bip_2021-02-17-10-14-29.998190
266	16	2	6	267	stable	8	200	67	vs	blue	red	blue	red	left	right	0.30000000000000004	0.7	2	6	0.6000000000000001	4.199999999999998	0	1	0.30000000000000004	0.7	2	6	0.6000000000000001	4.199999999999998	valid	0.4998931730006007	53248	0	1	2	53248	1	53248	1	53248	1	0.7	53248	red	blue	1	6	ml	2.7.3	bip	sub-16_ses-02_task-ml_proj-bip_2021-02-17-10-14-29.998190
267	16	2	6	268	stable	8	200	68	vs	red	blue	blue	red	right	left	0.30000000000000004	0.7	4	6	1.2000000000000002	4.199999999999998	0	1	0.7	0.30000000000000004	6	4	4.199999999999998	1.2000000000000002	valid	0.4998763730000064	51200	0	0	2	51200	1	51200	1	51200	1	0.7	51200	red	blue	1	6	ml	2.7.3	bip	sub-16_ses-02_task-ml_proj-bip_2021-02-17-10-14-29.998190
268	16	2	6	269	stable	8	200	69	vs	red	blue	blue	red	right	left	0.30000000000000004	0.7	4	6	1.2000000000000002	4.199999999999998	0	1	0.7	0.30000000000000004	6	4	4.199999999999998	1.2000000000000002	valid	0.5165373109994107	51200	0	0	2	51200	1	51200	1	51200	1	0.7	51200	red	blue	1	6	ml	2.7.3	bip	sub-16_ses-02_task-ml_proj-bip_2021-02-17-10-14-29.998190
269	16	2	6	270	stable	8	200	70	vs	red	blue	blue	red	right	left	0.30000000000000004	0.7	4	2	1.2000000000000002	1.4	1	0	0.7	0.30000000000000004	2	4	1.4	1.2000000000000002	invalid	0.6165063900007226	51200	0	0	2	51200	1	51200	1	53248	0	0.7	51200	red	blue	0	0	ml	2.7.3	bip	sub-16_ses-02_task-ml_proj-bip_2021-02-17-10-14-29.998190
270	16	2	6	271	stable	8	200	71	vs	red	blue	blue	red	right	left	0.30000000000000004	0.7	6	4	1.8000000000000005	2.8	1	0	0.7	0.30000000000000004	4	6	2.8	1.8000000000000005	invalid	0.5165409579985862	51200	0	0	2	51200	1	51200	1	53248	0	0.7	51200	red	blue	0	0	ml	2.7.3	bip	sub-16_ses-02_task-ml_proj-bip_2021-02-17-10-14-29.998190
271	16	2	6	272	stable	8	200	72	vs	blue	red	blue	red	left	right	0.30000000000000004	0.7	4	2	1.2000000000000002	1.4	0	1	0.30000000000000004	0.7	4	2	1.2000000000000002	1.4	valid	0.8331185990009544	53248	0	1	2	53248	1	53248	1	51200	0	0.7	53248	red	blue	0	2	ml	2.7.3	bip	sub-16_ses-02_task-ml_proj-bip_2021-02-17-10-14-29.998190
272	16	2	6	273	stable	8	200	73	vs	blue	red	blue	red	left	right	0.30000000000000004	0.7	6	6	1.8000000000000005	4.199999999999998	1	0	0.30000000000000004	0.7	6	6	1.8000000000000005	4.199999999999998	invalid	0.3999266870014253	53248	0	1	2	53248	1	53248	1	53248	1	0.7	53248	red	blue	0	0	ml	2.7.3	bip	sub-16_ses-02_task-ml_proj-bip_2021-02-17-10-14-29.998190
273	16	2	6	274	stable	8	200	74	vs	blue	red	blue	red	left	right	0.30000000000000004	0.7	2	2	0.6000000000000001	1.4	0	1	0.30000000000000004	0.7	2	2	0.6000000000000001	1.4	valid	0.51654441699975	51200	0	0	1	53248	0	53248	0	53248	0	0.7	53248	red	blue	0	0	ml	2.7.3	bip	sub-16_ses-02_task-ml_proj-bip_2021-02-17-10-14-29.998190
274	16	2	6	275	stable	8	200	75	vs	red	blue	blue	red	right	left	0.30000000000000004	0.7	6	2	1.8000000000000005	1.4	0	1	0.7	0.30000000000000004	2	6	1.4	1.8000000000000005	valid	0.3999181209983361	53248	0	1	1	53248	1	51200	0	53248	1	0.7	51200	red	blue	0	0	ml	2.7.3	bip	sub-16_ses-02_task-ml_proj-bip_2021-02-17-10-14-29.998190
275	16	2	6	276	stable	8	200	76	vs	blue	red	blue	red	left	right	0.30000000000000004	0.7	2	10	0.6000000000000001	7.0	1	0	0.30000000000000004	0.7	2	10	0.6000000000000001	7.0	invalid	0.7498124250014371	53248	0	1	2	53248	1	53248	1	53248	1	0.7	53248	red	blue	1	0	ml	2.7.3	bip	sub-16_ses-02_task-ml_proj-bip_2021-02-17-10-14-29.998190
276	16	2	6	277	stable	8	200	77	vs	blue	red	blue	red	left	right	0.30000000000000004	0.7	2	4	0.6000000000000001	2.8	1	0	0.30000000000000004	0.7	2	4	0.6000000000000001	2.8	invalid	0.3832432930012146	51200	0	0	1	53248	0	53248	0	53248	0	0.7	53248	red	blue	1	2	ml	2.7.3	bip	sub-16_ses-02_task-ml_proj-bip_2021-02-17-10-14-29.998190
277	16	2	6	278	stable	8	200	78	vs	blue	red	blue	red	left	right	0.30000000000000004	0.7	2	10	0.6000000000000001	7.0	0	1	0.30000000000000004	0.7	2	10	0.6000000000000001	7.0	valid	0.4498935400006303	51200	0	0	1	53248	0	53248	0	53248	0	0.7	53248	red	blue	1	0	ml	2.7.3	bip	sub-16_ses-02_task-ml_proj-bip_2021-02-17-10-14-29.998190
278	16	2	6	279	stable	8	200	79	vs	red	blue	blue	red	right	left	0.30000000000000004	0.7	2	4	0.6000000000000001	2.8	0	1	0.7	0.30000000000000004	4	2	2.8	0.6000000000000001	valid	0.6165211469997303	53248	0	1	1	51200	0	51200	0	51200	0	0.7	51200	red	blue	1	0	ml	2.7.3	bip	sub-16_ses-02_task-ml_proj-bip_2021-02-17-10-14-29.998190
279	16	2	6	280	stable	8	200	80	vs	blue	red	blue	red	left	right	0.30000000000000004	0.7	6	2	1.8000000000000005	1.4	1	0	0.30000000000000004	0.7	6	2	1.8000000000000005	1.4	invalid	0.4832109170001786	51200	0	0	1	51200	1	53248	0	51200	1	0.7	53248	red	blue	0	6	ml	2.7.3	bip	sub-16_ses-02_task-ml_proj-bip_2021-02-17-10-14-29.998190
280	16	2	6	281	stable	8	200	81	vs	red	blue	blue	red	right	left	0.30000000000000004	0.7	2	6	0.6000000000000001	4.199999999999998	0	1	0.7	0.30000000000000004	6	2	4.199999999999998	0.6000000000000001	valid	0.7164902620006615	53248	0	1	1	51200	0	51200	0	51200	0	0.7	51200	red	blue	1	0	ml	2.7.3	bip	sub-16_ses-02_task-ml_proj-bip_2021-02-17-10-14-29.998190
281	16	2	6	282	stable	8	200	82	vs	blue	red	blue	red	left	right	0.30000000000000004	0.7	6	4	1.8000000000000005	2.8	0	1	0.30000000000000004	0.7	6	4	1.8000000000000005	2.8	valid	0.41658485299922177	53248	0	1	2	53248	1	53248	1	51200	0	0.7	53248	red	blue	0	4	ml	2.7.3	bip	sub-16_ses-02_task-ml_proj-bip_2021-02-17-10-14-29.998190
282	16	2	6	283	stable	8	200	83	vs	blue	red	blue	red	left	right	0.30000000000000004	0.7	6	2	1.8000000000000005	1.4	1	0	0.30000000000000004	0.7	6	2	1.8000000000000005	1.4	invalid	0.46656454100048	53248	0	1	2	51200	0	53248	1	51200	0	0.7	53248	red	blue	0	0	ml	2.7.3	bip	sub-16_ses-02_task-ml_proj-bip_2021-02-17-10-14-29.998190
283	16	2	6	284	stable	8	200	84	vs	red	blue	blue	red	right	left	0.30000000000000004	0.7	2	2	0.6000000000000001	1.4	1	0	0.7	0.30000000000000004	2	2	1.4	0.6000000000000001	invalid	0.483221261001745	51200	0	0	2	51200	1	51200	1	53248	0	0.7	51200	red	blue	1	0	ml	2.7.3	bip	sub-16_ses-02_task-ml_proj-bip_2021-02-17-10-14-29.998190
284	16	2	6	285	stable	8	200	85	vs	red	blue	blue	red	right	left	0.30000000000000004	0.7	4	2	1.2000000000000002	1.4	1	0	0.7	0.30000000000000004	2	4	1.4	1.2000000000000002	invalid	0.3999080409994349	51200	0	0	2	51200	1	51200	1	53248	0	0.7	51200	red	blue	0	0	ml	2.7.3	bip	sub-16_ses-02_task-ml_proj-bip_2021-02-17-10-14-29.998190
285	16	2	6	286	stable	8	200	86	vs	red	blue	blue	red	right	left	0.30000000000000004	0.7	2	2	0.6000000000000001	1.4	0	1	0.7	0.30000000000000004	2	2	1.4	0.6000000000000001	valid	0.3665801440001815	51200	0	0	2	51200	1	51200	1	53248	0	0.7	51200	red	blue	1	2	ml	2.7.3	bip	sub-16_ses-02_task-ml_proj-bip_2021-02-17-10-14-29.998190
286	16	2	6	287	stable	8	200	87	vs	blue	red	blue	red	left	right	0.30000000000000004	0.7	2	10	0.6000000000000001	7.0	1	0	0.30000000000000004	0.7	2	10	0.6000000000000001	7.0	invalid	0.5165476379988831	53248	0	1	2	53248	1	53248	1	53248	1	0.7	53248	red	blue	1	0	ml	2.7.3	bip	sub-16_ses-02_task-ml_proj-bip_2021-02-17-10-14-29.998190
287	16	2	6	288	stable	8	200	88	vs	red	blue	blue	red	right	left	0.30000000000000004	0.7	6	2	1.8000000000000005	1.4	0	1	0.7	0.30000000000000004	2	6	1.4	1.8000000000000005	valid	0.3665823020000971	51200	0	0	2	53248	0	51200	1	53248	0	0.7	51200	red	blue	0	2	ml	2.7.3	bip	sub-16_ses-02_task-ml_proj-bip_2021-02-17-10-14-29.998190
288	16	2	6	289	stable	8	200	89	vs	red	blue	blue	red	right	left	0.30000000000000004	0.7	6	6	1.8000000000000005	4.199999999999998	1	0	0.7	0.30000000000000004	6	6	4.199999999999998	1.8000000000000005	invalid	0.39991417300007015	51200	0	0	2	51200	1	51200	1	53248	0	0.7	51200	red	blue	1	0	ml	2.7.3	bip	sub-16_ses-02_task-ml_proj-bip_2021-02-17-10-14-29.998190
289	16	2	6	290	stable	8	200	90	vs	red	blue	blue	red	right	left	0.30000000000000004	0.7	10	2	3.0000000000000004	1.4	0	1	0.7	0.30000000000000004	2	10	1.4	3.0000000000000004	valid	0.6831665019999491	53248	0	1	1	53248	1	51200	0	53248	1	0.7	51200	red	blue	0	0	ml	2.7.3	bip	sub-16_ses-02_task-ml_proj-bip_2021-02-17-10-14-29.998190
290	16	2	6	291	stable	8	200	91	vs	blue	red	blue	red	left	right	0.30000000000000004	0.7	2	10	0.6000000000000001	7.0	0	1	0.30000000000000004	0.7	2	10	0.6000000000000001	7.0	valid	0.5332102630000009	53248	0	1	2	53248	1	53248	1	53248	1	0.7	53248	red	blue	1	10	ml	2.7.3	bip	sub-16_ses-02_task-ml_proj-bip_2021-02-17-10-14-29.998190
291	16	2	6	292	stable	8	200	92	vs	red	blue	blue	red	right	left	0.30000000000000004	0.7	4	2	1.2000000000000002	1.4	0	1	0.7	0.30000000000000004	2	4	1.4	1.2000000000000002	valid	0.6165058960013994	51200	0	0	2	51200	1	51200	1	53248	0	0.7	51200	red	blue	0	2	ml	2.7.3	bip	sub-16_ses-02_task-ml_proj-bip_2021-02-17-10-14-29.998190
292	16	2	6	293	stable	8	200	93	vs	blue	red	blue	red	left	right	0.30000000000000004	0.7	6	4	1.8000000000000005	2.8	0	1	0.30000000000000004	0.7	6	4	1.8000000000000005	2.8	valid	0.6165165740003431	53248	0	1	2	53248	1	53248	1	51200	0	0.7	53248	red	blue	0	4	ml	2.7.3	bip	sub-16_ses-02_task-ml_proj-bip_2021-02-17-10-14-29.998190
293	16	2	6	294	stable	8	200	94	vs	blue	red	blue	red	left	right	0.30000000000000004	0.7	10	2	3.0000000000000004	1.4	1	0	0.30000000000000004	0.7	10	2	3.0000000000000004	1.4	invalid	0.8331086870002764	51200	0	0	1	51200	1	53248	0	51200	1	0.7	53248	red	blue	0	10	ml	2.7.3	bip	sub-16_ses-02_task-ml_proj-bip_2021-02-17-10-14-29.998190
294	16	2	6	295	stable	8	200	95	vs	red	blue	blue	red	right	left	0.30000000000000004	0.7	2	2	0.6000000000000001	1.4	0	1	0.7	0.30000000000000004	2	2	1.4	0.6000000000000001	valid	0.7164756830006809	51200	0	0	2	51200	1	51200	1	53248	0	0.7	51200	red	blue	1	2	ml	2.7.3	bip	sub-16_ses-02_task-ml_proj-bip_2021-02-17-10-14-29.998190
295	16	2	6	296	stable	8	200	96	vs	red	blue	blue	red	right	left	0.30000000000000004	0.7	2	4	0.6000000000000001	2.8	0	1	0.7	0.30000000000000004	4	2	2.8	0.6000000000000001	valid	0.8331073169993033	51200	0	0	2	51200	1	51200	1	51200	1	0.7	51200	red	blue	1	4	ml	2.7.3	bip	sub-16_ses-02_task-ml_proj-bip_2021-02-17-10-14-29.998190
296	16	2	6	297	stable	8	200	97	vs	red	blue	blue	red	right	left	0.30000000000000004	0.7	4	2	1.2000000000000002	1.4	1	0	0.7	0.30000000000000004	2	4	1.4	1.2000000000000002	invalid	0.3332583219998924	51200	0	0	2	51200	1	51200	1	53248	0	0.7	51200	red	blue	0	0	ml	2.7.3	bip	sub-16_ses-02_task-ml_proj-bip_2021-02-17-10-14-29.998190
297	16	2	6	298	stable	8	200	98	vs	red	blue	blue	red	right	left	0.30000000000000004	0.7	2	10	0.6000000000000001	7.0	0	1	0.7	0.30000000000000004	10	2	7.0	0.6000000000000001	valid	0.3999068780012749	51200	0	0	2	51200	1	51200	1	51200	1	0.7	51200	red	blue	1	10	ml	2.7.3	bip	sub-16_ses-02_task-ml_proj-bip_2021-02-17-10-14-29.998190
298	16	2	6	299	stable	8	200	99	vs	red	blue	blue	red	right	left	0.30000000000000004	0.7	10	2	3.0000000000000004	1.4	0	1	0.7	0.30000000000000004	2	10	1.4	3.0000000000000004	valid	0.3499252860001434	51200	0	0	2	53248	0	51200	1	53248	0	0.7	51200	red	blue	0	2	ml	2.7.3	bip	sub-16_ses-02_task-ml_proj-bip_2021-02-17-10-14-29.998190
