Unnamed: 0	sub_id	ses_id	block_no	trial_no	phase_type	phase_no	phase_length	trialInPhase_no	phase_type_order	color_left	color_right	color1	color2	position1	position2	prob1	prob2	mag1	mag2	ev1	ev2	outcome1	outcome2	prob_left	prob_right	mag_left	mag_right	ev_left	ev_right	reward_validity	resp_time	resp_key	timeout	choice_side	choice	ev_corr_resp	ev_correct	prob_corr_resp	prob_correct	mag_corr_resp	mag_correct	high_prob	high_prob_side	high_prob_color	low_prob_color	no_brain	reward	name	version	proj_id	logFileID
0	17	2	1	1	volatile	1	40	1	vs	turquoise	purple	turquoise	purple	left	right	0.7	0.30000000000000004	6	4	4.199999999999998	1.2000000000000002	1	0	0.7	0.30000000000000004	6	4	4.199999999999998	1.2000000000000002	valid	1.2663380970006983	53248	0	1	2	51200	0	51200	0	51200	0	0.7	51200	turquoise	purple	1	0	ml	2.7.3	bip	sub-17_ses-02_task-ml_proj-bip_2021-03-17-10-39-54.484194
1	17	2	1	2	volatile	1	40	2	vs	turquoise	purple	turquoise	purple	left	right	0.7	0.30000000000000004	6	4	4.199999999999998	1.2000000000000002	1	0	0.7	0.30000000000000004	6	4	4.199999999999998	1.2000000000000002	valid	0.949750102001417	51200	0	0	1	51200	1	51200	1	51200	1	0.7	51200	turquoise	purple	1	6	ml	2.7.3	bip	sub-17_ses-02_task-ml_proj-bip_2021-03-17-10-39-54.484194
2	17	2	1	3	volatile	1	40	3	vs	turquoise	purple	turquoise	purple	left	right	0.7	0.30000000000000004	2	2	1.4	0.6000000000000001	1	0	0.7	0.30000000000000004	2	2	1.4	0.6000000000000001	valid	0.4665507000008802	51200	0	0	1	51200	1	51200	1	53248	0	0.7	51200	turquoise	purple	1	2	ml	2.7.3	bip	sub-17_ses-02_task-ml_proj-bip_2021-03-17-10-39-54.484194
3	17	2	1	4	volatile	1	40	4	vs	purple	turquoise	turquoise	purple	right	left	0.7	0.30000000000000004	2	2	1.4	0.6000000000000001	1	0	0.30000000000000004	0.7	2	2	0.6000000000000001	1.4	valid	0.3499389790013083	53248	0	1	1	53248	1	53248	1	53248	1	0.7	53248	turquoise	purple	0	2	ml	2.7.3	bip	sub-17_ses-02_task-ml_proj-bip_2021-03-17-10-39-54.484194
4	17	2	1	5	volatile	1	40	5	vs	purple	turquoise	turquoise	purple	right	left	0.7	0.30000000000000004	6	4	4.199999999999998	1.2000000000000002	1	0	0.30000000000000004	0.7	4	6	1.2000000000000002	4.199999999999998	valid	0.3499407050003356	53248	0	1	1	53248	1	53248	1	53248	1	0.7	53248	turquoise	purple	1	6	ml	2.7.3	bip	sub-17_ses-02_task-ml_proj-bip_2021-03-17-10-39-54.484194
5	17	2	1	6	volatile	1	40	6	vs	turquoise	purple	turquoise	purple	left	right	0.7	0.30000000000000004	6	4	4.199999999999998	1.2000000000000002	1	0	0.7	0.30000000000000004	6	4	4.199999999999998	1.2000000000000002	valid	0.366587600999992	51200	0	0	1	51200	1	51200	1	51200	1	0.7	51200	turquoise	purple	1	6	ml	2.7.3	bip	sub-17_ses-02_task-ml_proj-bip_2021-03-17-10-39-54.484194
6	17	2	1	7	volatile	1	40	7	vs	purple	turquoise	turquoise	purple	right	left	0.7	0.30000000000000004	2	10	1.4	3.0000000000000004	1	0	0.30000000000000004	0.7	10	2	3.0000000000000004	1.4	valid	0.31661238900051103	53248	0	1	1	51200	0	53248	1	51200	0	0.7	53248	turquoise	purple	0	2	ml	2.7.3	bip	sub-17_ses-02_task-ml_proj-bip_2021-03-17-10-39-54.484194
7	17	2	1	8	volatile	1	40	8	vs	turquoise	purple	turquoise	purple	left	right	0.7	0.30000000000000004	2	6	1.4	1.8000000000000005	1	0	0.7	0.30000000000000004	2	6	1.4	1.8000000000000005	valid	0.333262508000189	51200	0	0	1	53248	0	51200	1	53248	0	0.7	51200	turquoise	purple	0	2	ml	2.7.3	bip	sub-17_ses-02_task-ml_proj-bip_2021-03-17-10-39-54.484194
8	17	2	1	9	volatile	1	40	9	vs	purple	turquoise	turquoise	purple	right	left	0.7	0.30000000000000004	6	6	4.199999999999998	1.8000000000000005	0	1	0.30000000000000004	0.7	6	6	1.8000000000000005	4.199999999999998	invalid	0.5332120180009952	53248	0	1	1	53248	1	53248	1	53248	1	0.7	53248	turquoise	purple	0	0	ml	2.7.3	bip	sub-17_ses-02_task-ml_proj-bip_2021-03-17-10-39-54.484194
9	17	2	1	10	volatile	1	40	10	vs	turquoise	purple	turquoise	purple	left	right	0.7	0.30000000000000004	4	2	2.8	0.6000000000000001	0	1	0.7	0.30000000000000004	4	2	2.8	0.6000000000000001	invalid	0.2999399469990749	51200	0	0	1	51200	1	51200	1	51200	1	0.7	51200	turquoise	purple	1	0	ml	2.7.3	bip	sub-17_ses-02_task-ml_proj-bip_2021-03-17-10-39-54.484194
10	17	2	1	11	volatile	1	40	11	vs	purple	turquoise	turquoise	purple	right	left	0.7	0.30000000000000004	4	2	2.8	0.6000000000000001	0	1	0.30000000000000004	0.7	2	4	0.6000000000000001	2.8	invalid	0.5498722419997648	51200	0	0	2	53248	0	53248	0	53248	0	0.7	53248	turquoise	purple	1	2	ml	2.7.3	bip	sub-17_ses-02_task-ml_proj-bip_2021-03-17-10-39-54.484194
11	17	2	1	12	volatile	1	40	12	vs	purple	turquoise	turquoise	purple	right	left	0.7	0.30000000000000004	2	6	1.4	1.8000000000000005	1	0	0.30000000000000004	0.7	6	2	1.8000000000000005	1.4	valid	0.6664994010006922	51200	0	0	2	51200	1	53248	0	51200	1	0.7	53248	turquoise	purple	0	0	ml	2.7.3	bip	sub-17_ses-02_task-ml_proj-bip_2021-03-17-10-39-54.484194
12	17	2	1	13	volatile	1	40	13	vs	purple	turquoise	turquoise	purple	right	left	0.7	0.30000000000000004	2	4	1.4	1.2000000000000002	0	1	0.30000000000000004	0.7	4	2	1.2000000000000002	1.4	invalid	0.3332639969994489	51200	0	0	2	53248	0	53248	0	51200	1	0.7	53248	turquoise	purple	0	4	ml	2.7.3	bip	sub-17_ses-02_task-ml_proj-bip_2021-03-17-10-39-54.484194
13	17	2	1	14	volatile	1	40	14	vs	purple	turquoise	turquoise	purple	right	left	0.7	0.30000000000000004	4	2	2.8	0.6000000000000001	1	0	0.30000000000000004	0.7	2	4	0.6000000000000001	2.8	valid	0.33326340100029483	51200	0	0	2	53248	0	53248	0	53248	0	0.7	53248	turquoise	purple	1	0	ml	2.7.3	bip	sub-17_ses-02_task-ml_proj-bip_2021-03-17-10-39-54.484194
14	17	2	1	15	volatile	1	40	15	vs	turquoise	purple	turquoise	purple	left	right	0.7	0.30000000000000004	2	6	1.4	1.8000000000000005	1	0	0.7	0.30000000000000004	2	6	1.4	1.8000000000000005	valid	0.3665982499987877	53248	0	1	2	53248	1	51200	0	53248	1	0.7	51200	turquoise	purple	0	0	ml	2.7.3	bip	sub-17_ses-02_task-ml_proj-bip_2021-03-17-10-39-54.484194
15	17	2	1	16	volatile	1	40	16	vs	turquoise	purple	turquoise	purple	left	right	0.7	0.30000000000000004	2	2	1.4	0.6000000000000001	0	1	0.7	0.30000000000000004	2	2	1.4	0.6000000000000001	invalid	0.3166002200014191	51200	0	0	1	51200	1	51200	1	53248	0	0.7	51200	turquoise	purple	1	0	ml	2.7.3	bip	sub-17_ses-02_task-ml_proj-bip_2021-03-17-10-39-54.484194
16	17	2	1	17	volatile	1	40	17	vs	purple	turquoise	turquoise	purple	right	left	0.7	0.30000000000000004	2	6	1.4	1.8000000000000005	0	1	0.30000000000000004	0.7	6	2	1.8000000000000005	1.4	invalid	0.4998851149994152	51200	0	0	2	51200	1	53248	0	51200	1	0.7	53248	turquoise	purple	0	6	ml	2.7.3	bip	sub-17_ses-02_task-ml_proj-bip_2021-03-17-10-39-54.484194
17	17	2	1	18	volatile	1	40	18	vs	turquoise	purple	turquoise	purple	left	right	0.7	0.30000000000000004	2	2	1.4	0.6000000000000001	1	0	0.7	0.30000000000000004	2	2	1.4	0.6000000000000001	valid	0.3499348800014559	53248	0	1	2	51200	0	51200	0	53248	1	0.7	51200	turquoise	purple	1	0	ml	2.7.3	bip	sub-17_ses-02_task-ml_proj-bip_2021-03-17-10-39-54.484194
18	17	2	1	19	volatile	1	40	19	vs	purple	turquoise	turquoise	purple	right	left	0.7	0.30000000000000004	10	2	7.0	0.6000000000000001	1	0	0.30000000000000004	0.7	2	10	0.6000000000000001	7.0	valid	0.3332624240010773	51200	0	0	2	53248	0	53248	0	53248	0	0.7	53248	turquoise	purple	1	0	ml	2.7.3	bip	sub-17_ses-02_task-ml_proj-bip_2021-03-17-10-39-54.484194
19	17	2	1	20	volatile	1	40	20	vs	purple	turquoise	turquoise	purple	right	left	0.7	0.30000000000000004	10	2	7.0	0.6000000000000001	0	1	0.30000000000000004	0.7	2	10	0.6000000000000001	7.0	invalid	0.2999756289991637	53248	0	1	1	53248	1	53248	1	53248	1	0.7	53248	turquoise	purple	1	0	ml	2.7.3	bip	sub-17_ses-02_task-ml_proj-bip_2021-03-17-10-39-54.484194
20	17	2	1	21	volatile	1	40	21	vs	purple	turquoise	turquoise	purple	right	left	0.7	0.30000000000000004	6	4	4.199999999999998	1.2000000000000002	1	0	0.30000000000000004	0.7	4	6	1.2000000000000002	4.199999999999998	valid	0.3166130620011245	53248	0	1	1	53248	1	53248	1	53248	1	0.7	53248	turquoise	purple	1	6	ml	2.7.3	bip	sub-17_ses-02_task-ml_proj-bip_2021-03-17-10-39-54.484194
21	17	2	1	22	volatile	1	40	22	vs	purple	turquoise	turquoise	purple	right	left	0.7	0.30000000000000004	6	4	4.199999999999998	1.2000000000000002	1	0	0.30000000000000004	0.7	4	6	1.2000000000000002	4.199999999999998	valid	0.2999514759994781	53248	0	1	1	53248	1	53248	1	53248	1	0.7	53248	turquoise	purple	1	6	ml	2.7.3	bip	sub-17_ses-02_task-ml_proj-bip_2021-03-17-10-39-54.484194
22	17	2	1	23	volatile	1	40	23	vs	turquoise	purple	turquoise	purple	left	right	0.7	0.30000000000000004	10	2	7.0	0.6000000000000001	1	0	0.7	0.30000000000000004	10	2	7.0	0.6000000000000001	valid	0.2832775280003261	51200	0	0	1	51200	1	51200	1	51200	1	0.7	51200	turquoise	purple	1	10	ml	2.7.3	bip	sub-17_ses-02_task-ml_proj-bip_2021-03-17-10-39-54.484194
23	17	2	1	24	volatile	1	40	24	vs	turquoise	purple	turquoise	purple	left	right	0.7	0.30000000000000004	4	6	2.8	1.8000000000000005	1	0	0.7	0.30000000000000004	4	6	2.8	1.8000000000000005	valid	0.3665861360004783	51200	0	0	1	51200	1	51200	1	53248	0	0.7	51200	turquoise	purple	0	4	ml	2.7.3	bip	sub-17_ses-02_task-ml_proj-bip_2021-03-17-10-39-54.484194
24	17	2	1	25	volatile	1	40	25	vs	turquoise	purple	turquoise	purple	left	right	0.7	0.30000000000000004	10	2	7.0	0.6000000000000001	1	0	0.7	0.30000000000000004	10	2	7.0	0.6000000000000001	valid	0.3499241659992549	51200	0	0	1	51200	1	51200	1	51200	1	0.7	51200	turquoise	purple	1	10	ml	2.7.3	bip	sub-17_ses-02_task-ml_proj-bip_2021-03-17-10-39-54.484194
25	17	2	1	26	volatile	1	40	26	vs	turquoise	purple	turquoise	purple	left	right	0.7	0.30000000000000004	10	2	7.0	0.6000000000000001	1	0	0.7	0.30000000000000004	10	2	7.0	0.6000000000000001	valid	0.3332574009982636	51200	0	0	1	51200	1	51200	1	51200	1	0.7	51200	turquoise	purple	1	10	ml	2.7.3	bip	sub-17_ses-02_task-ml_proj-bip_2021-03-17-10-39-54.484194
26	17	2	1	27	volatile	1	40	27	vs	turquoise	purple	turquoise	purple	left	right	0.7	0.30000000000000004	4	2	2.8	0.6000000000000001	0	1	0.7	0.30000000000000004	4	2	2.8	0.6000000000000001	invalid	0.29993932800061884	51200	0	0	1	51200	1	51200	1	51200	1	0.7	51200	turquoise	purple	1	0	ml	2.7.3	bip	sub-17_ses-02_task-ml_proj-bip_2021-03-17-10-39-54.484194
27	17	2	1	28	volatile	1	40	28	vs	purple	turquoise	turquoise	purple	right	left	0.7	0.30000000000000004	10	2	7.0	0.6000000000000001	1	0	0.30000000000000004	0.7	2	10	0.6000000000000001	7.0	valid	0.3665991550005856	53248	0	1	1	53248	1	53248	1	53248	1	0.7	53248	turquoise	purple	1	10	ml	2.7.3	bip	sub-17_ses-02_task-ml_proj-bip_2021-03-17-10-39-54.484194
28	17	2	1	29	volatile	1	40	29	vs	turquoise	purple	turquoise	purple	left	right	0.7	0.30000000000000004	2	4	1.4	1.2000000000000002	1	0	0.7	0.30000000000000004	2	4	1.4	1.2000000000000002	valid	0.28328006099945924	51200	0	0	1	51200	1	51200	1	53248	0	0.7	51200	turquoise	purple	0	2	ml	2.7.3	bip	sub-17_ses-02_task-ml_proj-bip_2021-03-17-10-39-54.484194
29	17	2	1	30	volatile	1	40	30	vs	turquoise	purple	turquoise	purple	left	right	0.7	0.30000000000000004	6	6	4.199999999999998	1.8000000000000005	0	1	0.7	0.30000000000000004	6	6	4.199999999999998	1.8000000000000005	invalid	0.3499233540005662	51200	0	0	1	51200	1	51200	1	53248	0	0.7	51200	turquoise	purple	1	0	ml	2.7.3	bip	sub-17_ses-02_task-ml_proj-bip_2021-03-17-10-39-54.484194
30	17	2	1	31	volatile	1	40	31	vs	turquoise	purple	turquoise	purple	left	right	0.7	0.30000000000000004	2	6	1.4	1.8000000000000005	0	1	0.7	0.30000000000000004	2	6	1.4	1.8000000000000005	invalid	0.3332656359998509	51200	0	0	1	53248	0	51200	1	53248	0	0.7	51200	turquoise	purple	0	0	ml	2.7.3	bip	sub-17_ses-02_task-ml_proj-bip_2021-03-17-10-39-54.484194
31	17	2	1	32	volatile	1	40	32	vs	purple	turquoise	turquoise	purple	right	left	0.7	0.30000000000000004	4	6	2.8	1.8000000000000005	1	0	0.30000000000000004	0.7	6	4	1.8000000000000005	2.8	valid	0.3499405670008855	53248	0	1	1	53248	1	53248	1	51200	0	0.7	53248	turquoise	purple	0	4	ml	2.7.3	bip	sub-17_ses-02_task-ml_proj-bip_2021-03-17-10-39-54.484194
32	17	2	1	33	volatile	1	40	33	vs	purple	turquoise	turquoise	purple	right	left	0.7	0.30000000000000004	2	6	1.4	1.8000000000000005	1	0	0.30000000000000004	0.7	6	2	1.8000000000000005	1.4	valid	0.3332764530005079	53248	0	1	1	51200	0	53248	1	51200	0	0.7	53248	turquoise	purple	0	2	ml	2.7.3	bip	sub-17_ses-02_task-ml_proj-bip_2021-03-17-10-39-54.484194
33	17	2	1	34	volatile	1	40	34	vs	purple	turquoise	turquoise	purple	right	left	0.7	0.30000000000000004	10	2	7.0	0.6000000000000001	0	1	0.30000000000000004	0.7	2	10	0.6000000000000001	7.0	invalid	0.6831744640003308	53248	0	1	1	53248	1	53248	1	53248	1	0.7	53248	turquoise	purple	1	0	ml	2.7.3	bip	sub-17_ses-02_task-ml_proj-bip_2021-03-17-10-39-54.484194
34	17	2	1	35	volatile	1	40	35	vs	purple	turquoise	turquoise	purple	right	left	0.7	0.30000000000000004	4	2	2.8	0.6000000000000001	1	0	0.30000000000000004	0.7	2	4	0.6000000000000001	2.8	valid	0.3499339169993618	53248	0	1	1	53248	1	53248	1	53248	1	0.7	53248	turquoise	purple	1	4	ml	2.7.3	bip	sub-17_ses-02_task-ml_proj-bip_2021-03-17-10-39-54.484194
35	17	2	1	36	volatile	1	40	36	vs	purple	turquoise	turquoise	purple	right	left	0.7	0.30000000000000004	2	6	1.4	1.8000000000000005	1	0	0.30000000000000004	0.7	6	2	1.8000000000000005	1.4	valid	0.3332765710001695	53248	0	1	1	51200	0	53248	1	51200	0	0.7	53248	turquoise	purple	0	2	ml	2.7.3	bip	sub-17_ses-02_task-ml_proj-bip_2021-03-17-10-39-54.484194
36	17	2	1	37	volatile	1	40	37	vs	purple	turquoise	turquoise	purple	right	left	0.7	0.30000000000000004	6	2	4.199999999999998	0.6000000000000001	1	0	0.30000000000000004	0.7	2	6	0.6000000000000001	4.199999999999998	valid	0.3666051310010516	53248	0	1	1	53248	1	53248	1	53248	1	0.7	53248	turquoise	purple	1	6	ml	2.7.3	bip	sub-17_ses-02_task-ml_proj-bip_2021-03-17-10-39-54.484194
37	17	2	1	38	volatile	1	40	38	vs	turquoise	purple	turquoise	purple	left	right	0.7	0.30000000000000004	6	6	4.199999999999998	1.8000000000000005	1	0	0.7	0.30000000000000004	6	6	4.199999999999998	1.8000000000000005	valid	0.3999126109993085	51200	0	0	1	51200	1	51200	1	53248	0	0.7	51200	turquoise	purple	1	6	ml	2.7.3	bip	sub-17_ses-02_task-ml_proj-bip_2021-03-17-10-39-54.484194
38	17	2	1	39	volatile	1	40	39	vs	turquoise	purple	turquoise	purple	left	right	0.7	0.30000000000000004	6	6	4.199999999999998	1.8000000000000005	0	1	0.7	0.30000000000000004	6	6	4.199999999999998	1.8000000000000005	invalid	0.3832485070015537	51200	0	0	1	51200	1	51200	1	53248	0	0.7	51200	turquoise	purple	1	0	ml	2.7.3	bip	sub-17_ses-02_task-ml_proj-bip_2021-03-17-10-39-54.484194
39	17	2	1	40	volatile	1	40	40	vs	turquoise	purple	turquoise	purple	left	right	0.7	0.30000000000000004	4	2	2.8	0.6000000000000001	1	0	0.7	0.30000000000000004	4	2	2.8	0.6000000000000001	valid	0.3832492410001578	51200	0	0	1	51200	1	51200	1	51200	1	0.7	51200	turquoise	purple	1	4	ml	2.7.3	bip	sub-17_ses-02_task-ml_proj-bip_2021-03-17-10-39-54.484194
40	17	2	1	41	volatile	2	40	1	vs	turquoise	purple	turquoise	purple	left	right	0.30000000000000004	0.7	6	6	1.8000000000000005	4.199999999999998	0	1	0.30000000000000004	0.7	6	6	1.8000000000000005	4.199999999999998	valid	0.5165429120006593	51200	0	0	1	53248	0	53248	0	53248	0	0.7	53248	purple	turquoise	0	0	ml	2.7.3	bip	sub-17_ses-02_task-ml_proj-bip_2021-03-17-10-39-54.484194
41	17	2	1	42	volatile	2	40	2	vs	purple	turquoise	turquoise	purple	right	left	0.30000000000000004	0.7	2	4	0.6000000000000001	2.8	1	0	0.7	0.30000000000000004	4	2	2.8	0.6000000000000001	invalid	0.3332744959989213	53248	0	1	1	51200	0	51200	0	51200	0	0.7	51200	purple	turquoise	1	2	ml	2.7.3	bip	sub-17_ses-02_task-ml_proj-bip_2021-03-17-10-39-54.484194
42	17	2	1	43	volatile	2	40	3	vs	turquoise	purple	turquoise	purple	left	right	0.30000000000000004	0.7	2	2	0.6000000000000001	1.4	0	1	0.30000000000000004	0.7	2	2	0.6000000000000001	1.4	valid	0.3166020999997272	51200	0	0	1	53248	0	53248	0	53248	0	0.7	53248	purple	turquoise	0	0	ml	2.7.3	bip	sub-17_ses-02_task-ml_proj-bip_2021-03-17-10-39-54.484194
43	17	2	1	44	volatile	2	40	4	vs	purple	turquoise	turquoise	purple	right	left	0.30000000000000004	0.7	10	2	3.0000000000000004	1.4	0	1	0.7	0.30000000000000004	2	10	1.4	3.0000000000000004	valid	0.3332798789997469	53248	0	1	1	53248	1	51200	0	53248	1	0.7	51200	purple	turquoise	0	0	ml	2.7.3	bip	sub-17_ses-02_task-ml_proj-bip_2021-03-17-10-39-54.484194
44	17	2	1	45	volatile	2	40	5	vs	purple	turquoise	turquoise	purple	right	left	0.30000000000000004	0.7	6	6	1.8000000000000005	4.199999999999998	0	1	0.7	0.30000000000000004	6	6	4.199999999999998	1.8000000000000005	valid	0.3665817689998221	51200	0	0	2	51200	1	51200	1	53248	0	0.7	51200	purple	turquoise	1	6	ml	2.7.3	bip	sub-17_ses-02_task-ml_proj-bip_2021-03-17-10-39-54.484194
45	17	2	1	46	volatile	2	40	6	vs	turquoise	purple	turquoise	purple	left	right	0.30000000000000004	0.7	6	2	1.8000000000000005	1.4	1	0	0.30000000000000004	0.7	6	2	1.8000000000000005	1.4	invalid	0.2999527660012973	53248	0	1	2	51200	0	53248	1	51200	0	0.7	53248	purple	turquoise	0	0	ml	2.7.3	bip	sub-17_ses-02_task-ml_proj-bip_2021-03-17-10-39-54.484194
46	17	2	1	47	volatile	2	40	7	vs	purple	turquoise	turquoise	purple	right	left	0.30000000000000004	0.7	6	2	1.8000000000000005	1.4	0	1	0.7	0.30000000000000004	2	6	1.4	1.8000000000000005	valid	0.36658766599975934	51200	0	0	2	53248	0	51200	1	53248	0	0.7	51200	purple	turquoise	0	2	ml	2.7.3	bip	sub-17_ses-02_task-ml_proj-bip_2021-03-17-10-39-54.484194
47	17	2	1	48	volatile	2	40	8	vs	turquoise	purple	turquoise	purple	left	right	0.30000000000000004	0.7	2	10	0.6000000000000001	7.0	0	1	0.30000000000000004	0.7	2	10	0.6000000000000001	7.0	valid	0.3499359299985372	53248	0	1	2	53248	1	53248	1	53248	1	0.7	53248	purple	turquoise	1	10	ml	2.7.3	bip	sub-17_ses-02_task-ml_proj-bip_2021-03-17-10-39-54.484194
48	17	2	1	49	volatile	2	40	9	vs	purple	turquoise	turquoise	purple	right	left	0.30000000000000004	0.7	6	4	1.8000000000000005	2.8	0	1	0.7	0.30000000000000004	4	6	2.8	1.8000000000000005	valid	0.2999456689994986	51200	0	0	2	51200	1	51200	1	53248	0	0.7	51200	purple	turquoise	0	4	ml	2.7.3	bip	sub-17_ses-02_task-ml_proj-bip_2021-03-17-10-39-54.484194
49	17	2	1	50	volatile	2	40	10	vs	turquoise	purple	turquoise	purple	left	right	0.30000000000000004	0.7	6	4	1.8000000000000005	2.8	0	1	0.30000000000000004	0.7	6	4	1.8000000000000005	2.8	valid	0.3832573400013644	53248	0	1	2	53248	1	53248	1	51200	0	0.7	53248	purple	turquoise	0	4	ml	2.7.3	bip	sub-17_ses-02_task-ml_proj-bip_2021-03-17-10-39-54.484194
50	17	2	2	51	volatile	2	40	11	vs	purple	turquoise	turquoise	purple	right	left	0.30000000000000004	0.7	4	2	1.2000000000000002	1.4	0	1	0.7	0.30000000000000004	2	4	1.4	1.2000000000000002	valid	0.6331930570013355	53248	0	1	1	51200	0	51200	0	53248	1	0.7	51200	purple	turquoise	0	0	ml	2.7.3	bip	sub-17_ses-02_task-ml_proj-bip_2021-03-17-10-39-54.484194
51	17	2	2	52	volatile	2	40	12	vs	purple	turquoise	turquoise	purple	right	left	0.30000000000000004	0.7	2	4	0.6000000000000001	2.8	1	0	0.7	0.30000000000000004	4	2	2.8	0.6000000000000001	invalid	0.3665987009990204	53248	0	1	1	51200	0	51200	0	51200	0	0.7	51200	purple	turquoise	1	2	ml	2.7.3	bip	sub-17_ses-02_task-ml_proj-bip_2021-03-17-10-39-54.484194
52	17	2	2	53	volatile	2	40	13	vs	purple	turquoise	turquoise	purple	right	left	0.30000000000000004	0.7	6	4	1.8000000000000005	2.8	1	0	0.7	0.30000000000000004	4	6	2.8	1.8000000000000005	invalid	0.3332746500000212	53248	0	1	1	51200	0	51200	0	53248	1	0.7	51200	purple	turquoise	0	6	ml	2.7.3	bip	sub-17_ses-02_task-ml_proj-bip_2021-03-17-10-39-54.484194
53	17	2	2	54	volatile	2	40	14	vs	turquoise	purple	turquoise	purple	left	right	0.30000000000000004	0.7	6	2	1.8000000000000005	1.4	1	0	0.30000000000000004	0.7	6	2	1.8000000000000005	1.4	invalid	0.31660444000044663	51200	0	0	1	51200	1	53248	0	51200	1	0.7	53248	purple	turquoise	0	6	ml	2.7.3	bip	sub-17_ses-02_task-ml_proj-bip_2021-03-17-10-39-54.484194
54	17	2	2	55	volatile	2	40	15	vs	turquoise	purple	turquoise	purple	left	right	0.30000000000000004	0.7	10	2	3.0000000000000004	1.4	1	0	0.30000000000000004	0.7	10	2	3.0000000000000004	1.4	invalid	0.3999073300001328	51200	0	0	1	51200	1	53248	0	51200	1	0.7	53248	purple	turquoise	0	10	ml	2.7.3	bip	sub-17_ses-02_task-ml_proj-bip_2021-03-17-10-39-54.484194
55	17	2	2	56	volatile	2	40	16	vs	turquoise	purple	turquoise	purple	left	right	0.30000000000000004	0.7	6	2	1.8000000000000005	1.4	0	1	0.30000000000000004	0.7	6	2	1.8000000000000005	1.4	valid	0.33326109100016765	51200	0	0	1	51200	1	53248	0	51200	1	0.7	53248	purple	turquoise	0	0	ml	2.7.3	bip	sub-17_ses-02_task-ml_proj-bip_2021-03-17-10-39-54.484194
56	17	2	2	57	volatile	2	40	17	vs	turquoise	purple	turquoise	purple	left	right	0.30000000000000004	0.7	6	4	1.8000000000000005	2.8	1	0	0.30000000000000004	0.7	6	4	1.8000000000000005	2.8	invalid	0.3499238479998894	51200	0	0	1	53248	0	53248	0	51200	1	0.7	53248	purple	turquoise	0	6	ml	2.7.3	bip	sub-17_ses-02_task-ml_proj-bip_2021-03-17-10-39-54.484194
57	17	2	2	58	volatile	2	40	18	vs	turquoise	purple	turquoise	purple	left	right	0.30000000000000004	0.7	2	2	0.6000000000000001	1.4	0	1	0.30000000000000004	0.7	2	2	0.6000000000000001	1.4	valid	0.3499222509999527	51200	0	0	1	53248	0	53248	0	53248	0	0.7	53248	purple	turquoise	0	0	ml	2.7.3	bip	sub-17_ses-02_task-ml_proj-bip_2021-03-17-10-39-54.484194
58	17	2	2	59	volatile	2	40	19	vs	purple	turquoise	turquoise	purple	right	left	0.30000000000000004	0.7	6	4	1.8000000000000005	2.8	0	1	0.7	0.30000000000000004	4	6	2.8	1.8000000000000005	valid	0.3332743720002327	53248	0	1	1	51200	0	51200	0	53248	1	0.7	51200	purple	turquoise	0	0	ml	2.7.3	bip	sub-17_ses-02_task-ml_proj-bip_2021-03-17-10-39-54.484194
59	17	2	2	60	volatile	2	40	20	vs	turquoise	purple	turquoise	purple	left	right	0.30000000000000004	0.7	10	2	3.0000000000000004	1.4	0	1	0.30000000000000004	0.7	10	2	3.0000000000000004	1.4	valid	0.3332755190003809	53248	0	1	2	51200	0	53248	1	51200	0	0.7	53248	purple	turquoise	0	2	ml	2.7.3	bip	sub-17_ses-02_task-ml_proj-bip_2021-03-17-10-39-54.484194
60	17	2	2	61	volatile	2	40	21	vs	purple	turquoise	turquoise	purple	right	left	0.30000000000000004	0.7	2	6	0.6000000000000001	4.199999999999998	1	0	0.7	0.30000000000000004	6	2	4.199999999999998	0.6000000000000001	invalid	0.3499305130007997	51200	0	0	2	51200	1	51200	1	51200	1	0.7	51200	purple	turquoise	1	0	ml	2.7.3	bip	sub-17_ses-02_task-ml_proj-bip_2021-03-17-10-39-54.484194
61	17	2	2	62	volatile	2	40	22	vs	turquoise	purple	turquoise	purple	left	right	0.30000000000000004	0.7	4	6	1.2000000000000002	4.199999999999998	1	0	0.30000000000000004	0.7	4	6	1.2000000000000002	4.199999999999998	invalid	0.3499350330002926	53248	0	1	2	53248	1	53248	1	53248	1	0.7	53248	purple	turquoise	1	0	ml	2.7.3	bip	sub-17_ses-02_task-ml_proj-bip_2021-03-17-10-39-54.484194
62	17	2	2	63	volatile	2	40	23	vs	purple	turquoise	turquoise	purple	right	left	0.30000000000000004	0.7	4	2	1.2000000000000002	1.4	0	1	0.7	0.30000000000000004	2	4	1.4	1.2000000000000002	valid	0.3499373699996795	53248	0	1	1	51200	0	51200	0	53248	1	0.7	51200	purple	turquoise	0	0	ml	2.7.3	bip	sub-17_ses-02_task-ml_proj-bip_2021-03-17-10-39-54.484194
63	17	2	2	64	volatile	2	40	24	vs	purple	turquoise	turquoise	purple	right	left	0.30000000000000004	0.7	2	4	0.6000000000000001	2.8	0	1	0.7	0.30000000000000004	4	2	2.8	0.6000000000000001	valid	0.5165541250007664	53248	0	1	1	51200	0	51200	0	51200	0	0.7	51200	purple	turquoise	1	0	ml	2.7.3	bip	sub-17_ses-02_task-ml_proj-bip_2021-03-17-10-39-54.484194
64	17	2	2	65	volatile	2	40	25	vs	purple	turquoise	turquoise	purple	right	left	0.30000000000000004	0.7	4	2	1.2000000000000002	1.4	0	1	0.7	0.30000000000000004	2	4	1.4	1.2000000000000002	valid	0.3332619969987718	51200	0	0	2	51200	1	51200	1	53248	0	0.7	51200	purple	turquoise	0	2	ml	2.7.3	bip	sub-17_ses-02_task-ml_proj-bip_2021-03-17-10-39-54.484194
65	17	2	2	66	volatile	2	40	26	vs	purple	turquoise	turquoise	purple	right	left	0.30000000000000004	0.7	4	2	1.2000000000000002	1.4	0	1	0.7	0.30000000000000004	2	4	1.4	1.2000000000000002	valid	0.3832513979996293	51200	0	0	2	51200	1	51200	1	53248	0	0.7	51200	purple	turquoise	0	2	ml	2.7.3	bip	sub-17_ses-02_task-ml_proj-bip_2021-03-17-10-39-54.484194
66	17	2	2	67	volatile	2	40	27	vs	turquoise	purple	turquoise	purple	left	right	0.30000000000000004	0.7	6	4	1.8000000000000005	2.8	0	1	0.30000000000000004	0.7	6	4	1.8000000000000005	2.8	valid	0.3499363210012234	53248	0	1	2	53248	1	53248	1	51200	0	0.7	53248	purple	turquoise	0	4	ml	2.7.3	bip	sub-17_ses-02_task-ml_proj-bip_2021-03-17-10-39-54.484194
67	17	2	2	68	volatile	2	40	28	vs	turquoise	purple	turquoise	purple	left	right	0.30000000000000004	0.7	2	2	0.6000000000000001	1.4	0	1	0.30000000000000004	0.7	2	2	0.6000000000000001	1.4	valid	0.31661112799883995	53248	0	1	2	53248	1	53248	1	53248	1	0.7	53248	purple	turquoise	0	2	ml	2.7.3	bip	sub-17_ses-02_task-ml_proj-bip_2021-03-17-10-39-54.484194
68	17	2	2	69	volatile	2	40	29	vs	turquoise	purple	turquoise	purple	left	right	0.30000000000000004	0.7	2	6	0.6000000000000001	4.199999999999998	1	0	0.30000000000000004	0.7	2	6	0.6000000000000001	4.199999999999998	invalid	0.316610292000405	53248	0	1	2	53248	1	53248	1	53248	1	0.7	53248	purple	turquoise	1	0	ml	2.7.3	bip	sub-17_ses-02_task-ml_proj-bip_2021-03-17-10-39-54.484194
69	17	2	2	70	volatile	2	40	30	vs	turquoise	purple	turquoise	purple	left	right	0.30000000000000004	0.7	4	2	1.2000000000000002	1.4	0	1	0.30000000000000004	0.7	4	2	1.2000000000000002	1.4	valid	0.6165271059999213	53248	0	1	2	53248	1	53248	1	51200	0	0.7	53248	purple	turquoise	0	2	ml	2.7.3	bip	sub-17_ses-02_task-ml_proj-bip_2021-03-17-10-39-54.484194
70	17	2	2	71	volatile	2	40	31	vs	purple	turquoise	turquoise	purple	right	left	0.30000000000000004	0.7	6	6	1.8000000000000005	4.199999999999998	1	0	0.7	0.30000000000000004	6	6	4.199999999999998	1.8000000000000005	invalid	0.5498702940003568	51200	0	0	2	51200	1	51200	1	53248	0	0.7	51200	purple	turquoise	1	0	ml	2.7.3	bip	sub-17_ses-02_task-ml_proj-bip_2021-03-17-10-39-54.484194
71	17	2	2	72	volatile	2	40	32	vs	turquoise	purple	turquoise	purple	left	right	0.30000000000000004	0.7	6	4	1.8000000000000005	2.8	0	1	0.30000000000000004	0.7	6	4	1.8000000000000005	2.8	valid	0.3665987189997395	53248	0	1	2	53248	1	53248	1	51200	0	0.7	53248	purple	turquoise	0	4	ml	2.7.3	bip	sub-17_ses-02_task-ml_proj-bip_2021-03-17-10-39-54.484194
72	17	2	2	73	volatile	2	40	33	vs	purple	turquoise	turquoise	purple	right	left	0.30000000000000004	0.7	2	10	0.6000000000000001	7.0	0	1	0.7	0.30000000000000004	10	2	7.0	0.6000000000000001	valid	0.3999098200001754	51200	0	0	2	51200	1	51200	1	51200	1	0.7	51200	purple	turquoise	1	10	ml	2.7.3	bip	sub-17_ses-02_task-ml_proj-bip_2021-03-17-10-39-54.484194
73	17	2	2	74	volatile	2	40	34	vs	turquoise	purple	turquoise	purple	left	right	0.30000000000000004	0.7	6	6	1.8000000000000005	4.199999999999998	0	1	0.30000000000000004	0.7	6	6	1.8000000000000005	4.199999999999998	valid	0.333273864000148	53248	0	1	2	53248	1	53248	1	53248	1	0.7	53248	purple	turquoise	0	6	ml	2.7.3	bip	sub-17_ses-02_task-ml_proj-bip_2021-03-17-10-39-54.484194
74	17	2	2	75	volatile	2	40	35	vs	purple	turquoise	turquoise	purple	right	left	0.30000000000000004	0.7	6	2	1.8000000000000005	1.4	0	1	0.7	0.30000000000000004	2	6	1.4	1.8000000000000005	valid	0.3332634070011409	51200	0	0	2	53248	0	51200	1	53248	0	0.7	51200	purple	turquoise	0	2	ml	2.7.3	bip	sub-17_ses-02_task-ml_proj-bip_2021-03-17-10-39-54.484194
75	17	2	2	76	volatile	2	40	36	vs	turquoise	purple	turquoise	purple	left	right	0.30000000000000004	0.7	2	6	0.6000000000000001	4.199999999999998	0	1	0.30000000000000004	0.7	2	6	0.6000000000000001	4.199999999999998	valid	0.3332732480012055	53248	0	1	2	53248	1	53248	1	53248	1	0.7	53248	purple	turquoise	1	6	ml	2.7.3	bip	sub-17_ses-02_task-ml_proj-bip_2021-03-17-10-39-54.484194
76	17	2	2	77	volatile	2	40	37	vs	turquoise	purple	turquoise	purple	left	right	0.30000000000000004	0.7	2	10	0.6000000000000001	7.0	0	1	0.30000000000000004	0.7	2	10	0.6000000000000001	7.0	valid	0.3499349520006945	53248	0	1	2	53248	1	53248	1	53248	1	0.7	53248	purple	turquoise	1	10	ml	2.7.3	bip	sub-17_ses-02_task-ml_proj-bip_2021-03-17-10-39-54.484194
77	17	2	2	78	volatile	2	40	38	vs	purple	turquoise	turquoise	purple	right	left	0.30000000000000004	0.7	2	2	0.6000000000000001	1.4	0	1	0.7	0.30000000000000004	2	2	1.4	0.6000000000000001	valid	0.36658652699952654	51200	0	0	2	51200	1	51200	1	53248	0	0.7	51200	purple	turquoise	1	2	ml	2.7.3	bip	sub-17_ses-02_task-ml_proj-bip_2021-03-17-10-39-54.484194
78	17	2	2	79	volatile	2	40	39	vs	purple	turquoise	turquoise	purple	right	left	0.30000000000000004	0.7	2	10	0.6000000000000001	7.0	1	0	0.7	0.30000000000000004	10	2	7.0	0.6000000000000001	invalid	0.3665847040010704	51200	0	0	2	51200	1	51200	1	51200	1	0.7	51200	purple	turquoise	1	0	ml	2.7.3	bip	sub-17_ses-02_task-ml_proj-bip_2021-03-17-10-39-54.484194
79	17	2	2	80	volatile	2	40	40	vs	purple	turquoise	turquoise	purple	right	left	0.30000000000000004	0.7	10	2	3.0000000000000004	1.4	0	1	0.7	0.30000000000000004	2	10	1.4	3.0000000000000004	valid	0.38325021200034826	51200	0	0	2	53248	0	51200	1	53248	0	0.7	51200	purple	turquoise	0	2	ml	2.7.3	bip	sub-17_ses-02_task-ml_proj-bip_2021-03-17-10-39-54.484194
80	17	2	2	81	volatile	3	20	1	vs	turquoise	purple	turquoise	purple	left	right	0.7	0.30000000000000004	10	2	7.0	0.6000000000000001	1	0	0.7	0.30000000000000004	10	2	7.0	0.6000000000000001	valid	0.29995024199888576	53248	0	1	2	51200	0	51200	0	51200	0	0.7	51200	turquoise	purple	1	0	ml	2.7.3	bip	sub-17_ses-02_task-ml_proj-bip_2021-03-17-10-39-54.484194
81	17	2	2	82	volatile	3	20	2	vs	purple	turquoise	turquoise	purple	right	left	0.7	0.30000000000000004	6	2	4.199999999999998	0.6000000000000001	1	0	0.30000000000000004	0.7	2	6	0.6000000000000001	4.199999999999998	valid	0.3665860029996111	51200	0	0	2	53248	0	53248	0	53248	0	0.7	53248	turquoise	purple	1	0	ml	2.7.3	bip	sub-17_ses-02_task-ml_proj-bip_2021-03-17-10-39-54.484194
82	17	2	2	83	volatile	3	20	3	vs	purple	turquoise	turquoise	purple	right	left	0.7	0.30000000000000004	2	4	1.4	1.2000000000000002	1	0	0.30000000000000004	0.7	4	2	1.2000000000000002	1.4	valid	0.3832604800008994	53248	0	1	1	53248	1	53248	1	51200	0	0.7	53248	turquoise	purple	0	2	ml	2.7.3	bip	sub-17_ses-02_task-ml_proj-bip_2021-03-17-10-39-54.484194
83	17	2	2	84	volatile	3	20	4	vs	turquoise	purple	turquoise	purple	left	right	0.7	0.30000000000000004	4	2	2.8	0.6000000000000001	1	0	0.7	0.30000000000000004	4	2	2.8	0.6000000000000001	valid	0.399911043999964	51200	0	0	1	51200	1	51200	1	51200	1	0.7	51200	turquoise	purple	1	4	ml	2.7.3	bip	sub-17_ses-02_task-ml_proj-bip_2021-03-17-10-39-54.484194
84	17	2	2	85	volatile	3	20	5	vs	turquoise	purple	turquoise	purple	left	right	0.7	0.30000000000000004	2	2	1.4	0.6000000000000001	0	1	0.7	0.30000000000000004	2	2	1.4	0.6000000000000001	invalid	0.38325586700011627	51200	0	0	1	51200	1	51200	1	53248	0	0.7	51200	turquoise	purple	1	0	ml	2.7.3	bip	sub-17_ses-02_task-ml_proj-bip_2021-03-17-10-39-54.484194
85	17	2	2	86	volatile	3	20	6	vs	purple	turquoise	turquoise	purple	right	left	0.7	0.30000000000000004	4	2	2.8	0.6000000000000001	1	0	0.30000000000000004	0.7	2	4	0.6000000000000001	2.8	valid	0.3166133450013149	53248	0	1	1	53248	1	53248	1	53248	1	0.7	53248	turquoise	purple	1	4	ml	2.7.3	bip	sub-17_ses-02_task-ml_proj-bip_2021-03-17-10-39-54.484194
86	17	2	2	87	volatile	3	20	7	vs	purple	turquoise	turquoise	purple	right	left	0.7	0.30000000000000004	6	4	4.199999999999998	1.2000000000000002	0	1	0.30000000000000004	0.7	4	6	1.2000000000000002	4.199999999999998	invalid	0.34993571799896017	53248	0	1	1	53248	1	53248	1	53248	1	0.7	53248	turquoise	purple	1	0	ml	2.7.3	bip	sub-17_ses-02_task-ml_proj-bip_2021-03-17-10-39-54.484194
87	17	2	2	88	volatile	3	20	8	vs	purple	turquoise	turquoise	purple	right	left	0.7	0.30000000000000004	2	2	1.4	0.6000000000000001	1	0	0.30000000000000004	0.7	2	2	0.6000000000000001	1.4	valid	0.2999537640007475	53248	0	1	1	53248	1	53248	1	53248	1	0.7	53248	turquoise	purple	0	2	ml	2.7.3	bip	sub-17_ses-02_task-ml_proj-bip_2021-03-17-10-39-54.484194
88	17	2	2	89	volatile	3	20	9	vs	turquoise	purple	turquoise	purple	left	right	0.7	0.30000000000000004	2	10	1.4	3.0000000000000004	1	0	0.7	0.30000000000000004	2	10	1.4	3.0000000000000004	valid	0.3832501100005175	51200	0	0	1	53248	0	51200	1	53248	0	0.7	51200	turquoise	purple	0	2	ml	2.7.3	bip	sub-17_ses-02_task-ml_proj-bip_2021-03-17-10-39-54.484194
89	17	2	2	90	volatile	3	20	10	vs	purple	turquoise	turquoise	purple	right	left	0.7	0.30000000000000004	4	2	2.8	0.6000000000000001	1	0	0.30000000000000004	0.7	2	4	0.6000000000000001	2.8	valid	0.3332736870015651	53248	0	1	1	53248	1	53248	1	53248	1	0.7	53248	turquoise	purple	1	4	ml	2.7.3	bip	sub-17_ses-02_task-ml_proj-bip_2021-03-17-10-39-54.484194
90	17	2	2	91	volatile	3	20	11	vs	purple	turquoise	turquoise	purple	right	left	0.7	0.30000000000000004	2	6	1.4	1.8000000000000005	0	1	0.30000000000000004	0.7	6	2	1.8000000000000005	1.4	invalid	0.3999247070005367	53248	0	1	1	51200	0	53248	1	51200	0	0.7	53248	turquoise	purple	0	0	ml	2.7.3	bip	sub-17_ses-02_task-ml_proj-bip_2021-03-17-10-39-54.484194
91	17	2	2	92	volatile	3	20	12	vs	purple	turquoise	turquoise	purple	right	left	0.7	0.30000000000000004	6	2	4.199999999999998	0.6000000000000001	1	0	0.30000000000000004	0.7	2	6	0.6000000000000001	4.199999999999998	valid	0.3332748960001481	53248	0	1	1	53248	1	53248	1	53248	1	0.7	53248	turquoise	purple	1	6	ml	2.7.3	bip	sub-17_ses-02_task-ml_proj-bip_2021-03-17-10-39-54.484194
92	17	2	2	93	volatile	3	20	13	vs	purple	turquoise	turquoise	purple	right	left	0.7	0.30000000000000004	6	6	4.199999999999998	1.8000000000000005	0	1	0.30000000000000004	0.7	6	6	1.8000000000000005	4.199999999999998	invalid	0.6331800160005514	53248	0	1	1	53248	1	53248	1	53248	1	0.7	53248	turquoise	purple	0	0	ml	2.7.3	bip	sub-17_ses-02_task-ml_proj-bip_2021-03-17-10-39-54.484194
93	17	2	2	94	volatile	3	20	14	vs	turquoise	purple	turquoise	purple	left	right	0.7	0.30000000000000004	6	4	4.199999999999998	1.2000000000000002	0	1	0.7	0.30000000000000004	6	4	4.199999999999998	1.2000000000000002	invalid	0.3499273549987265	51200	0	0	1	51200	1	51200	1	51200	1	0.7	51200	turquoise	purple	1	0	ml	2.7.3	bip	sub-17_ses-02_task-ml_proj-bip_2021-03-17-10-39-54.484194
94	17	2	2	95	volatile	3	20	15	vs	turquoise	purple	turquoise	purple	left	right	0.7	0.30000000000000004	2	10	1.4	3.0000000000000004	1	0	0.7	0.30000000000000004	2	10	1.4	3.0000000000000004	valid	0.3332760449993657	53248	0	1	2	53248	1	51200	0	53248	1	0.7	51200	turquoise	purple	0	0	ml	2.7.3	bip	sub-17_ses-02_task-ml_proj-bip_2021-03-17-10-39-54.484194
95	17	2	2	96	volatile	3	20	16	vs	turquoise	purple	turquoise	purple	left	right	0.7	0.30000000000000004	10	2	7.0	0.6000000000000001	0	1	0.7	0.30000000000000004	10	2	7.0	0.6000000000000001	invalid	0.3166106599983323	53248	0	1	2	51200	0	51200	0	51200	0	0.7	51200	turquoise	purple	1	2	ml	2.7.3	bip	sub-17_ses-02_task-ml_proj-bip_2021-03-17-10-39-54.484194
96	17	2	2	97	volatile	3	20	17	vs	purple	turquoise	turquoise	purple	right	left	0.7	0.30000000000000004	6	6	4.199999999999998	1.8000000000000005	1	0	0.30000000000000004	0.7	6	6	1.8000000000000005	4.199999999999998	valid	0.3166004279992194	51200	0	0	2	53248	0	53248	0	53248	0	0.7	53248	turquoise	purple	0	0	ml	2.7.3	bip	sub-17_ses-02_task-ml_proj-bip_2021-03-17-10-39-54.484194
97	17	2	2	98	volatile	3	20	18	vs	turquoise	purple	turquoise	purple	left	right	0.7	0.30000000000000004	6	2	4.199999999999998	0.6000000000000001	1	0	0.7	0.30000000000000004	6	2	4.199999999999998	0.6000000000000001	valid	0.3665835669999069	51200	0	0	1	51200	1	51200	1	51200	1	0.7	51200	turquoise	purple	1	6	ml	2.7.3	bip	sub-17_ses-02_task-ml_proj-bip_2021-03-17-10-39-54.484194
98	17	2	2	99	volatile	3	20	19	vs	turquoise	purple	turquoise	purple	left	right	0.7	0.30000000000000004	4	6	2.8	1.8000000000000005	1	0	0.7	0.30000000000000004	4	6	2.8	1.8000000000000005	valid	0.3999108569987584	51200	0	0	1	51200	1	51200	1	53248	0	0.7	51200	turquoise	purple	0	4	ml	2.7.3	bip	sub-17_ses-02_task-ml_proj-bip_2021-03-17-10-39-54.484194
99	17	2	2	100	volatile	3	20	20	vs	turquoise	purple	turquoise	purple	left	right	0.7	0.30000000000000004	6	4	4.199999999999998	1.2000000000000002	1	0	0.7	0.30000000000000004	6	4	4.199999999999998	1.2000000000000002	valid	0.3332611089990678	51200	0	0	1	51200	1	51200	1	51200	1	0.7	51200	turquoise	purple	1	6	ml	2.7.3	bip	sub-17_ses-02_task-ml_proj-bip_2021-03-17-10-39-54.484194
100	17	2	3	101	volatile	4	20	1	vs	purple	turquoise	turquoise	purple	right	left	0.30000000000000004	0.7	2	4	0.6000000000000001	2.8	1	0	0.7	0.30000000000000004	4	2	2.8	0.6000000000000001	invalid	1.1497031100007007	53248	0	1	1	51200	0	51200	0	51200	0	0.7	51200	purple	turquoise	1	2	ml	2.7.3	bip	sub-17_ses-02_task-ml_proj-bip_2021-03-17-10-39-54.484194
101	17	2	3	102	volatile	4	20	2	vs	turquoise	purple	turquoise	purple	left	right	0.30000000000000004	0.7	6	6	1.8000000000000005	4.199999999999998	1	0	0.30000000000000004	0.7	6	6	1.8000000000000005	4.199999999999998	invalid	0.38325668499965104	51200	0	0	1	53248	0	53248	0	53248	0	0.7	53248	purple	turquoise	0	6	ml	2.7.3	bip	sub-17_ses-02_task-ml_proj-bip_2021-03-17-10-39-54.484194
102	17	2	3	103	volatile	4	20	3	vs	turquoise	purple	turquoise	purple	left	right	0.30000000000000004	0.7	6	2	1.8000000000000005	1.4	0	1	0.30000000000000004	0.7	6	2	1.8000000000000005	1.4	valid	0.3665878320007323	51200	0	0	1	51200	1	53248	0	51200	1	0.7	53248	purple	turquoise	0	0	ml	2.7.3	bip	sub-17_ses-02_task-ml_proj-bip_2021-03-17-10-39-54.484194
103	17	2	3	104	volatile	4	20	4	vs	turquoise	purple	turquoise	purple	left	right	0.30000000000000004	0.7	4	6	1.2000000000000002	4.199999999999998	0	1	0.30000000000000004	0.7	4	6	1.2000000000000002	4.199999999999998	valid	0.3332674339999357	51200	0	0	1	53248	0	53248	0	53248	0	0.7	53248	purple	turquoise	1	0	ml	2.7.3	bip	sub-17_ses-02_task-ml_proj-bip_2021-03-17-10-39-54.484194
104	17	2	3	105	volatile	4	20	5	vs	purple	turquoise	turquoise	purple	right	left	0.30000000000000004	0.7	4	2	1.2000000000000002	1.4	0	1	0.7	0.30000000000000004	2	4	1.4	1.2000000000000002	valid	0.2999508649991185	53248	0	1	1	51200	0	51200	0	53248	1	0.7	51200	purple	turquoise	0	0	ml	2.7.3	bip	sub-17_ses-02_task-ml_proj-bip_2021-03-17-10-39-54.484194
105	17	2	3	106	volatile	4	20	6	vs	purple	turquoise	turquoise	purple	right	left	0.30000000000000004	0.7	10	2	3.0000000000000004	1.4	0	1	0.7	0.30000000000000004	2	10	1.4	3.0000000000000004	valid	0.2999365069990745	51200	0	0	2	53248	0	51200	1	53248	0	0.7	51200	purple	turquoise	0	2	ml	2.7.3	bip	sub-17_ses-02_task-ml_proj-bip_2021-03-17-10-39-54.484194
106	17	2	3	107	volatile	4	20	7	vs	purple	turquoise	turquoise	purple	right	left	0.30000000000000004	0.7	2	2	0.6000000000000001	1.4	0	1	0.7	0.30000000000000004	2	2	1.4	0.6000000000000001	valid	0.3665776239995466	51200	0	0	2	51200	1	51200	1	53248	0	0.7	51200	purple	turquoise	1	2	ml	2.7.3	bip	sub-17_ses-02_task-ml_proj-bip_2021-03-17-10-39-54.484194
107	17	2	3	108	volatile	4	20	8	vs	purple	turquoise	turquoise	purple	right	left	0.30000000000000004	0.7	4	6	1.2000000000000002	4.199999999999998	0	1	0.7	0.30000000000000004	6	4	4.199999999999998	1.2000000000000002	valid	0.3332643329995335	51200	0	0	2	51200	1	51200	1	51200	1	0.7	51200	purple	turquoise	1	6	ml	2.7.3	bip	sub-17_ses-02_task-ml_proj-bip_2021-03-17-10-39-54.484194
108	17	2	3	109	volatile	4	20	9	vs	purple	turquoise	turquoise	purple	right	left	0.30000000000000004	0.7	6	6	1.8000000000000005	4.199999999999998	0	1	0.7	0.30000000000000004	6	6	4.199999999999998	1.8000000000000005	valid	0.41657894699892495	51200	0	0	2	51200	1	51200	1	53248	0	0.7	51200	purple	turquoise	1	6	ml	2.7.3	bip	sub-17_ses-02_task-ml_proj-bip_2021-03-17-10-39-54.484194
109	17	2	3	110	volatile	4	20	10	vs	turquoise	purple	turquoise	purple	left	right	0.30000000000000004	0.7	4	2	1.2000000000000002	1.4	0	1	0.30000000000000004	0.7	4	2	1.2000000000000002	1.4	valid	0.33326864300033776	53248	0	1	2	53248	1	53248	1	51200	0	0.7	53248	purple	turquoise	0	2	ml	2.7.3	bip	sub-17_ses-02_task-ml_proj-bip_2021-03-17-10-39-54.484194
110	17	2	3	111	volatile	4	20	11	vs	purple	turquoise	turquoise	purple	right	left	0.30000000000000004	0.7	2	10	0.6000000000000001	7.0	1	0	0.7	0.30000000000000004	10	2	7.0	0.6000000000000001	invalid	0.3665951879993372	51200	0	0	2	51200	1	51200	1	51200	1	0.7	51200	purple	turquoise	1	0	ml	2.7.3	bip	sub-17_ses-02_task-ml_proj-bip_2021-03-17-10-39-54.484194
111	17	2	3	112	volatile	4	20	12	vs	turquoise	purple	turquoise	purple	left	right	0.30000000000000004	0.7	10	2	3.0000000000000004	1.4	0	1	0.30000000000000004	0.7	10	2	3.0000000000000004	1.4	valid	0.4332414230011637	53248	0	1	2	51200	0	53248	1	51200	0	0.7	53248	purple	turquoise	0	2	ml	2.7.3	bip	sub-17_ses-02_task-ml_proj-bip_2021-03-17-10-39-54.484194
112	17	2	3	113	volatile	4	20	13	vs	turquoise	purple	turquoise	purple	left	right	0.30000000000000004	0.7	2	4	0.6000000000000001	2.8	1	0	0.30000000000000004	0.7	2	4	0.6000000000000001	2.8	invalid	0.36658854199959023	53248	0	1	2	53248	1	53248	1	53248	1	0.7	53248	purple	turquoise	1	0	ml	2.7.3	bip	sub-17_ses-02_task-ml_proj-bip_2021-03-17-10-39-54.484194
113	17	2	3	114	volatile	4	20	14	vs	turquoise	purple	turquoise	purple	left	right	0.30000000000000004	0.7	6	4	1.8000000000000005	2.8	0	1	0.30000000000000004	0.7	6	4	1.8000000000000005	2.8	valid	0.5332156059994304	53248	0	1	2	53248	1	53248	1	51200	0	0.7	53248	purple	turquoise	0	4	ml	2.7.3	bip	sub-17_ses-02_task-ml_proj-bip_2021-03-17-10-39-54.484194
114	17	2	3	115	volatile	4	20	15	vs	turquoise	purple	turquoise	purple	left	right	0.30000000000000004	0.7	4	6	1.2000000000000002	4.199999999999998	0	1	0.30000000000000004	0.7	4	6	1.2000000000000002	4.199999999999998	valid	0.3832598150002013	53248	0	1	2	53248	1	53248	1	53248	1	0.7	53248	purple	turquoise	1	6	ml	2.7.3	bip	sub-17_ses-02_task-ml_proj-bip_2021-03-17-10-39-54.484194
115	17	2	3	116	volatile	4	20	16	vs	turquoise	purple	turquoise	purple	left	right	0.30000000000000004	0.7	6	2	1.8000000000000005	1.4	1	0	0.30000000000000004	0.7	6	2	1.8000000000000005	1.4	invalid	0.3166142629997921	53248	0	1	2	51200	0	53248	1	51200	0	0.7	53248	purple	turquoise	0	0	ml	2.7.3	bip	sub-17_ses-02_task-ml_proj-bip_2021-03-17-10-39-54.484194
116	17	2	3	117	volatile	4	20	17	vs	purple	turquoise	turquoise	purple	right	left	0.30000000000000004	0.7	6	2	1.8000000000000005	1.4	0	1	0.7	0.30000000000000004	2	6	1.4	1.8000000000000005	valid	0.39991216599992185	51200	0	0	2	53248	0	51200	1	53248	0	0.7	51200	purple	turquoise	0	2	ml	2.7.3	bip	sub-17_ses-02_task-ml_proj-bip_2021-03-17-10-39-54.484194
117	17	2	3	118	volatile	4	20	18	vs	purple	turquoise	turquoise	purple	right	left	0.30000000000000004	0.7	6	2	1.8000000000000005	1.4	0	1	0.7	0.30000000000000004	2	6	1.4	1.8000000000000005	valid	0.3332625200000621	51200	0	0	2	53248	0	51200	1	53248	0	0.7	51200	purple	turquoise	0	2	ml	2.7.3	bip	sub-17_ses-02_task-ml_proj-bip_2021-03-17-10-39-54.484194
118	17	2	3	119	volatile	4	20	19	vs	purple	turquoise	turquoise	purple	right	left	0.30000000000000004	0.7	2	2	0.6000000000000001	1.4	1	0	0.7	0.30000000000000004	2	2	1.4	0.6000000000000001	invalid	0.3499326569999539	51200	0	0	2	51200	1	51200	1	53248	0	0.7	51200	purple	turquoise	1	0	ml	2.7.3	bip	sub-17_ses-02_task-ml_proj-bip_2021-03-17-10-39-54.484194
119	17	2	3	120	volatile	4	20	20	vs	turquoise	purple	turquoise	purple	left	right	0.30000000000000004	0.7	2	10	0.6000000000000001	7.0	0	1	0.30000000000000004	0.7	2	10	0.6000000000000001	7.0	valid	0.4665666569999303	53248	0	1	2	53248	1	53248	1	53248	1	0.7	53248	purple	turquoise	1	10	ml	2.7.3	bip	sub-17_ses-02_task-ml_proj-bip_2021-03-17-10-39-54.484194
120	17	2	3	121	volatile	5	40	1	vs	turquoise	purple	turquoise	purple	left	right	0.7	0.30000000000000004	2	2	1.4	0.6000000000000001	1	0	0.7	0.30000000000000004	2	2	1.4	0.6000000000000001	valid	0.3665990890003741	53248	0	1	2	51200	0	51200	0	53248	1	0.7	51200	turquoise	purple	1	0	ml	2.7.3	bip	sub-17_ses-02_task-ml_proj-bip_2021-03-17-10-39-54.484194
121	17	2	3	122	volatile	5	40	2	vs	turquoise	purple	turquoise	purple	left	right	0.7	0.30000000000000004	6	6	4.199999999999998	1.8000000000000005	0	1	0.7	0.30000000000000004	6	6	4.199999999999998	1.8000000000000005	invalid	0.3499399270003778	53248	0	1	2	51200	0	51200	0	53248	1	0.7	51200	turquoise	purple	1	6	ml	2.7.3	bip	sub-17_ses-02_task-ml_proj-bip_2021-03-17-10-39-54.484194
122	17	2	3	123	volatile	5	40	3	vs	purple	turquoise	turquoise	purple	right	left	0.7	0.30000000000000004	6	2	4.199999999999998	0.6000000000000001	1	0	0.30000000000000004	0.7	2	6	0.6000000000000001	4.199999999999998	valid	0.4165720000000874	51200	0	0	2	53248	0	53248	0	53248	0	0.7	53248	turquoise	purple	1	0	ml	2.7.3	bip	sub-17_ses-02_task-ml_proj-bip_2021-03-17-10-39-54.484194
123	17	2	3	124	volatile	5	40	4	vs	turquoise	purple	turquoise	purple	left	right	0.7	0.30000000000000004	4	6	2.8	1.8000000000000005	1	0	0.7	0.30000000000000004	4	6	2.8	1.8000000000000005	valid	0.4998817380001128	51200	0	0	1	51200	1	51200	1	53248	0	0.7	51200	turquoise	purple	0	4	ml	2.7.3	bip	sub-17_ses-02_task-ml_proj-bip_2021-03-17-10-39-54.484194
124	17	2	3	125	volatile	5	40	5	vs	turquoise	purple	turquoise	purple	left	right	0.7	0.30000000000000004	6	2	4.199999999999998	0.6000000000000001	1	0	0.7	0.30000000000000004	6	2	4.199999999999998	0.6000000000000001	valid	0.3665897659993789	51200	0	0	1	51200	1	51200	1	51200	1	0.7	51200	turquoise	purple	1	6	ml	2.7.3	bip	sub-17_ses-02_task-ml_proj-bip_2021-03-17-10-39-54.484194
125	17	2	3	126	volatile	5	40	6	vs	turquoise	purple	turquoise	purple	left	right	0.7	0.30000000000000004	4	2	2.8	0.6000000000000001	1	0	0.7	0.30000000000000004	4	2	2.8	0.6000000000000001	valid	0.3665864850008802	51200	0	0	1	51200	1	51200	1	51200	1	0.7	51200	turquoise	purple	1	4	ml	2.7.3	bip	sub-17_ses-02_task-ml_proj-bip_2021-03-17-10-39-54.484194
126	17	2	3	127	volatile	5	40	7	vs	turquoise	purple	turquoise	purple	left	right	0.7	0.30000000000000004	2	4	1.4	1.2000000000000002	0	1	0.7	0.30000000000000004	2	4	1.4	1.2000000000000002	invalid	0.3332637470011832	51200	0	0	1	51200	1	51200	1	53248	0	0.7	51200	turquoise	purple	0	0	ml	2.7.3	bip	sub-17_ses-02_task-ml_proj-bip_2021-03-17-10-39-54.484194
127	17	2	3	128	volatile	5	40	8	vs	purple	turquoise	turquoise	purple	right	left	0.7	0.30000000000000004	2	6	1.4	1.8000000000000005	0	1	0.30000000000000004	0.7	6	2	1.8000000000000005	1.4	invalid	0.2832879519992275	53248	0	1	1	51200	0	53248	1	51200	0	0.7	53248	turquoise	purple	0	0	ml	2.7.3	bip	sub-17_ses-02_task-ml_proj-bip_2021-03-17-10-39-54.484194
128	17	2	3	129	volatile	5	40	9	vs	purple	turquoise	turquoise	purple	right	left	0.7	0.30000000000000004	4	6	2.8	1.8000000000000005	1	0	0.30000000000000004	0.7	6	4	1.8000000000000005	2.8	valid	0.3499223950002488	51200	0	0	2	53248	0	53248	0	51200	1	0.7	53248	turquoise	purple	0	0	ml	2.7.3	bip	sub-17_ses-02_task-ml_proj-bip_2021-03-17-10-39-54.484194
129	17	2	3	130	volatile	5	40	10	vs	purple	turquoise	turquoise	purple	right	left	0.7	0.30000000000000004	10	2	7.0	0.6000000000000001	1	0	0.30000000000000004	0.7	2	10	0.6000000000000001	7.0	valid	0.3665856520001398	51200	0	0	2	53248	0	53248	0	53248	0	0.7	53248	turquoise	purple	1	0	ml	2.7.3	bip	sub-17_ses-02_task-ml_proj-bip_2021-03-17-10-39-54.484194
130	17	2	3	131	volatile	5	40	11	vs	purple	turquoise	turquoise	purple	right	left	0.7	0.30000000000000004	2	2	1.4	0.6000000000000001	1	0	0.30000000000000004	0.7	2	2	0.6000000000000001	1.4	valid	0.433243498999218	53248	0	1	1	53248	1	53248	1	53248	1	0.7	53248	turquoise	purple	0	2	ml	2.7.3	bip	sub-17_ses-02_task-ml_proj-bip_2021-03-17-10-39-54.484194
131	17	2	3	132	volatile	5	40	12	vs	turquoise	purple	turquoise	purple	left	right	0.7	0.30000000000000004	4	6	2.8	1.8000000000000005	1	0	0.7	0.30000000000000004	4	6	2.8	1.8000000000000005	valid	0.349926761999086	51200	0	0	1	51200	1	51200	1	53248	0	0.7	51200	turquoise	purple	0	4	ml	2.7.3	bip	sub-17_ses-02_task-ml_proj-bip_2021-03-17-10-39-54.484194
132	17	2	3	133	volatile	5	40	13	vs	turquoise	purple	turquoise	purple	left	right	0.7	0.30000000000000004	2	10	1.4	3.0000000000000004	1	0	0.7	0.30000000000000004	2	10	1.4	3.0000000000000004	valid	0.7331475890005095	51200	0	0	1	53248	0	51200	1	53248	0	0.7	51200	turquoise	purple	0	2	ml	2.7.3	bip	sub-17_ses-02_task-ml_proj-bip_2021-03-17-10-39-54.484194
133	17	2	3	134	volatile	5	40	14	vs	turquoise	purple	turquoise	purple	left	right	0.7	0.30000000000000004	10	2	7.0	0.6000000000000001	1	0	0.7	0.30000000000000004	10	2	7.0	0.6000000000000001	valid	0.8497828640010994	51200	0	0	1	51200	1	51200	1	51200	1	0.7	51200	turquoise	purple	1	10	ml	2.7.3	bip	sub-17_ses-02_task-ml_proj-bip_2021-03-17-10-39-54.484194
134	17	2	3	135	volatile	5	40	15	vs	purple	turquoise	turquoise	purple	right	left	0.7	0.30000000000000004	2	2	1.4	0.6000000000000001	0	1	0.30000000000000004	0.7	2	2	0.6000000000000001	1.4	invalid	0.34993348399984825	53248	0	1	1	53248	1	53248	1	53248	1	0.7	53248	turquoise	purple	0	0	ml	2.7.3	bip	sub-17_ses-02_task-ml_proj-bip_2021-03-17-10-39-54.484194
135	17	2	3	136	volatile	5	40	16	vs	purple	turquoise	turquoise	purple	right	left	0.7	0.30000000000000004	4	6	2.8	1.8000000000000005	1	0	0.30000000000000004	0.7	6	4	1.8000000000000005	2.8	valid	0.3166056669997488	53248	0	1	1	53248	1	53248	1	51200	0	0.7	53248	turquoise	purple	0	4	ml	2.7.3	bip	sub-17_ses-02_task-ml_proj-bip_2021-03-17-10-39-54.484194
136	17	2	3	137	volatile	5	40	17	vs	purple	turquoise	turquoise	purple	right	left	0.7	0.30000000000000004	10	2	7.0	0.6000000000000001	0	1	0.30000000000000004	0.7	2	10	0.6000000000000001	7.0	invalid	0.36660243599908426	53248	0	1	1	53248	1	53248	1	53248	1	0.7	53248	turquoise	purple	1	0	ml	2.7.3	bip	sub-17_ses-02_task-ml_proj-bip_2021-03-17-10-39-54.484194
137	17	2	3	138	volatile	5	40	18	vs	turquoise	purple	turquoise	purple	left	right	0.7	0.30000000000000004	4	2	2.8	0.6000000000000001	0	1	0.7	0.30000000000000004	4	2	2.8	0.6000000000000001	invalid	0.366580445001091	51200	0	0	1	51200	1	51200	1	51200	1	0.7	51200	turquoise	purple	1	0	ml	2.7.3	bip	sub-17_ses-02_task-ml_proj-bip_2021-03-17-10-39-54.484194
138	17	2	3	139	volatile	5	40	19	vs	purple	turquoise	turquoise	purple	right	left	0.7	0.30000000000000004	6	6	4.199999999999998	1.8000000000000005	1	0	0.30000000000000004	0.7	6	6	1.8000000000000005	4.199999999999998	valid	0.5665388759989582	53248	0	1	1	53248	1	53248	1	53248	1	0.7	53248	turquoise	purple	0	6	ml	2.7.3	bip	sub-17_ses-02_task-ml_proj-bip_2021-03-17-10-39-54.484194
139	17	2	3	140	volatile	5	40	20	vs	purple	turquoise	turquoise	purple	right	left	0.7	0.30000000000000004	2	10	1.4	3.0000000000000004	0	1	0.30000000000000004	0.7	10	2	3.0000000000000004	1.4	invalid	0.41658077499960205	53248	0	1	1	51200	0	53248	1	51200	0	0.7	53248	turquoise	purple	0	0	ml	2.7.3	bip	sub-17_ses-02_task-ml_proj-bip_2021-03-17-10-39-54.484194
140	17	2	3	141	volatile	5	40	21	vs	purple	turquoise	turquoise	purple	right	left	0.7	0.30000000000000004	4	2	2.8	0.6000000000000001	1	0	0.30000000000000004	0.7	2	4	0.6000000000000001	2.8	valid	0.6331857860004675	53248	0	1	1	53248	1	53248	1	53248	1	0.7	53248	turquoise	purple	1	4	ml	2.7.3	bip	sub-17_ses-02_task-ml_proj-bip_2021-03-17-10-39-54.484194
141	17	2	3	142	volatile	5	40	22	vs	turquoise	purple	turquoise	purple	left	right	0.7	0.30000000000000004	2	6	1.4	1.8000000000000005	1	0	0.7	0.30000000000000004	2	6	1.4	1.8000000000000005	valid	0.4165714399987337	51200	0	0	1	53248	0	51200	1	53248	0	0.7	51200	turquoise	purple	0	2	ml	2.7.3	bip	sub-17_ses-02_task-ml_proj-bip_2021-03-17-10-39-54.484194
142	17	2	3	143	volatile	5	40	23	vs	purple	turquoise	turquoise	purple	right	left	0.7	0.30000000000000004	4	6	2.8	1.8000000000000005	0	1	0.30000000000000004	0.7	6	4	1.8000000000000005	2.8	invalid	0.3499361220001447	53248	0	1	1	53248	1	53248	1	51200	0	0.7	53248	turquoise	purple	0	0	ml	2.7.3	bip	sub-17_ses-02_task-ml_proj-bip_2021-03-17-10-39-54.484194
143	17	2	3	144	volatile	5	40	24	vs	purple	turquoise	turquoise	purple	right	left	0.7	0.30000000000000004	6	6	4.199999999999998	1.8000000000000005	1	0	0.30000000000000004	0.7	6	6	1.8000000000000005	4.199999999999998	valid	0.31661150500076474	53248	0	1	1	53248	1	53248	1	53248	1	0.7	53248	turquoise	purple	0	6	ml	2.7.3	bip	sub-17_ses-02_task-ml_proj-bip_2021-03-17-10-39-54.484194
144	17	2	3	145	volatile	5	40	25	vs	purple	turquoise	turquoise	purple	right	left	0.7	0.30000000000000004	4	6	2.8	1.8000000000000005	1	0	0.30000000000000004	0.7	6	4	1.8000000000000005	2.8	valid	0.7664811520007788	53248	0	1	1	53248	1	53248	1	51200	0	0.7	53248	turquoise	purple	0	4	ml	2.7.3	bip	sub-17_ses-02_task-ml_proj-bip_2021-03-17-10-39-54.484194
145	17	2	3	146	volatile	5	40	26	vs	turquoise	purple	turquoise	purple	left	right	0.7	0.30000000000000004	6	6	4.199999999999998	1.8000000000000005	1	0	0.7	0.30000000000000004	6	6	4.199999999999998	1.8000000000000005	valid	0.3999083620001329	51200	0	0	1	51200	1	51200	1	53248	0	0.7	51200	turquoise	purple	1	6	ml	2.7.3	bip	sub-17_ses-02_task-ml_proj-bip_2021-03-17-10-39-54.484194
146	17	2	3	147	volatile	5	40	27	vs	turquoise	purple	turquoise	purple	left	right	0.7	0.30000000000000004	2	6	1.4	1.8000000000000005	0	1	0.7	0.30000000000000004	2	6	1.4	1.8000000000000005	invalid	0.3332693709999148	51200	0	0	1	53248	0	51200	1	53248	0	0.7	51200	turquoise	purple	0	0	ml	2.7.3	bip	sub-17_ses-02_task-ml_proj-bip_2021-03-17-10-39-54.484194
147	17	2	3	148	volatile	5	40	28	vs	turquoise	purple	turquoise	purple	left	right	0.7	0.30000000000000004	10	2	7.0	0.6000000000000001	0	1	0.7	0.30000000000000004	10	2	7.0	0.6000000000000001	invalid	0.3832485220009403	51200	0	0	1	51200	1	51200	1	51200	1	0.7	51200	turquoise	purple	1	0	ml	2.7.3	bip	sub-17_ses-02_task-ml_proj-bip_2021-03-17-10-39-54.484194
148	17	2	3	149	volatile	5	40	29	vs	turquoise	purple	turquoise	purple	left	right	0.7	0.30000000000000004	4	2	2.8	0.6000000000000001	1	0	0.7	0.30000000000000004	4	2	2.8	0.6000000000000001	valid	0.3665969060002681	53248	0	1	2	51200	0	51200	0	51200	0	0.7	51200	turquoise	purple	1	0	ml	2.7.3	bip	sub-17_ses-02_task-ml_proj-bip_2021-03-17-10-39-54.484194
149	17	2	3	150	volatile	5	40	30	vs	turquoise	purple	turquoise	purple	left	right	0.7	0.30000000000000004	6	2	4.199999999999998	0.6000000000000001	0	1	0.7	0.30000000000000004	6	2	4.199999999999998	0.6000000000000001	invalid	0.3499281240001437	51200	0	0	1	51200	1	51200	1	51200	1	0.7	51200	turquoise	purple	1	0	ml	2.7.3	bip	sub-17_ses-02_task-ml_proj-bip_2021-03-17-10-39-54.484194
150	17	2	4	151	volatile	5	40	31	vs	purple	turquoise	turquoise	purple	right	left	0.7	0.30000000000000004	6	4	4.199999999999998	1.2000000000000002	1	0	0.30000000000000004	0.7	4	6	1.2000000000000002	4.199999999999998	valid	0.6831736409985751	53248	0	1	1	53248	1	53248	1	53248	1	0.7	53248	turquoise	purple	1	6	ml	2.7.3	bip	sub-17_ses-02_task-ml_proj-bip_2021-03-17-10-39-54.484194
151	17	2	4	152	volatile	5	40	32	vs	turquoise	purple	turquoise	purple	left	right	0.7	0.30000000000000004	10	2	7.0	0.6000000000000001	1	0	0.7	0.30000000000000004	10	2	7.0	0.6000000000000001	valid	0.3332611450005061	51200	0	0	1	51200	1	51200	1	51200	1	0.7	51200	turquoise	purple	1	10	ml	2.7.3	bip	sub-17_ses-02_task-ml_proj-bip_2021-03-17-10-39-54.484194
152	17	2	4	153	volatile	5	40	33	vs	purple	turquoise	turquoise	purple	right	left	0.7	0.30000000000000004	2	6	1.4	1.8000000000000005	0	1	0.30000000000000004	0.7	6	2	1.8000000000000005	1.4	invalid	0.3666013749989361	53248	0	1	1	51200	0	53248	1	51200	0	0.7	53248	turquoise	purple	0	0	ml	2.7.3	bip	sub-17_ses-02_task-ml_proj-bip_2021-03-17-10-39-54.484194
153	17	2	4	154	volatile	5	40	34	vs	turquoise	purple	turquoise	purple	left	right	0.7	0.30000000000000004	2	2	1.4	0.6000000000000001	1	0	0.7	0.30000000000000004	2	2	1.4	0.6000000000000001	valid	0.3166020999997272	51200	0	0	1	51200	1	51200	1	53248	0	0.7	51200	turquoise	purple	1	2	ml	2.7.3	bip	sub-17_ses-02_task-ml_proj-bip_2021-03-17-10-39-54.484194
154	17	2	4	155	volatile	5	40	35	vs	turquoise	purple	turquoise	purple	left	right	0.7	0.30000000000000004	4	6	2.8	1.8000000000000005	1	0	0.7	0.30000000000000004	4	6	2.8	1.8000000000000005	valid	0.39990813300028094	51200	0	0	1	51200	1	51200	1	53248	0	0.7	51200	turquoise	purple	0	4	ml	2.7.3	bip	sub-17_ses-02_task-ml_proj-bip_2021-03-17-10-39-54.484194
155	17	2	4	156	volatile	5	40	36	vs	purple	turquoise	turquoise	purple	right	left	0.7	0.30000000000000004	2	4	1.4	1.2000000000000002	1	0	0.30000000000000004	0.7	4	2	1.2000000000000002	1.4	valid	0.3499369459987065	53248	0	1	1	53248	1	53248	1	51200	0	0.7	53248	turquoise	purple	0	2	ml	2.7.3	bip	sub-17_ses-02_task-ml_proj-bip_2021-03-17-10-39-54.484194
156	17	2	4	157	volatile	5	40	37	vs	purple	turquoise	turquoise	purple	right	left	0.7	0.30000000000000004	10	2	7.0	0.6000000000000001	1	0	0.30000000000000004	0.7	2	10	0.6000000000000001	7.0	valid	0.3665971430000354	53248	0	1	1	53248	1	53248	1	53248	1	0.7	53248	turquoise	purple	1	10	ml	2.7.3	bip	sub-17_ses-02_task-ml_proj-bip_2021-03-17-10-39-54.484194
157	17	2	4	158	volatile	5	40	38	vs	turquoise	purple	turquoise	purple	left	right	0.7	0.30000000000000004	2	4	1.4	1.2000000000000002	1	0	0.7	0.30000000000000004	2	4	1.4	1.2000000000000002	valid	0.3499204290001217	51200	0	0	1	51200	1	51200	1	53248	0	0.7	51200	turquoise	purple	0	2	ml	2.7.3	bip	sub-17_ses-02_task-ml_proj-bip_2021-03-17-10-39-54.484194
158	17	2	4	159	volatile	5	40	39	vs	purple	turquoise	turquoise	purple	right	left	0.7	0.30000000000000004	4	2	2.8	0.6000000000000001	1	0	0.30000000000000004	0.7	2	4	0.6000000000000001	2.8	valid	0.3999210380006844	53248	0	1	1	53248	1	53248	1	53248	1	0.7	53248	turquoise	purple	1	4	ml	2.7.3	bip	sub-17_ses-02_task-ml_proj-bip_2021-03-17-10-39-54.484194
159	17	2	4	160	volatile	5	40	40	vs	purple	turquoise	turquoise	purple	right	left	0.7	0.30000000000000004	6	2	4.199999999999998	0.6000000000000001	1	0	0.30000000000000004	0.7	2	6	0.6000000000000001	4.199999999999998	valid	0.34993140300139197	53248	0	1	1	53248	1	53248	1	53248	1	0.7	53248	turquoise	purple	1	6	ml	2.7.3	bip	sub-17_ses-02_task-ml_proj-bip_2021-03-17-10-39-54.484194
160	17	2	4	161	volatile	6	20	1	vs	purple	turquoise	turquoise	purple	right	left	0.30000000000000004	0.7	6	6	1.8000000000000005	4.199999999999998	0	1	0.7	0.30000000000000004	6	6	4.199999999999998	1.8000000000000005	valid	0.36659772700113535	53248	0	1	1	51200	0	51200	0	53248	1	0.7	51200	purple	turquoise	1	0	ml	2.7.3	bip	sub-17_ses-02_task-ml_proj-bip_2021-03-17-10-39-54.484194
161	17	2	4	162	volatile	6	20	2	vs	turquoise	purple	turquoise	purple	left	right	0.30000000000000004	0.7	6	4	1.8000000000000005	2.8	1	0	0.30000000000000004	0.7	6	4	1.8000000000000005	2.8	invalid	0.2832757840005797	51200	0	0	1	53248	0	53248	0	51200	1	0.7	53248	purple	turquoise	0	6	ml	2.7.3	bip	sub-17_ses-02_task-ml_proj-bip_2021-03-17-10-39-54.484194
162	17	2	4	163	volatile	6	20	3	vs	purple	turquoise	turquoise	purple	right	left	0.30000000000000004	0.7	6	4	1.8000000000000005	2.8	0	1	0.7	0.30000000000000004	4	6	2.8	1.8000000000000005	valid	0.34993365300033474	53248	0	1	1	51200	0	51200	0	53248	1	0.7	51200	purple	turquoise	0	0	ml	2.7.3	bip	sub-17_ses-02_task-ml_proj-bip_2021-03-17-10-39-54.484194
163	17	2	4	164	volatile	6	20	4	vs	turquoise	purple	turquoise	purple	left	right	0.30000000000000004	0.7	6	2	1.8000000000000005	1.4	1	0	0.30000000000000004	0.7	6	2	1.8000000000000005	1.4	invalid	0.3999032039992017	51200	0	0	1	51200	1	53248	0	51200	1	0.7	53248	purple	turquoise	0	6	ml	2.7.3	bip	sub-17_ses-02_task-ml_proj-bip_2021-03-17-10-39-54.484194
164	17	2	4	165	volatile	6	20	5	vs	purple	turquoise	turquoise	purple	right	left	0.30000000000000004	0.7	6	2	1.8000000000000005	1.4	0	1	0.7	0.30000000000000004	2	6	1.4	1.8000000000000005	valid	0.2832893900013005	53248	0	1	1	53248	1	51200	0	53248	1	0.7	51200	purple	turquoise	0	0	ml	2.7.3	bip	sub-17_ses-02_task-ml_proj-bip_2021-03-17-10-39-54.484194
165	17	2	4	166	volatile	6	20	6	vs	purple	turquoise	turquoise	purple	right	left	0.30000000000000004	0.7	2	10	0.6000000000000001	7.0	1	0	0.7	0.30000000000000004	10	2	7.0	0.6000000000000001	invalid	0.3665986949999933	53248	0	1	1	51200	0	51200	0	51200	0	0.7	51200	purple	turquoise	1	2	ml	2.7.3	bip	sub-17_ses-02_task-ml_proj-bip_2021-03-17-10-39-54.484194
166	17	2	4	167	volatile	6	20	7	vs	purple	turquoise	turquoise	purple	right	left	0.30000000000000004	0.7	2	4	0.6000000000000001	2.8	1	0	0.7	0.30000000000000004	4	2	2.8	0.6000000000000001	invalid	0.4998898159992677	53248	0	1	1	51200	0	51200	0	51200	0	0.7	51200	purple	turquoise	1	2	ml	2.7.3	bip	sub-17_ses-02_task-ml_proj-bip_2021-03-17-10-39-54.484194
167	17	2	4	168	volatile	6	20	8	vs	purple	turquoise	turquoise	purple	right	left	0.30000000000000004	0.7	2	6	0.6000000000000001	4.199999999999998	0	1	0.7	0.30000000000000004	6	2	4.199999999999998	0.6000000000000001	valid	0.34994296100012434	53248	0	1	1	51200	0	51200	0	51200	0	0.7	51200	purple	turquoise	1	0	ml	2.7.3	bip	sub-17_ses-02_task-ml_proj-bip_2021-03-17-10-39-54.484194
168	17	2	4	169	volatile	6	20	9	vs	purple	turquoise	turquoise	purple	right	left	0.30000000000000004	0.7	6	6	1.8000000000000005	4.199999999999998	1	0	0.7	0.30000000000000004	6	6	4.199999999999998	1.8000000000000005	invalid	0.4665672920000361	53248	0	1	1	51200	0	51200	0	53248	1	0.7	51200	purple	turquoise	1	6	ml	2.7.3	bip	sub-17_ses-02_task-ml_proj-bip_2021-03-17-10-39-54.484194
169	17	2	4	170	volatile	6	20	10	vs	turquoise	purple	turquoise	purple	left	right	0.30000000000000004	0.7	10	2	3.0000000000000004	1.4	0	1	0.30000000000000004	0.7	10	2	3.0000000000000004	1.4	valid	0.36658716700003424	51200	0	0	1	51200	1	53248	0	51200	1	0.7	53248	purple	turquoise	0	0	ml	2.7.3	bip	sub-17_ses-02_task-ml_proj-bip_2021-03-17-10-39-54.484194
170	17	2	4	171	volatile	6	20	11	vs	turquoise	purple	turquoise	purple	left	right	0.30000000000000004	0.7	2	4	0.6000000000000001	2.8	0	1	0.30000000000000004	0.7	2	4	0.6000000000000001	2.8	valid	0.4165745440004685	51200	0	0	1	53248	0	53248	0	53248	0	0.7	53248	purple	turquoise	1	0	ml	2.7.3	bip	sub-17_ses-02_task-ml_proj-bip_2021-03-17-10-39-54.484194
171	17	2	4	172	volatile	6	20	12	vs	purple	turquoise	turquoise	purple	right	left	0.30000000000000004	0.7	10	2	3.0000000000000004	1.4	0	1	0.7	0.30000000000000004	2	10	1.4	3.0000000000000004	valid	0.3665872609999497	51200	0	0	2	53248	0	51200	1	53248	0	0.7	51200	purple	turquoise	0	2	ml	2.7.3	bip	sub-17_ses-02_task-ml_proj-bip_2021-03-17-10-39-54.484194
172	17	2	4	173	volatile	6	20	13	vs	turquoise	purple	turquoise	purple	left	right	0.30000000000000004	0.7	4	6	1.2000000000000002	4.199999999999998	0	1	0.30000000000000004	0.7	4	6	1.2000000000000002	4.199999999999998	valid	0.3333052750003844	53248	0	1	2	53248	1	53248	1	53248	1	0.7	53248	purple	turquoise	1	6	ml	2.7.3	bip	sub-17_ses-02_task-ml_proj-bip_2021-03-17-10-39-54.484194
173	17	2	4	174	volatile	6	20	14	vs	turquoise	purple	turquoise	purple	left	right	0.30000000000000004	0.7	2	6	0.6000000000000001	4.199999999999998	0	1	0.30000000000000004	0.7	2	6	0.6000000000000001	4.199999999999998	valid	0.3665985140014527	53248	0	1	2	53248	1	53248	1	53248	1	0.7	53248	purple	turquoise	1	6	ml	2.7.3	bip	sub-17_ses-02_task-ml_proj-bip_2021-03-17-10-39-54.484194
174	17	2	4	175	volatile	6	20	15	vs	turquoise	purple	turquoise	purple	left	right	0.30000000000000004	0.7	2	2	0.6000000000000001	1.4	0	1	0.30000000000000004	0.7	2	2	0.6000000000000001	1.4	valid	0.3665983430000779	53248	0	1	2	53248	1	53248	1	53248	1	0.7	53248	purple	turquoise	0	2	ml	2.7.3	bip	sub-17_ses-02_task-ml_proj-bip_2021-03-17-10-39-54.484194
175	17	2	4	176	volatile	6	20	16	vs	turquoise	purple	turquoise	purple	left	right	0.30000000000000004	0.7	2	10	0.6000000000000001	7.0	0	1	0.30000000000000004	0.7	2	10	0.6000000000000001	7.0	valid	0.3332672359993012	53248	0	1	2	53248	1	53248	1	53248	1	0.7	53248	purple	turquoise	1	10	ml	2.7.3	bip	sub-17_ses-02_task-ml_proj-bip_2021-03-17-10-39-54.484194
176	17	2	4	177	volatile	6	20	17	vs	purple	turquoise	turquoise	purple	right	left	0.30000000000000004	0.7	2	4	0.6000000000000001	2.8	0	1	0.7	0.30000000000000004	4	2	2.8	0.6000000000000001	valid	0.3665854800001398	51200	0	0	2	51200	1	51200	1	51200	1	0.7	51200	purple	turquoise	1	4	ml	2.7.3	bip	sub-17_ses-02_task-ml_proj-bip_2021-03-17-10-39-54.484194
177	17	2	4	178	volatile	6	20	18	vs	turquoise	purple	turquoise	purple	left	right	0.30000000000000004	0.7	6	4	1.8000000000000005	2.8	0	1	0.30000000000000004	0.7	6	4	1.8000000000000005	2.8	valid	0.34993556200060993	53248	0	1	2	53248	1	53248	1	51200	0	0.7	53248	purple	turquoise	0	4	ml	2.7.3	bip	sub-17_ses-02_task-ml_proj-bip_2021-03-17-10-39-54.484194
178	17	2	4	179	volatile	6	20	19	vs	turquoise	purple	turquoise	purple	left	right	0.30000000000000004	0.7	2	2	0.6000000000000001	1.4	1	0	0.30000000000000004	0.7	2	2	0.6000000000000001	1.4	invalid	0.38325729799908	53248	0	1	2	53248	1	53248	1	53248	1	0.7	53248	purple	turquoise	0	0	ml	2.7.3	bip	sub-17_ses-02_task-ml_proj-bip_2021-03-17-10-39-54.484194
179	17	2	4	180	volatile	6	20	20	vs	purple	turquoise	turquoise	purple	right	left	0.30000000000000004	0.7	4	2	1.2000000000000002	1.4	0	1	0.7	0.30000000000000004	2	4	1.4	1.2000000000000002	valid	0.2999395389997517	51200	0	0	2	51200	1	51200	1	53248	0	0.7	51200	purple	turquoise	0	2	ml	2.7.3	bip	sub-17_ses-02_task-ml_proj-bip_2021-03-17-10-39-54.484194
180	17	2	4	181	volatile	7	20	1	vs	purple	turquoise	turquoise	purple	right	left	0.7	0.30000000000000004	2	4	1.4	1.2000000000000002	1	0	0.30000000000000004	0.7	4	2	1.2000000000000002	1.4	valid	0.3832516019992909	51200	0	0	2	53248	0	53248	0	51200	1	0.7	53248	turquoise	purple	0	0	ml	2.7.3	bip	sub-17_ses-02_task-ml_proj-bip_2021-03-17-10-39-54.484194
181	17	2	4	182	volatile	7	20	2	vs	purple	turquoise	turquoise	purple	right	left	0.7	0.30000000000000004	2	6	1.4	1.8000000000000005	1	0	0.30000000000000004	0.7	6	2	1.8000000000000005	1.4	valid	0.3332629590004217	51200	0	0	2	51200	1	53248	0	51200	1	0.7	53248	turquoise	purple	0	0	ml	2.7.3	bip	sub-17_ses-02_task-ml_proj-bip_2021-03-17-10-39-54.484194
182	17	2	4	183	volatile	7	20	3	vs	purple	turquoise	turquoise	purple	right	left	0.7	0.30000000000000004	6	6	4.199999999999998	1.8000000000000005	1	0	0.30000000000000004	0.7	6	6	1.8000000000000005	4.199999999999998	valid	0.33330596100131515	53248	0	1	1	53248	1	53248	1	53248	1	0.7	53248	turquoise	purple	0	6	ml	2.7.3	bip	sub-17_ses-02_task-ml_proj-bip_2021-03-17-10-39-54.484194
183	17	2	4	184	volatile	7	20	4	vs	purple	turquoise	turquoise	purple	right	left	0.7	0.30000000000000004	4	6	2.8	1.8000000000000005	1	0	0.30000000000000004	0.7	6	4	1.8000000000000005	2.8	valid	0.33327373800057103	53248	0	1	1	53248	1	53248	1	51200	0	0.7	53248	turquoise	purple	0	4	ml	2.7.3	bip	sub-17_ses-02_task-ml_proj-bip_2021-03-17-10-39-54.484194
184	17	2	4	185	volatile	7	20	5	vs	purple	turquoise	turquoise	purple	right	left	0.7	0.30000000000000004	2	2	1.4	0.6000000000000001	0	1	0.30000000000000004	0.7	2	2	0.6000000000000001	1.4	invalid	0.3332791940010793	53248	0	1	1	53248	1	53248	1	53248	1	0.7	53248	turquoise	purple	0	0	ml	2.7.3	bip	sub-17_ses-02_task-ml_proj-bip_2021-03-17-10-39-54.484194
185	17	2	4	186	volatile	7	20	6	vs	turquoise	purple	turquoise	purple	left	right	0.7	0.30000000000000004	2	10	1.4	3.0000000000000004	1	0	0.7	0.30000000000000004	2	10	1.4	3.0000000000000004	valid	0.2832792779990996	51200	0	0	1	53248	0	51200	1	53248	0	0.7	51200	turquoise	purple	0	2	ml	2.7.3	bip	sub-17_ses-02_task-ml_proj-bip_2021-03-17-10-39-54.484194
186	17	2	4	187	volatile	7	20	7	vs	purple	turquoise	turquoise	purple	right	left	0.7	0.30000000000000004	6	4	4.199999999999998	1.2000000000000002	1	0	0.30000000000000004	0.7	4	6	1.2000000000000002	4.199999999999998	valid	0.3999221689991828	53248	0	1	1	53248	1	53248	1	53248	1	0.7	53248	turquoise	purple	1	6	ml	2.7.3	bip	sub-17_ses-02_task-ml_proj-bip_2021-03-17-10-39-54.484194
187	17	2	4	188	volatile	7	20	8	vs	turquoise	purple	turquoise	purple	left	right	0.7	0.30000000000000004	6	2	4.199999999999998	0.6000000000000001	1	0	0.7	0.30000000000000004	6	2	4.199999999999998	0.6000000000000001	valid	0.34992500299995305	51200	0	0	1	51200	1	51200	1	51200	1	0.7	51200	turquoise	purple	1	6	ml	2.7.3	bip	sub-17_ses-02_task-ml_proj-bip_2021-03-17-10-39-54.484194
188	17	2	4	189	volatile	7	20	9	vs	purple	turquoise	turquoise	purple	right	left	0.7	0.30000000000000004	4	6	2.8	1.8000000000000005	0	1	0.30000000000000004	0.7	6	4	1.8000000000000005	2.8	invalid	0.4332465030001913	53248	0	1	1	53248	1	53248	1	51200	0	0.7	53248	turquoise	purple	0	0	ml	2.7.3	bip	sub-17_ses-02_task-ml_proj-bip_2021-03-17-10-39-54.484194
189	17	2	4	190	volatile	7	20	10	vs	turquoise	purple	turquoise	purple	left	right	0.7	0.30000000000000004	2	6	1.4	1.8000000000000005	0	1	0.7	0.30000000000000004	2	6	1.4	1.8000000000000005	invalid	0.3166026899998542	51200	0	0	1	53248	0	51200	1	53248	0	0.7	51200	turquoise	purple	0	0	ml	2.7.3	bip	sub-17_ses-02_task-ml_proj-bip_2021-03-17-10-39-54.484194
190	17	2	4	191	volatile	7	20	11	vs	purple	turquoise	turquoise	purple	right	left	0.7	0.30000000000000004	4	2	2.8	0.6000000000000001	0	1	0.30000000000000004	0.7	2	4	0.6000000000000001	2.8	invalid	0.43323228100052796	51200	0	0	2	53248	0	53248	0	53248	0	0.7	53248	turquoise	purple	1	2	ml	2.7.3	bip	sub-17_ses-02_task-ml_proj-bip_2021-03-17-10-39-54.484194
191	17	2	4	192	volatile	7	20	12	vs	turquoise	purple	turquoise	purple	left	right	0.7	0.30000000000000004	2	6	1.4	1.8000000000000005	0	1	0.7	0.30000000000000004	2	6	1.4	1.8000000000000005	invalid	0.31661452400112466	53248	0	1	2	53248	1	51200	0	53248	1	0.7	51200	turquoise	purple	0	6	ml	2.7.3	bip	sub-17_ses-02_task-ml_proj-bip_2021-03-17-10-39-54.484194
192	17	2	4	193	volatile	7	20	13	vs	turquoise	purple	turquoise	purple	left	right	0.7	0.30000000000000004	2	10	1.4	3.0000000000000004	0	1	0.7	0.30000000000000004	2	10	1.4	3.0000000000000004	invalid	0.2999555419992248	53248	0	1	2	53248	1	51200	0	53248	1	0.7	51200	turquoise	purple	0	10	ml	2.7.3	bip	sub-17_ses-02_task-ml_proj-bip_2021-03-17-10-39-54.484194
193	17	2	4	194	volatile	7	20	14	vs	turquoise	purple	turquoise	purple	left	right	0.7	0.30000000000000004	4	2	2.8	0.6000000000000001	1	0	0.7	0.30000000000000004	4	2	2.8	0.6000000000000001	valid	0.5332225679994735	53248	0	1	2	51200	0	51200	0	51200	0	0.7	51200	turquoise	purple	1	0	ml	2.7.3	bip	sub-17_ses-02_task-ml_proj-bip_2021-03-17-10-39-54.484194
194	17	2	4	195	volatile	7	20	15	vs	turquoise	purple	turquoise	purple	left	right	0.7	0.30000000000000004	10	2	7.0	0.6000000000000001	1	0	0.7	0.30000000000000004	10	2	7.0	0.6000000000000001	valid	0.34993380600099044	53248	0	1	2	51200	0	51200	0	51200	0	0.7	51200	turquoise	purple	1	0	ml	2.7.3	bip	sub-17_ses-02_task-ml_proj-bip_2021-03-17-10-39-54.484194
195	17	2	4	196	volatile	7	20	16	vs	purple	turquoise	turquoise	purple	right	left	0.7	0.30000000000000004	6	6	4.199999999999998	1.8000000000000005	1	0	0.30000000000000004	0.7	6	6	1.8000000000000005	4.199999999999998	valid	0.4499102410009073	53248	0	1	1	53248	1	53248	1	53248	1	0.7	53248	turquoise	purple	0	6	ml	2.7.3	bip	sub-17_ses-02_task-ml_proj-bip_2021-03-17-10-39-54.484194
196	17	2	4	197	volatile	7	20	17	vs	turquoise	purple	turquoise	purple	left	right	0.7	0.30000000000000004	4	6	2.8	1.8000000000000005	1	0	0.7	0.30000000000000004	4	6	2.8	1.8000000000000005	valid	0.4998997319999034	51200	0	0	1	51200	1	51200	1	53248	0	0.7	51200	turquoise	purple	0	4	ml	2.7.3	bip	sub-17_ses-02_task-ml_proj-bip_2021-03-17-10-39-54.484194
197	17	2	4	198	volatile	7	20	18	vs	purple	turquoise	turquoise	purple	right	left	0.7	0.30000000000000004	2	2	1.4	0.6000000000000001	1	0	0.30000000000000004	0.7	2	2	0.6000000000000001	1.4	valid	0.3999223639984848	53248	0	1	1	53248	1	53248	1	53248	1	0.7	53248	turquoise	purple	0	2	ml	2.7.3	bip	sub-17_ses-02_task-ml_proj-bip_2021-03-17-10-39-54.484194
198	17	2	4	199	volatile	7	20	19	vs	turquoise	purple	turquoise	purple	left	right	0.7	0.30000000000000004	2	4	1.4	1.2000000000000002	1	0	0.7	0.30000000000000004	2	4	1.4	1.2000000000000002	valid	0.4498884579988953	51200	0	0	1	51200	1	51200	1	53248	0	0.7	51200	turquoise	purple	0	2	ml	2.7.3	bip	sub-17_ses-02_task-ml_proj-bip_2021-03-17-10-39-54.484194
199	17	2	4	200	volatile	7	20	20	vs	turquoise	purple	turquoise	purple	left	right	0.7	0.30000000000000004	10	2	7.0	0.6000000000000001	1	0	0.7	0.30000000000000004	10	2	7.0	0.6000000000000001	valid	0.3999075080009789	51200	0	0	1	51200	1	51200	1	51200	1	0.7	51200	turquoise	purple	1	10	ml	2.7.3	bip	sub-17_ses-02_task-ml_proj-bip_2021-03-17-10-39-54.484194
200	17	2	5	201	stable	8	200	1	vs	purple	turquoise	turquoise	purple	right	left	0.30000000000000004	0.7	2	4	0.6000000000000001	2.8	1	0	0.7	0.30000000000000004	4	2	2.8	0.6000000000000001	invalid	0.9997535269994842	53248	0	1	1	51200	0	51200	0	51200	0	0.7	51200	purple	turquoise	1	2	ml	2.7.3	bip	sub-17_ses-02_task-ml_proj-bip_2021-03-17-10-39-54.484194
201	17	2	5	202	stable	8	200	2	vs	purple	turquoise	turquoise	purple	right	left	0.30000000000000004	0.7	2	10	0.6000000000000001	7.0	1	0	0.7	0.30000000000000004	10	2	7.0	0.6000000000000001	invalid	0.3166136489999189	53248	0	1	1	51200	0	51200	0	51200	0	0.7	51200	purple	turquoise	1	2	ml	2.7.3	bip	sub-17_ses-02_task-ml_proj-bip_2021-03-17-10-39-54.484194
202	17	2	5	203	stable	8	200	3	vs	purple	turquoise	turquoise	purple	right	left	0.30000000000000004	0.7	10	2	3.0000000000000004	1.4	0	1	0.7	0.30000000000000004	2	10	1.4	3.0000000000000004	valid	0.26662556900009804	53248	0	1	1	53248	1	51200	0	53248	1	0.7	51200	purple	turquoise	0	0	ml	2.7.3	bip	sub-17_ses-02_task-ml_proj-bip_2021-03-17-10-39-54.484194
203	17	2	5	204	stable	8	200	4	vs	turquoise	purple	turquoise	purple	left	right	0.30000000000000004	0.7	4	2	1.2000000000000002	1.4	0	1	0.30000000000000004	0.7	4	2	1.2000000000000002	1.4	valid	0.3332540440005687	51200	0	0	1	53248	0	53248	0	51200	1	0.7	53248	purple	turquoise	0	0	ml	2.7.3	bip	sub-17_ses-02_task-ml_proj-bip_2021-03-17-10-39-54.484194
204	17	2	5	205	stable	8	200	5	vs	turquoise	purple	turquoise	purple	left	right	0.30000000000000004	0.7	2	4	0.6000000000000001	2.8	0	1	0.30000000000000004	0.7	2	4	0.6000000000000001	2.8	valid	0.3332743160008249	53248	0	1	2	53248	1	53248	1	53248	1	0.7	53248	purple	turquoise	1	4	ml	2.7.3	bip	sub-17_ses-02_task-ml_proj-bip_2021-03-17-10-39-54.484194
205	17	2	5	206	stable	8	200	6	vs	purple	turquoise	turquoise	purple	right	left	0.30000000000000004	0.7	6	4	1.8000000000000005	2.8	0	1	0.7	0.30000000000000004	4	6	2.8	1.8000000000000005	valid	0.3665881990000344	51200	0	0	2	51200	1	51200	1	53248	0	0.7	51200	purple	turquoise	0	4	ml	2.7.3	bip	sub-17_ses-02_task-ml_proj-bip_2021-03-17-10-39-54.484194
206	17	2	5	207	stable	8	200	7	vs	purple	turquoise	turquoise	purple	right	left	0.30000000000000004	0.7	6	4	1.8000000000000005	2.8	1	0	0.7	0.30000000000000004	4	6	2.8	1.8000000000000005	invalid	0.3832473319998826	51200	0	0	2	51200	1	51200	1	53248	0	0.7	51200	purple	turquoise	0	0	ml	2.7.3	bip	sub-17_ses-02_task-ml_proj-bip_2021-03-17-10-39-54.484194
207	17	2	5	208	stable	8	200	8	vs	purple	turquoise	turquoise	purple	right	left	0.30000000000000004	0.7	4	6	1.2000000000000002	4.199999999999998	0	1	0.7	0.30000000000000004	6	4	4.199999999999998	1.2000000000000002	valid	0.33326205699995626	51200	0	0	2	51200	1	51200	1	51200	1	0.7	51200	purple	turquoise	1	6	ml	2.7.3	bip	sub-17_ses-02_task-ml_proj-bip_2021-03-17-10-39-54.484194
208	17	2	5	209	stable	8	200	9	vs	purple	turquoise	turquoise	purple	right	left	0.30000000000000004	0.7	4	2	1.2000000000000002	1.4	1	0	0.7	0.30000000000000004	2	4	1.4	1.2000000000000002	invalid	0.4165791180002998	51200	0	0	2	51200	1	51200	1	53248	0	0.7	51200	purple	turquoise	0	0	ml	2.7.3	bip	sub-17_ses-02_task-ml_proj-bip_2021-03-17-10-39-54.484194
209	17	2	5	210	stable	8	200	10	vs	purple	turquoise	turquoise	purple	right	left	0.30000000000000004	0.7	6	6	1.8000000000000005	4.199999999999998	0	1	0.7	0.30000000000000004	6	6	4.199999999999998	1.8000000000000005	valid	0.3666147730000375	51200	0	0	2	51200	1	51200	1	53248	0	0.7	51200	purple	turquoise	1	6	ml	2.7.3	bip	sub-17_ses-02_task-ml_proj-bip_2021-03-17-10-39-54.484194
210	17	2	5	211	stable	8	200	11	vs	purple	turquoise	turquoise	purple	right	left	0.30000000000000004	0.7	6	6	1.8000000000000005	4.199999999999998	0	1	0.7	0.30000000000000004	6	6	4.199999999999998	1.8000000000000005	valid	0.3499219679997623	51200	0	0	2	51200	1	51200	1	53248	0	0.7	51200	purple	turquoise	1	6	ml	2.7.3	bip	sub-17_ses-02_task-ml_proj-bip_2021-03-17-10-39-54.484194
211	17	2	5	212	stable	8	200	12	vs	purple	turquoise	turquoise	purple	right	left	0.30000000000000004	0.7	2	10	0.6000000000000001	7.0	0	1	0.7	0.30000000000000004	10	2	7.0	0.6000000000000001	valid	0.3166014870002982	51200	0	0	2	51200	1	51200	1	51200	1	0.7	51200	purple	turquoise	1	10	ml	2.7.3	bip	sub-17_ses-02_task-ml_proj-bip_2021-03-17-10-39-54.484194
212	17	2	5	213	stable	8	200	13	vs	turquoise	purple	turquoise	purple	left	right	0.30000000000000004	0.7	6	2	1.8000000000000005	1.4	1	0	0.30000000000000004	0.7	6	2	1.8000000000000005	1.4	invalid	0.36659672200039495	53248	0	1	2	51200	0	53248	1	51200	0	0.7	53248	purple	turquoise	0	0	ml	2.7.3	bip	sub-17_ses-02_task-ml_proj-bip_2021-03-17-10-39-54.484194
213	17	2	5	214	stable	8	200	14	vs	purple	turquoise	turquoise	purple	right	left	0.30000000000000004	0.7	2	6	0.6000000000000001	4.199999999999998	0	1	0.7	0.30000000000000004	6	2	4.199999999999998	0.6000000000000001	valid	0.8331241160012723	51200	0	0	2	51200	1	51200	1	51200	1	0.7	51200	purple	turquoise	1	6	ml	2.7.3	bip	sub-17_ses-02_task-ml_proj-bip_2021-03-17-10-39-54.484194
214	17	2	5	215	stable	8	200	15	vs	turquoise	purple	turquoise	purple	left	right	0.30000000000000004	0.7	10	2	3.0000000000000004	1.4	0	1	0.30000000000000004	0.7	10	2	3.0000000000000004	1.4	valid	0.2999500290006836	53248	0	1	2	51200	0	53248	1	51200	0	0.7	53248	purple	turquoise	0	2	ml	2.7.3	bip	sub-17_ses-02_task-ml_proj-bip_2021-03-17-10-39-54.484194
215	17	2	5	216	stable	8	200	16	vs	purple	turquoise	turquoise	purple	right	left	0.30000000000000004	0.7	4	2	1.2000000000000002	1.4	0	1	0.7	0.30000000000000004	2	4	1.4	1.2000000000000002	valid	0.3332625589991949	51200	0	0	2	51200	1	51200	1	53248	0	0.7	51200	purple	turquoise	0	2	ml	2.7.3	bip	sub-17_ses-02_task-ml_proj-bip_2021-03-17-10-39-54.484194
216	17	2	5	217	stable	8	200	17	vs	purple	turquoise	turquoise	purple	right	left	0.30000000000000004	0.7	6	4	1.8000000000000005	2.8	1	0	0.7	0.30000000000000004	4	6	2.8	1.8000000000000005	invalid	0.33326133499940624	51200	0	0	2	51200	1	51200	1	53248	0	0.7	51200	purple	turquoise	0	0	ml	2.7.3	bip	sub-17_ses-02_task-ml_proj-bip_2021-03-17-10-39-54.484194
217	17	2	5	218	stable	8	200	18	vs	purple	turquoise	turquoise	purple	right	left	0.30000000000000004	0.7	6	2	1.8000000000000005	1.4	0	1	0.7	0.30000000000000004	2	6	1.4	1.8000000000000005	valid	0.3499551750010141	51200	0	0	2	53248	0	51200	1	53248	0	0.7	51200	purple	turquoise	0	2	ml	2.7.3	bip	sub-17_ses-02_task-ml_proj-bip_2021-03-17-10-39-54.484194
218	17	2	5	219	stable	8	200	19	vs	purple	turquoise	turquoise	purple	right	left	0.30000000000000004	0.7	10	2	3.0000000000000004	1.4	1	0	0.7	0.30000000000000004	2	10	1.4	3.0000000000000004	invalid	0.4165688570010389	51200	0	0	2	53248	0	51200	1	53248	0	0.7	51200	purple	turquoise	0	0	ml	2.7.3	bip	sub-17_ses-02_task-ml_proj-bip_2021-03-17-10-39-54.484194
219	17	2	5	220	stable	8	200	20	vs	turquoise	purple	turquoise	purple	left	right	0.30000000000000004	0.7	4	6	1.2000000000000002	4.199999999999998	1	0	0.30000000000000004	0.7	4	6	1.2000000000000002	4.199999999999998	invalid	0.5665382139995927	53248	0	1	2	53248	1	53248	1	53248	1	0.7	53248	purple	turquoise	1	0	ml	2.7.3	bip	sub-17_ses-02_task-ml_proj-bip_2021-03-17-10-39-54.484194
220	17	2	5	221	stable	8	200	21	vs	turquoise	purple	turquoise	purple	left	right	0.30000000000000004	0.7	6	4	1.8000000000000005	2.8	1	0	0.30000000000000004	0.7	6	4	1.8000000000000005	2.8	invalid	0.3499178989986831	51200	0	0	1	53248	0	53248	0	51200	1	0.7	53248	purple	turquoise	0	6	ml	2.7.3	bip	sub-17_ses-02_task-ml_proj-bip_2021-03-17-10-39-54.484194
221	17	2	5	222	stable	8	200	22	vs	turquoise	purple	turquoise	purple	left	right	0.30000000000000004	0.7	6	2	1.8000000000000005	1.4	1	0	0.30000000000000004	0.7	6	2	1.8000000000000005	1.4	invalid	0.5332159939989651	51200	0	0	1	51200	1	53248	0	51200	1	0.7	53248	purple	turquoise	0	6	ml	2.7.3	bip	sub-17_ses-02_task-ml_proj-bip_2021-03-17-10-39-54.484194
222	17	2	5	223	stable	8	200	23	vs	purple	turquoise	turquoise	purple	right	left	0.30000000000000004	0.7	4	2	1.2000000000000002	1.4	1	0	0.7	0.30000000000000004	2	4	1.4	1.2000000000000002	invalid	0.29994724699827197	53248	0	1	1	51200	0	51200	0	53248	1	0.7	51200	purple	turquoise	0	4	ml	2.7.3	bip	sub-17_ses-02_task-ml_proj-bip_2021-03-17-10-39-54.484194
223	17	2	5	224	stable	8	200	24	vs	purple	turquoise	turquoise	purple	right	left	0.30000000000000004	0.7	2	6	0.6000000000000001	4.199999999999998	1	0	0.7	0.30000000000000004	6	2	4.199999999999998	0.6000000000000001	invalid	0.33327484800065577	53248	0	1	1	51200	0	51200	0	51200	0	0.7	51200	purple	turquoise	1	2	ml	2.7.3	bip	sub-17_ses-02_task-ml_proj-bip_2021-03-17-10-39-54.484194
224	17	2	5	225	stable	8	200	25	vs	purple	turquoise	turquoise	purple	right	left	0.30000000000000004	0.7	2	2	0.6000000000000001	1.4	0	1	0.7	0.30000000000000004	2	2	1.4	0.6000000000000001	valid	0.3665965930013044	53248	0	1	1	51200	0	51200	0	53248	1	0.7	51200	purple	turquoise	1	0	ml	2.7.3	bip	sub-17_ses-02_task-ml_proj-bip_2021-03-17-10-39-54.484194
225	17	2	5	226	stable	8	200	26	vs	purple	turquoise	turquoise	purple	right	left	0.30000000000000004	0.7	4	2	1.2000000000000002	1.4	1	0	0.7	0.30000000000000004	2	4	1.4	1.2000000000000002	invalid	0.3499375409992353	53248	0	1	1	51200	0	51200	0	53248	1	0.7	51200	purple	turquoise	0	4	ml	2.7.3	bip	sub-17_ses-02_task-ml_proj-bip_2021-03-17-10-39-54.484194
226	17	2	5	227	stable	8	200	27	vs	purple	turquoise	turquoise	purple	right	left	0.30000000000000004	0.7	2	10	0.6000000000000001	7.0	0	1	0.7	0.30000000000000004	10	2	7.0	0.6000000000000001	valid	0.41658470000038506	53248	0	1	1	51200	0	51200	0	51200	0	0.7	51200	purple	turquoise	1	0	ml	2.7.3	bip	sub-17_ses-02_task-ml_proj-bip_2021-03-17-10-39-54.484194
227	17	2	5	228	stable	8	200	28	vs	turquoise	purple	turquoise	purple	left	right	0.30000000000000004	0.7	4	2	1.2000000000000002	1.4	0	1	0.30000000000000004	0.7	4	2	1.2000000000000002	1.4	valid	0.38324670899964985	51200	0	0	1	53248	0	53248	0	51200	1	0.7	53248	purple	turquoise	0	0	ml	2.7.3	bip	sub-17_ses-02_task-ml_proj-bip_2021-03-17-10-39-54.484194
228	17	2	5	229	stable	8	200	29	vs	purple	turquoise	turquoise	purple	right	left	0.30000000000000004	0.7	10	2	3.0000000000000004	1.4	0	1	0.7	0.30000000000000004	2	10	1.4	3.0000000000000004	valid	0.7331571190006798	53248	0	1	1	53248	1	51200	0	53248	1	0.7	51200	purple	turquoise	0	0	ml	2.7.3	bip	sub-17_ses-02_task-ml_proj-bip_2021-03-17-10-39-54.484194
229	17	2	5	230	stable	8	200	30	vs	turquoise	purple	turquoise	purple	left	right	0.30000000000000004	0.7	10	2	3.0000000000000004	1.4	1	0	0.30000000000000004	0.7	10	2	3.0000000000000004	1.4	invalid	0.3999268879997544	53248	0	1	2	51200	0	53248	1	51200	0	0.7	53248	purple	turquoise	0	0	ml	2.7.3	bip	sub-17_ses-02_task-ml_proj-bip_2021-03-17-10-39-54.484194
230	17	2	5	231	stable	8	200	31	vs	turquoise	purple	turquoise	purple	left	right	0.30000000000000004	0.7	2	4	0.6000000000000001	2.8	1	0	0.30000000000000004	0.7	2	4	0.6000000000000001	2.8	invalid	0.3332721650003805	53248	0	1	2	53248	1	53248	1	53248	1	0.7	53248	purple	turquoise	1	0	ml	2.7.3	bip	sub-17_ses-02_task-ml_proj-bip_2021-03-17-10-39-54.484194
231	17	2	5	232	stable	8	200	32	vs	turquoise	purple	turquoise	purple	left	right	0.30000000000000004	0.7	6	4	1.8000000000000005	2.8	1	0	0.30000000000000004	0.7	6	4	1.8000000000000005	2.8	invalid	0.8497784430001047	51200	0	0	1	53248	0	53248	0	51200	1	0.7	53248	purple	turquoise	0	6	ml	2.7.3	bip	sub-17_ses-02_task-ml_proj-bip_2021-03-17-10-39-54.484194
232	17	2	5	233	stable	8	200	33	vs	purple	turquoise	turquoise	purple	right	left	0.30000000000000004	0.7	4	6	1.2000000000000002	4.199999999999998	0	1	0.7	0.30000000000000004	6	4	4.199999999999998	1.2000000000000002	valid	0.3665935099998024	53248	0	1	1	51200	0	51200	0	51200	0	0.7	51200	purple	turquoise	1	0	ml	2.7.3	bip	sub-17_ses-02_task-ml_proj-bip_2021-03-17-10-39-54.484194
233	17	2	5	234	stable	8	200	34	vs	turquoise	purple	turquoise	purple	left	right	0.30000000000000004	0.7	2	10	0.6000000000000001	7.0	0	1	0.30000000000000004	0.7	2	10	0.6000000000000001	7.0	valid	1.2496676680002563	53248	0	1	2	53248	1	53248	1	53248	1	0.7	53248	purple	turquoise	1	10	ml	2.7.3	bip	sub-17_ses-02_task-ml_proj-bip_2021-03-17-10-39-54.484194
234	17	2	5	235	stable	8	200	35	vs	turquoise	purple	turquoise	purple	left	right	0.30000000000000004	0.7	2	6	0.6000000000000001	4.199999999999998	0	1	0.30000000000000004	0.7	2	6	0.6000000000000001	4.199999999999998	valid	0.9664284400005272	53248	0	1	2	53248	1	53248	1	53248	1	0.7	53248	purple	turquoise	1	6	ml	2.7.3	bip	sub-17_ses-02_task-ml_proj-bip_2021-03-17-10-39-54.484194
235	17	2	5	236	stable	8	200	36	vs	turquoise	purple	turquoise	purple	left	right	0.30000000000000004	0.7	2	6	0.6000000000000001	4.199999999999998	1	0	0.30000000000000004	0.7	2	6	0.6000000000000001	4.199999999999998	invalid	0.3332728389996191	53248	0	1	2	53248	1	53248	1	53248	1	0.7	53248	purple	turquoise	1	0	ml	2.7.3	bip	sub-17_ses-02_task-ml_proj-bip_2021-03-17-10-39-54.484194
236	17	2	5	237	stable	8	200	37	vs	turquoise	purple	turquoise	purple	left	right	0.30000000000000004	0.7	4	6	1.2000000000000002	4.199999999999998	0	1	0.30000000000000004	0.7	4	6	1.2000000000000002	4.199999999999998	valid	0.4165728089992625	51200	0	0	1	53248	0	53248	0	53248	0	0.7	53248	purple	turquoise	1	0	ml	2.7.3	bip	sub-17_ses-02_task-ml_proj-bip_2021-03-17-10-39-54.484194
237	17	2	5	238	stable	8	200	38	vs	purple	turquoise	turquoise	purple	right	left	0.30000000000000004	0.7	2	4	0.6000000000000001	2.8	0	1	0.7	0.30000000000000004	4	2	2.8	0.6000000000000001	valid	1.3829600280005252	51200	0	0	2	51200	1	51200	1	51200	1	0.7	51200	purple	turquoise	1	4	ml	2.7.3	bip	sub-17_ses-02_task-ml_proj-bip_2021-03-17-10-39-54.484194
238	17	2	5	239	stable	8	200	39	vs	turquoise	purple	turquoise	purple	left	right	0.30000000000000004	0.7	6	6	1.8000000000000005	4.199999999999998	0	1	0.30000000000000004	0.7	6	6	1.8000000000000005	4.199999999999998	valid	0.3499338599995099	53248	0	1	2	53248	1	53248	1	53248	1	0.7	53248	purple	turquoise	0	6	ml	2.7.3	bip	sub-17_ses-02_task-ml_proj-bip_2021-03-17-10-39-54.484194
239	17	2	5	240	stable	8	200	40	vs	purple	turquoise	turquoise	purple	right	left	0.30000000000000004	0.7	2	4	0.6000000000000001	2.8	0	1	0.7	0.30000000000000004	4	2	2.8	0.6000000000000001	valid	0.4332325310006127	51200	0	0	2	51200	1	51200	1	51200	1	0.7	51200	purple	turquoise	1	4	ml	2.7.3	bip	sub-17_ses-02_task-ml_proj-bip_2021-03-17-10-39-54.484194
240	17	2	5	241	stable	8	200	41	vs	turquoise	purple	turquoise	purple	left	right	0.30000000000000004	0.7	2	10	0.6000000000000001	7.0	0	1	0.30000000000000004	0.7	2	10	0.6000000000000001	7.0	valid	0.333274265	53248	0	1	2	53248	1	53248	1	53248	1	0.7	53248	purple	turquoise	1	10	ml	2.7.3	bip	sub-17_ses-02_task-ml_proj-bip_2021-03-17-10-39-54.484194
241	17	2	5	242	stable	8	200	42	vs	turquoise	purple	turquoise	purple	left	right	0.30000000000000004	0.7	10	2	3.0000000000000004	1.4	1	0	0.30000000000000004	0.7	10	2	3.0000000000000004	1.4	invalid	0.3832612470014283	53248	0	1	2	51200	0	53248	1	51200	0	0.7	53248	purple	turquoise	0	0	ml	2.7.3	bip	sub-17_ses-02_task-ml_proj-bip_2021-03-17-10-39-54.484194
242	17	2	5	243	stable	8	200	43	vs	turquoise	purple	turquoise	purple	left	right	0.30000000000000004	0.7	6	4	1.8000000000000005	2.8	0	1	0.30000000000000004	0.7	6	4	1.8000000000000005	2.8	valid	0.349933745999806	53248	0	1	2	53248	1	53248	1	51200	0	0.7	53248	purple	turquoise	0	4	ml	2.7.3	bip	sub-17_ses-02_task-ml_proj-bip_2021-03-17-10-39-54.484194
243	17	2	5	244	stable	8	200	44	vs	purple	turquoise	turquoise	purple	right	left	0.30000000000000004	0.7	4	2	1.2000000000000002	1.4	0	1	0.7	0.30000000000000004	2	4	1.4	1.2000000000000002	valid	0.4665571139994426	51200	0	0	2	51200	1	51200	1	53248	0	0.7	51200	purple	turquoise	0	2	ml	2.7.3	bip	sub-17_ses-02_task-ml_proj-bip_2021-03-17-10-39-54.484194
244	17	2	5	245	stable	8	200	45	vs	purple	turquoise	turquoise	purple	right	left	0.30000000000000004	0.7	2	2	0.6000000000000001	1.4	1	0	0.7	0.30000000000000004	2	2	1.4	0.6000000000000001	invalid	0.416572565000024	51200	0	0	2	51200	1	51200	1	53248	0	0.7	51200	purple	turquoise	1	0	ml	2.7.3	bip	sub-17_ses-02_task-ml_proj-bip_2021-03-17-10-39-54.484194
245	17	2	5	246	stable	8	200	46	vs	purple	turquoise	turquoise	purple	right	left	0.30000000000000004	0.7	2	10	0.6000000000000001	7.0	0	1	0.7	0.30000000000000004	10	2	7.0	0.6000000000000001	valid	0.549863557000208	51200	0	0	2	51200	1	51200	1	51200	1	0.7	51200	purple	turquoise	1	10	ml	2.7.3	bip	sub-17_ses-02_task-ml_proj-bip_2021-03-17-10-39-54.484194
246	17	2	5	247	stable	8	200	47	vs	purple	turquoise	turquoise	purple	right	left	0.30000000000000004	0.7	4	6	1.2000000000000002	4.199999999999998	0	1	0.7	0.30000000000000004	6	4	4.199999999999998	1.2000000000000002	valid	0.3499213690010947	51200	0	0	2	51200	1	51200	1	51200	1	0.7	51200	purple	turquoise	1	6	ml	2.7.3	bip	sub-17_ses-02_task-ml_proj-bip_2021-03-17-10-39-54.484194
247	17	2	5	248	stable	8	200	48	vs	turquoise	purple	turquoise	purple	left	right	0.30000000000000004	0.7	2	10	0.6000000000000001	7.0	0	1	0.30000000000000004	0.7	2	10	0.6000000000000001	7.0	valid	0.3999214469986328	53248	0	1	2	53248	1	53248	1	53248	1	0.7	53248	purple	turquoise	1	10	ml	2.7.3	bip	sub-17_ses-02_task-ml_proj-bip_2021-03-17-10-39-54.484194
248	17	2	5	249	stable	8	200	49	vs	turquoise	purple	turquoise	purple	left	right	0.30000000000000004	0.7	6	6	1.8000000000000005	4.199999999999998	0	1	0.30000000000000004	0.7	6	6	1.8000000000000005	4.199999999999998	valid	0.34993903299982776	53248	0	1	2	53248	1	53248	1	53248	1	0.7	53248	purple	turquoise	0	6	ml	2.7.3	bip	sub-17_ses-02_task-ml_proj-bip_2021-03-17-10-39-54.484194
249	17	2	5	250	stable	8	200	50	vs	purple	turquoise	turquoise	purple	right	left	0.30000000000000004	0.7	2	6	0.6000000000000001	4.199999999999998	1	0	0.7	0.30000000000000004	6	2	4.199999999999998	0.6000000000000001	invalid	0.36658899200119777	51200	0	0	2	51200	1	51200	1	51200	1	0.7	51200	purple	turquoise	1	0	ml	2.7.3	bip	sub-17_ses-02_task-ml_proj-bip_2021-03-17-10-39-54.484194
250	17	2	6	251	stable	8	200	51	vs	turquoise	purple	turquoise	purple	left	right	0.30000000000000004	0.7	6	6	1.8000000000000005	4.199999999999998	0	1	0.30000000000000004	0.7	6	6	1.8000000000000005	4.199999999999998	valid	0.3832490189997769	51200	0	0	1	53248	0	53248	0	53248	0	0.7	53248	purple	turquoise	0	0	ml	2.7.3	bip	sub-17_ses-02_task-ml_proj-bip_2021-03-17-10-39-54.484194
251	17	2	6	252	stable	8	200	52	vs	turquoise	purple	turquoise	purple	left	right	0.30000000000000004	0.7	4	2	1.2000000000000002	1.4	1	0	0.30000000000000004	0.7	4	2	1.2000000000000002	1.4	invalid	0.33327563899911183	53248	0	1	2	53248	1	53248	1	51200	0	0.7	53248	purple	turquoise	0	0	ml	2.7.3	bip	sub-17_ses-02_task-ml_proj-bip_2021-03-17-10-39-54.484194
252	17	2	6	253	stable	8	200	53	vs	turquoise	purple	turquoise	purple	left	right	0.30000000000000004	0.7	2	4	0.6000000000000001	2.8	0	1	0.30000000000000004	0.7	2	4	0.6000000000000001	2.8	valid	0.3166129670007649	53248	0	1	2	53248	1	53248	1	53248	1	0.7	53248	purple	turquoise	1	4	ml	2.7.3	bip	sub-17_ses-02_task-ml_proj-bip_2021-03-17-10-39-54.484194
253	17	2	6	254	stable	8	200	54	vs	turquoise	purple	turquoise	purple	left	right	0.30000000000000004	0.7	2	2	0.6000000000000001	1.4	0	1	0.30000000000000004	0.7	2	2	0.6000000000000001	1.4	valid	0.2999585310008115	53248	0	1	2	53248	1	53248	1	53248	1	0.7	53248	purple	turquoise	0	2	ml	2.7.3	bip	sub-17_ses-02_task-ml_proj-bip_2021-03-17-10-39-54.484194
254	17	2	6	255	stable	8	200	55	vs	turquoise	purple	turquoise	purple	left	right	0.30000000000000004	0.7	2	2	0.6000000000000001	1.4	1	0	0.30000000000000004	0.7	2	2	0.6000000000000001	1.4	invalid	0.3332752120004443	53248	0	1	2	53248	1	53248	1	53248	1	0.7	53248	purple	turquoise	0	0	ml	2.7.3	bip	sub-17_ses-02_task-ml_proj-bip_2021-03-17-10-39-54.484194
255	17	2	6	256	stable	8	200	56	vs	turquoise	purple	turquoise	purple	left	right	0.30000000000000004	0.7	6	4	1.8000000000000005	2.8	0	1	0.30000000000000004	0.7	6	4	1.8000000000000005	2.8	valid	0.31661426600112463	53248	0	1	2	53248	1	53248	1	51200	0	0.7	53248	purple	turquoise	0	4	ml	2.7.3	bip	sub-17_ses-02_task-ml_proj-bip_2021-03-17-10-39-54.484194
256	17	2	6	257	stable	8	200	57	vs	turquoise	purple	turquoise	purple	left	right	0.30000000000000004	0.7	6	2	1.8000000000000005	1.4	0	1	0.30000000000000004	0.7	6	2	1.8000000000000005	1.4	valid	0.4165861679994123	53248	0	1	2	51200	0	53248	1	51200	0	0.7	53248	purple	turquoise	0	2	ml	2.7.3	bip	sub-17_ses-02_task-ml_proj-bip_2021-03-17-10-39-54.484194
257	17	2	6	258	stable	8	200	58	vs	purple	turquoise	turquoise	purple	right	left	0.30000000000000004	0.7	6	6	1.8000000000000005	4.199999999999998	0	1	0.7	0.30000000000000004	6	6	4.199999999999998	1.8000000000000005	valid	0.5665349600003537	51200	0	0	2	51200	1	51200	1	53248	0	0.7	51200	purple	turquoise	1	6	ml	2.7.3	bip	sub-17_ses-02_task-ml_proj-bip_2021-03-17-10-39-54.484194
258	17	2	6	259	stable	8	200	59	vs	turquoise	purple	turquoise	purple	left	right	0.30000000000000004	0.7	10	2	3.0000000000000004	1.4	0	1	0.30000000000000004	0.7	10	2	3.0000000000000004	1.4	valid	0.5831939700001385	53248	0	1	2	51200	0	53248	1	51200	0	0.7	53248	purple	turquoise	0	2	ml	2.7.3	bip	sub-17_ses-02_task-ml_proj-bip_2021-03-17-10-39-54.484194
259	17	2	6	260	stable	8	200	60	vs	purple	turquoise	turquoise	purple	right	left	0.30000000000000004	0.7	6	4	1.8000000000000005	2.8	0	1	0.7	0.30000000000000004	4	6	2.8	1.8000000000000005	valid	0.38324896799895214	51200	0	0	2	51200	1	51200	1	53248	0	0.7	51200	purple	turquoise	0	4	ml	2.7.3	bip	sub-17_ses-02_task-ml_proj-bip_2021-03-17-10-39-54.484194
260	17	2	6	261	stable	8	200	61	vs	turquoise	purple	turquoise	purple	left	right	0.30000000000000004	0.7	4	2	1.2000000000000002	1.4	0	1	0.30000000000000004	0.7	4	2	1.2000000000000002	1.4	valid	0.349937137998495	53248	0	1	2	53248	1	53248	1	51200	0	0.7	53248	purple	turquoise	0	2	ml	2.7.3	bip	sub-17_ses-02_task-ml_proj-bip_2021-03-17-10-39-54.484194
261	17	2	6	262	stable	8	200	62	vs	turquoise	purple	turquoise	purple	left	right	0.30000000000000004	0.7	2	6	0.6000000000000001	4.199999999999998	0	1	0.30000000000000004	0.7	2	6	0.6000000000000001	4.199999999999998	valid	0.3832587060005608	53248	0	1	2	53248	1	53248	1	53248	1	0.7	53248	purple	turquoise	1	6	ml	2.7.3	bip	sub-17_ses-02_task-ml_proj-bip_2021-03-17-10-39-54.484194
262	17	2	6	263	stable	8	200	63	vs	purple	turquoise	turquoise	purple	right	left	0.30000000000000004	0.7	6	6	1.8000000000000005	4.199999999999998	0	1	0.7	0.30000000000000004	6	6	4.199999999999998	1.8000000000000005	valid	0.24994830700052265	51200	0	0	2	51200	1	51200	1	53248	0	0.7	51200	purple	turquoise	1	6	ml	2.7.3	bip	sub-17_ses-02_task-ml_proj-bip_2021-03-17-10-39-54.484194
263	17	2	6	264	stable	8	200	64	vs	turquoise	purple	turquoise	purple	left	right	0.30000000000000004	0.7	2	6	0.6000000000000001	4.199999999999998	0	1	0.30000000000000004	0.7	2	6	0.6000000000000001	4.199999999999998	valid	0.31661110799905146	53248	0	1	2	53248	1	53248	1	53248	1	0.7	53248	purple	turquoise	1	6	ml	2.7.3	bip	sub-17_ses-02_task-ml_proj-bip_2021-03-17-10-39-54.484194
264	17	2	6	265	stable	8	200	65	vs	purple	turquoise	turquoise	purple	right	left	0.30000000000000004	0.7	4	6	1.2000000000000002	4.199999999999998	1	0	0.7	0.30000000000000004	6	4	4.199999999999998	1.2000000000000002	invalid	0.3999115170008736	51200	0	0	2	51200	1	51200	1	51200	1	0.7	51200	purple	turquoise	1	0	ml	2.7.3	bip	sub-17_ses-02_task-ml_proj-bip_2021-03-17-10-39-54.484194
265	17	2	6	266	stable	8	200	66	vs	turquoise	purple	turquoise	purple	left	right	0.30000000000000004	0.7	6	6	1.8000000000000005	4.199999999999998	0	1	0.30000000000000004	0.7	6	6	1.8000000000000005	4.199999999999998	valid	0.6664930490005645	51200	0	0	1	53248	0	53248	0	53248	0	0.7	53248	purple	turquoise	0	0	ml	2.7.3	bip	sub-17_ses-02_task-ml_proj-bip_2021-03-17-10-39-54.484194
266	17	2	6	267	stable	8	200	67	vs	purple	turquoise	turquoise	purple	right	left	0.30000000000000004	0.7	6	6	1.8000000000000005	4.199999999999998	1	0	0.7	0.30000000000000004	6	6	4.199999999999998	1.8000000000000005	invalid	0.3332622050002101	51200	0	0	2	51200	1	51200	1	53248	0	0.7	51200	purple	turquoise	1	0	ml	2.7.3	bip	sub-17_ses-02_task-ml_proj-bip_2021-03-17-10-39-54.484194
267	17	2	6	268	stable	8	200	68	vs	turquoise	purple	turquoise	purple	left	right	0.30000000000000004	0.7	2	6	0.6000000000000001	4.199999999999998	1	0	0.30000000000000004	0.7	2	6	0.6000000000000001	4.199999999999998	invalid	0.3665981769991049	53248	0	1	2	53248	1	53248	1	53248	1	0.7	53248	purple	turquoise	1	0	ml	2.7.3	bip	sub-17_ses-02_task-ml_proj-bip_2021-03-17-10-39-54.484194
268	17	2	6	269	stable	8	200	69	vs	turquoise	purple	turquoise	purple	left	right	0.30000000000000004	0.7	2	10	0.6000000000000001	7.0	0	1	0.30000000000000004	0.7	2	10	0.6000000000000001	7.0	valid	0.3499140399999305	51200	0	0	1	53248	0	53248	0	53248	0	0.7	53248	purple	turquoise	1	0	ml	2.7.3	bip	sub-17_ses-02_task-ml_proj-bip_2021-03-17-10-39-54.484194
269	17	2	6	270	stable	8	200	70	vs	purple	turquoise	turquoise	purple	right	left	0.30000000000000004	0.7	6	2	1.8000000000000005	1.4	0	1	0.7	0.30000000000000004	2	6	1.4	1.8000000000000005	valid	0.3499334989992349	53248	0	1	1	53248	1	51200	0	53248	1	0.7	51200	purple	turquoise	0	0	ml	2.7.3	bip	sub-17_ses-02_task-ml_proj-bip_2021-03-17-10-39-54.484194
270	17	2	6	271	stable	8	200	71	vs	turquoise	purple	turquoise	purple	left	right	0.30000000000000004	0.7	2	2	0.6000000000000001	1.4	0	1	0.30000000000000004	0.7	2	2	0.6000000000000001	1.4	valid	0.3666044209985557	53248	0	1	2	53248	1	53248	1	53248	1	0.7	53248	purple	turquoise	0	2	ml	2.7.3	bip	sub-17_ses-02_task-ml_proj-bip_2021-03-17-10-39-54.484194
271	17	2	6	272	stable	8	200	72	vs	purple	turquoise	turquoise	purple	right	left	0.30000000000000004	0.7	2	6	0.6000000000000001	4.199999999999998	0	1	0.7	0.30000000000000004	6	2	4.199999999999998	0.6000000000000001	valid	0.3166023370013136	51200	0	0	2	51200	1	51200	1	51200	1	0.7	51200	purple	turquoise	1	6	ml	2.7.3	bip	sub-17_ses-02_task-ml_proj-bip_2021-03-17-10-39-54.484194
272	17	2	6	273	stable	8	200	73	vs	turquoise	purple	turquoise	purple	left	right	0.30000000000000004	0.7	4	2	1.2000000000000002	1.4	1	0	0.30000000000000004	0.7	4	2	1.2000000000000002	1.4	invalid	0.24996661600016526	53248	0	1	2	53248	1	53248	1	51200	0	0.7	53248	purple	turquoise	0	0	ml	2.7.3	bip	sub-17_ses-02_task-ml_proj-bip_2021-03-17-10-39-54.484194
273	17	2	6	274	stable	8	200	74	vs	turquoise	purple	turquoise	purple	left	right	0.30000000000000004	0.7	2	4	0.6000000000000001	2.8	1	0	0.30000000000000004	0.7	2	4	0.6000000000000001	2.8	invalid	0.3166129119999823	53248	0	1	2	53248	1	53248	1	53248	1	0.7	53248	purple	turquoise	1	0	ml	2.7.3	bip	sub-17_ses-02_task-ml_proj-bip_2021-03-17-10-39-54.484194
274	17	2	6	275	stable	8	200	75	vs	turquoise	purple	turquoise	purple	left	right	0.30000000000000004	0.7	2	2	0.6000000000000001	1.4	0	1	0.30000000000000004	0.7	2	2	0.6000000000000001	1.4	valid	0.4332350690001476	51200	0	0	1	53248	0	53248	0	53248	0	0.7	53248	purple	turquoise	0	0	ml	2.7.3	bip	sub-17_ses-02_task-ml_proj-bip_2021-03-17-10-39-54.484194
275	17	2	6	276	stable	8	200	76	vs	purple	turquoise	turquoise	purple	right	left	0.30000000000000004	0.7	2	10	0.6000000000000001	7.0	0	1	0.7	0.30000000000000004	10	2	7.0	0.6000000000000001	valid	0.4165730639997491	51200	0	0	2	51200	1	51200	1	51200	1	0.7	51200	purple	turquoise	1	10	ml	2.7.3	bip	sub-17_ses-02_task-ml_proj-bip_2021-03-17-10-39-54.484194
276	17	2	6	277	stable	8	200	77	vs	purple	turquoise	turquoise	purple	right	left	0.30000000000000004	0.7	2	2	0.6000000000000001	1.4	1	0	0.7	0.30000000000000004	2	2	1.4	0.6000000000000001	invalid	0.4165707069987548	51200	0	0	2	51200	1	51200	1	53248	0	0.7	51200	purple	turquoise	1	0	ml	2.7.3	bip	sub-17_ses-02_task-ml_proj-bip_2021-03-17-10-39-54.484194
277	17	2	6	278	stable	8	200	78	vs	turquoise	purple	turquoise	purple	left	right	0.30000000000000004	0.7	6	2	1.8000000000000005	1.4	0	1	0.30000000000000004	0.7	6	2	1.8000000000000005	1.4	valid	1.4829235540000811	51200	0	0	1	51200	1	53248	0	51200	1	0.7	53248	purple	turquoise	0	0	ml	2.7.3	bip	sub-17_ses-02_task-ml_proj-bip_2021-03-17-10-39-54.484194
278	17	2	6	279	stable	8	200	79	vs	turquoise	purple	turquoise	purple	left	right	0.30000000000000004	0.7	4	6	1.2000000000000002	4.199999999999998	0	1	0.30000000000000004	0.7	4	6	1.2000000000000002	4.199999999999998	valid	0.33326305800073897	51200	0	0	1	53248	0	53248	0	53248	0	0.7	53248	purple	turquoise	1	0	ml	2.7.3	bip	sub-17_ses-02_task-ml_proj-bip_2021-03-17-10-39-54.484194
