Unnamed: 0	sub_id	ses_id	block_no	trial_no	phase_type	phase_no	phase_length	trialInPhase_no	phase_type_order	color_left	color_right	color1	color2	position1	position2	prob1	prob2	mag1	mag2	ev1	ev2	outcome1	outcome2	prob_left	prob_right	mag_left	mag_right	ev_left	ev_right	reward_validity	resp_time	resp_key	timeout	choice_side	choice	ev_corr_resp	ev_correct	prob_corr_resp	prob_correct	mag_corr_resp	mag_correct	high_prob	high_prob_side	high_prob_color	low_prob_color	no_brain	reward	name	version	proj_id	logFileID
0	10	1	1	1	stable	1	200	1	sv	purple	turquoise	purple	turquoise	left	right	0.7	0.30000000000000004	6	6	4.199999999999998	1.8000000000000005	1	0	0.7	0.30000000000000004	6	6	4.199999999999998	1.8000000000000005	valid	2.266054108000389	53248.0	0	1.0	2.0	51200	0	51200	0	53248	1	0.7	51200	purple	turquoise	1	0	ml	2.7.3	bip	sub-10_ses-01_task-ml_proj-bip_2020-12-08-10-22-13.100039
1	10	1	1	2	stable	1	200	2	sv	turquoise	purple	purple	turquoise	right	left	0.7	0.30000000000000004	2	4	1.4	1.2000000000000002	0	1	0.30000000000000004	0.7	4	2	1.2000000000000002	1.4	invalid	0.8664550249995955	53248.0	0	1.0	1.0	53248	1	53248	1	51200	0	0.7	53248	purple	turquoise	0	0	ml	2.7.3	bip	sub-10_ses-01_task-ml_proj-bip_2020-12-08-10-22-13.100039
2	10	1	1	3	stable	1	200	3	sv	purple	turquoise	purple	turquoise	left	right	0.7	0.30000000000000004	2	10	1.4	3.0000000000000004	1	0	0.7	0.30000000000000004	2	10	1.4	3.0000000000000004	valid	0.7831426710017695	51200.0	0	0.0	1.0	53248	0	51200	1	53248	0	0.7	51200	purple	turquoise	0	2	ml	2.7.3	bip	sub-10_ses-01_task-ml_proj-bip_2020-12-08-10-22-13.100039
3	10	1	1	4	stable	1	200	4	sv	turquoise	purple	purple	turquoise	right	left	0.7	0.30000000000000004	6	6	4.199999999999998	1.8000000000000005	1	0	0.30000000000000004	0.7	6	6	1.8000000000000005	4.199999999999998	valid	0.5665397060001851	53248.0	0	1.0	1.0	53248	1	53248	1	53248	1	0.7	53248	purple	turquoise	0	6	ml	2.7.3	bip	sub-10_ses-01_task-ml_proj-bip_2020-12-08-10-22-13.100039
4	10	1	1	5	stable	1	200	5	sv	turquoise	purple	purple	turquoise	right	left	0.7	0.30000000000000004	6	6	4.199999999999998	1.8000000000000005	1	0	0.30000000000000004	0.7	6	6	1.8000000000000005	4.199999999999998	valid	0.4832297960001597	53248.0	0	1.0	1.0	53248	1	53248	1	53248	1	0.7	53248	purple	turquoise	0	6	ml	2.7.3	bip	sub-10_ses-01_task-ml_proj-bip_2020-12-08-10-22-13.100039
5	10	1	1	6	stable	1	200	6	sv	purple	turquoise	purple	turquoise	left	right	0.7	0.30000000000000004	6	6	4.199999999999998	1.8000000000000005	0	1	0.7	0.30000000000000004	6	6	4.199999999999998	1.8000000000000005	invalid	0.5831906790008361	51200.0	0	0.0	1.0	51200	1	51200	1	53248	0	0.7	51200	purple	turquoise	1	0	ml	2.7.3	bip	sub-10_ses-01_task-ml_proj-bip_2020-12-08-10-22-13.100039
6	10	1	1	7	stable	1	200	7	sv	purple	turquoise	purple	turquoise	left	right	0.7	0.30000000000000004	6	6	4.199999999999998	1.8000000000000005	1	0	0.7	0.30000000000000004	6	6	4.199999999999998	1.8000000000000005	valid	0.6665062300016871	51200.0	0	0.0	1.0	51200	1	51200	1	53248	0	0.7	51200	purple	turquoise	1	6	ml	2.7.3	bip	sub-10_ses-01_task-ml_proj-bip_2020-12-08-10-22-13.100039
7	10	1	1	8	stable	1	200	8	sv	purple	turquoise	purple	turquoise	left	right	0.7	0.30000000000000004	10	2	7.0	0.6000000000000001	1	0	0.7	0.30000000000000004	10	2	7.0	0.6000000000000001	valid	0.6664996569998038	51200.0	0	0.0	1.0	51200	1	51200	1	51200	1	0.7	51200	purple	turquoise	1	10	ml	2.7.3	bip	sub-10_ses-01_task-ml_proj-bip_2020-12-08-10-22-13.100039
8	10	1	1	9	stable	1	200	9	sv	turquoise	purple	purple	turquoise	right	left	0.7	0.30000000000000004	4	6	2.8	1.8000000000000005	0	1	0.30000000000000004	0.7	6	4	1.8000000000000005	2.8	invalid	0.5665407950000372	53248.0	0	1.0	1.0	53248	1	53248	1	51200	0	0.7	53248	purple	turquoise	0	0	ml	2.7.3	bip	sub-10_ses-01_task-ml_proj-bip_2020-12-08-10-22-13.100039
9	10	1	1	10	stable	1	200	10	sv	turquoise	purple	purple	turquoise	right	left	0.7	0.30000000000000004	10	2	7.0	0.6000000000000001	1	0	0.30000000000000004	0.7	2	10	0.6000000000000001	7.0	valid	0.5832084959984059	53248.0	0	1.0	1.0	53248	1	53248	1	53248	1	0.7	53248	purple	turquoise	1	10	ml	2.7.3	bip	sub-10_ses-01_task-ml_proj-bip_2020-12-08-10-22-13.100039
10	10	1	1	11	stable	1	200	11	sv	turquoise	purple	purple	turquoise	right	left	0.7	0.30000000000000004	2	4	1.4	1.2000000000000002	1	0	0.30000000000000004	0.7	4	2	1.2000000000000002	1.4	valid	0.6331925340000453	53248.0	0	1.0	1.0	53248	1	53248	1	51200	0	0.7	53248	purple	turquoise	0	2	ml	2.7.3	bip	sub-10_ses-01_task-ml_proj-bip_2020-12-08-10-22-13.100039
11	10	1	1	12	stable	1	200	12	sv	turquoise	purple	purple	turquoise	right	left	0.7	0.30000000000000004	2	6	1.4	1.8000000000000005	1	0	0.30000000000000004	0.7	6	2	1.8000000000000005	1.4	valid	0.4165847190015484	53248.0	0	1.0	1.0	51200	0	53248	1	51200	0	0.7	53248	purple	turquoise	0	2	ml	2.7.3	bip	sub-10_ses-01_task-ml_proj-bip_2020-12-08-10-22-13.100039
12	10	1	1	13	stable	1	200	13	sv	purple	turquoise	purple	turquoise	left	right	0.7	0.30000000000000004	6	2	4.199999999999998	0.6000000000000001	1	0	0.7	0.30000000000000004	6	2	4.199999999999998	0.6000000000000001	valid	0.5498657770003774	51200.0	0	0.0	1.0	51200	1	51200	1	51200	1	0.7	51200	purple	turquoise	1	6	ml	2.7.3	bip	sub-10_ses-01_task-ml_proj-bip_2020-12-08-10-22-13.100039
13	10	1	1	14	stable	1	200	14	sv	purple	turquoise	purple	turquoise	left	right	0.7	0.30000000000000004	2	6	1.4	1.8000000000000005	1	0	0.7	0.30000000000000004	2	6	1.4	1.8000000000000005	valid	0.7997969999996712	51200.0	0	0.0	1.0	53248	0	51200	1	53248	0	0.7	51200	purple	turquoise	0	2	ml	2.7.3	bip	sub-10_ses-01_task-ml_proj-bip_2020-12-08-10-22-13.100039
14	10	1	1	15	stable	1	200	15	sv	turquoise	purple	purple	turquoise	right	left	0.7	0.30000000000000004	2	6	1.4	1.8000000000000005	1	0	0.30000000000000004	0.7	6	2	1.8000000000000005	1.4	valid	0.3832615419996728	53248.0	0	1.0	1.0	51200	0	53248	1	51200	0	0.7	53248	purple	turquoise	0	2	ml	2.7.3	bip	sub-10_ses-01_task-ml_proj-bip_2020-12-08-10-22-13.100039
15	10	1	1	16	stable	1	200	16	sv	purple	turquoise	purple	turquoise	left	right	0.7	0.30000000000000004	2	6	1.4	1.8000000000000005	0	1	0.7	0.30000000000000004	2	6	1.4	1.8000000000000005	invalid	0.4665598040010082	51200.0	0	0.0	1.0	53248	0	51200	1	53248	0	0.7	51200	purple	turquoise	0	0	ml	2.7.3	bip	sub-10_ses-01_task-ml_proj-bip_2020-12-08-10-22-13.100039
16	10	1	1	17	stable	1	200	17	sv	purple	turquoise	purple	turquoise	left	right	0.7	0.30000000000000004	2	2	1.4	0.6000000000000001	1	0	0.7	0.30000000000000004	2	2	1.4	0.6000000000000001	valid	0.3999123170015082	51200.0	0	0.0	1.0	51200	1	51200	1	53248	0	0.7	51200	purple	turquoise	1	2	ml	2.7.3	bip	sub-10_ses-01_task-ml_proj-bip_2020-12-08-10-22-13.100039
17	10	1	1	18	stable	1	200	18	sv	turquoise	purple	purple	turquoise	right	left	0.7	0.30000000000000004	4	2	2.8	0.6000000000000001	1	0	0.30000000000000004	0.7	2	4	0.6000000000000001	2.8	valid	0.5165588319996459	53248.0	0	1.0	1.0	53248	1	53248	1	53248	1	0.7	53248	purple	turquoise	1	4	ml	2.7.3	bip	sub-10_ses-01_task-ml_proj-bip_2020-12-08-10-22-13.100039
18	10	1	1	19	stable	1	200	19	sv	purple	turquoise	purple	turquoise	left	right	0.7	0.30000000000000004	2	10	1.4	3.0000000000000004	1	0	0.7	0.30000000000000004	2	10	1.4	3.0000000000000004	valid	0.4332358540013957	51200.0	0	0.0	1.0	53248	0	51200	1	53248	0	0.7	51200	purple	turquoise	0	2	ml	2.7.3	bip	sub-10_ses-01_task-ml_proj-bip_2020-12-08-10-22-13.100039
19	10	1	1	20	stable	1	200	20	sv	turquoise	purple	purple	turquoise	right	left	0.7	0.30000000000000004	2	10	1.4	3.0000000000000004	1	0	0.30000000000000004	0.7	10	2	3.0000000000000004	1.4	valid	0.3999215439998807	53248.0	0	1.0	1.0	51200	0	53248	1	51200	0	0.7	53248	purple	turquoise	0	2	ml	2.7.3	bip	sub-10_ses-01_task-ml_proj-bip_2020-12-08-10-22-13.100039
20	10	1	1	21	stable	1	200	21	sv	turquoise	purple	purple	turquoise	right	left	0.7	0.30000000000000004	2	2	1.4	0.6000000000000001	0	1	0.30000000000000004	0.7	2	2	0.6000000000000001	1.4	invalid	0.5332155939995573	53248.0	0	1.0	1.0	53248	1	53248	1	53248	1	0.7	53248	purple	turquoise	0	0	ml	2.7.3	bip	sub-10_ses-01_task-ml_proj-bip_2020-12-08-10-22-13.100039
21	10	1	1	22	stable	1	200	22	sv	purple	turquoise	purple	turquoise	left	right	0.7	0.30000000000000004	6	2	4.199999999999998	0.6000000000000001	1	0	0.7	0.30000000000000004	6	2	4.199999999999998	0.6000000000000001	valid	0.4832199649990798	51200.0	0	0.0	1.0	51200	1	51200	1	51200	1	0.7	51200	purple	turquoise	1	6	ml	2.7.3	bip	sub-10_ses-01_task-ml_proj-bip_2020-12-08-10-22-13.100039
22	10	1	1	23	stable	1	200	23	sv	purple	turquoise	purple	turquoise	left	right	0.7	0.30000000000000004	2	6	1.4	1.8000000000000005	1	0	0.7	0.30000000000000004	2	6	1.4	1.8000000000000005	valid	0.46656075399914704	51200.0	0	0.0	1.0	53248	0	51200	1	53248	0	0.7	51200	purple	turquoise	0	2	ml	2.7.3	bip	sub-10_ses-01_task-ml_proj-bip_2020-12-08-10-22-13.100039
23	10	1	1	24	stable	1	200	24	sv	turquoise	purple	purple	turquoise	right	left	0.7	0.30000000000000004	10	2	7.0	0.6000000000000001	1	0	0.30000000000000004	0.7	2	10	0.6000000000000001	7.0	valid	0.4998973109995859	53248.0	0	1.0	1.0	53248	1	53248	1	53248	1	0.7	53248	purple	turquoise	1	10	ml	2.7.3	bip	sub-10_ses-01_task-ml_proj-bip_2020-12-08-10-22-13.100039
24	10	1	1	25	stable	1	200	25	sv	purple	turquoise	purple	turquoise	left	right	0.7	0.30000000000000004	6	6	4.199999999999998	1.8000000000000005	1	0	0.7	0.30000000000000004	6	6	4.199999999999998	1.8000000000000005	valid	0.4665564499991888	51200.0	0	0.0	1.0	51200	1	51200	1	53248	0	0.7	51200	purple	turquoise	1	6	ml	2.7.3	bip	sub-10_ses-01_task-ml_proj-bip_2020-12-08-10-22-13.100039
25	10	1	1	26	stable	1	200	26	sv	turquoise	purple	purple	turquoise	right	left	0.7	0.30000000000000004	6	6	4.199999999999998	1.8000000000000005	1	0	0.30000000000000004	0.7	6	6	1.8000000000000005	4.199999999999998	valid	0.4165815030009981	53248.0	0	1.0	1.0	53248	1	53248	1	53248	1	0.7	53248	purple	turquoise	0	6	ml	2.7.3	bip	sub-10_ses-01_task-ml_proj-bip_2020-12-08-10-22-13.100039
26	10	1	1	27	stable	1	200	27	sv	turquoise	purple	purple	turquoise	right	left	0.7	0.30000000000000004	4	6	2.8	1.8000000000000005	1	0	0.30000000000000004	0.7	6	4	1.8000000000000005	2.8	valid	0.4332426539986045	53248.0	0	1.0	1.0	53248	1	53248	1	51200	0	0.7	53248	purple	turquoise	0	4	ml	2.7.3	bip	sub-10_ses-01_task-ml_proj-bip_2020-12-08-10-22-13.100039
27	10	1	1	28	stable	1	200	28	sv	purple	turquoise	purple	turquoise	left	right	0.7	0.30000000000000004	4	6	2.8	1.8000000000000005	0	1	0.7	0.30000000000000004	4	6	2.8	1.8000000000000005	invalid	0.34992292700007965	51200.0	0	0.0	1.0	51200	1	51200	1	53248	0	0.7	51200	purple	turquoise	0	0	ml	2.7.3	bip	sub-10_ses-01_task-ml_proj-bip_2020-12-08-10-22-13.100039
28	10	1	1	29	stable	1	200	29	sv	purple	turquoise	purple	turquoise	left	right	0.7	0.30000000000000004	10	2	7.0	0.6000000000000001	1	0	0.7	0.30000000000000004	10	2	7.0	0.6000000000000001	valid	0.333263717000591	51200.0	0	0.0	1.0	51200	1	51200	1	51200	1	0.7	51200	purple	turquoise	1	10	ml	2.7.3	bip	sub-10_ses-01_task-ml_proj-bip_2020-12-08-10-22-13.100039
29	10	1	1	30	stable	1	200	30	sv	purple	turquoise	purple	turquoise	left	right	0.7	0.30000000000000004	2	4	1.4	1.2000000000000002	1	0	0.7	0.30000000000000004	2	4	1.4	1.2000000000000002	valid	0.466559671000141	51200.0	0	0.0	1.0	51200	1	51200	1	53248	0	0.7	51200	purple	turquoise	0	2	ml	2.7.3	bip	sub-10_ses-01_task-ml_proj-bip_2020-12-08-10-22-13.100039
30	10	1	1	31	stable	1	200	31	sv	purple	turquoise	purple	turquoise	left	right	0.7	0.30000000000000004	4	6	2.8	1.8000000000000005	0	1	0.7	0.30000000000000004	4	6	2.8	1.8000000000000005	invalid	0.34992537000107404	51200.0	0	0.0	1.0	51200	1	51200	1	53248	0	0.7	51200	purple	turquoise	0	0	ml	2.7.3	bip	sub-10_ses-01_task-ml_proj-bip_2020-12-08-10-22-13.100039
31	10	1	1	32	stable	1	200	32	sv	purple	turquoise	purple	turquoise	left	right	0.7	0.30000000000000004	4	6	2.8	1.8000000000000005	1	0	0.7	0.30000000000000004	4	6	2.8	1.8000000000000005	valid	0.29993897100030154	51200.0	0	0.0	1.0	51200	1	51200	1	53248	0	0.7	51200	purple	turquoise	0	4	ml	2.7.3	bip	sub-10_ses-01_task-ml_proj-bip_2020-12-08-10-22-13.100039
32	10	1	1	33	stable	1	200	33	sv	purple	turquoise	purple	turquoise	left	right	0.7	0.30000000000000004	2	2	1.4	0.6000000000000001	1	0	0.7	0.30000000000000004	2	2	1.4	0.6000000000000001	valid	0.4165739629988821	51200.0	0	0.0	1.0	51200	1	51200	1	53248	0	0.7	51200	purple	turquoise	1	2	ml	2.7.3	bip	sub-10_ses-01_task-ml_proj-bip_2020-12-08-10-22-13.100039
33	10	1	1	34	stable	1	200	34	sv	turquoise	purple	purple	turquoise	right	left	0.7	0.30000000000000004	2	10	1.4	3.0000000000000004	0	1	0.30000000000000004	0.7	10	2	3.0000000000000004	1.4	invalid	0.499884763999944	53248.0	0	1.0	1.0	51200	0	53248	1	51200	0	0.7	53248	purple	turquoise	0	0	ml	2.7.3	bip	sub-10_ses-01_task-ml_proj-bip_2020-12-08-10-22-13.100039
34	10	1	1	35	stable	1	200	35	sv	turquoise	purple	purple	turquoise	right	left	0.7	0.30000000000000004	6	2	4.199999999999998	0.6000000000000001	0	1	0.30000000000000004	0.7	2	6	0.6000000000000001	4.199999999999998	invalid	0.3999180580012762	53248.0	0	1.0	1.0	53248	1	53248	1	53248	1	0.7	53248	purple	turquoise	1	0	ml	2.7.3	bip	sub-10_ses-01_task-ml_proj-bip_2020-12-08-10-22-13.100039
35	10	1	1	36	stable	1	200	36	sv	turquoise	purple	purple	turquoise	right	left	0.7	0.30000000000000004	2	6	1.4	1.8000000000000005	1	0	0.30000000000000004	0.7	6	2	1.8000000000000005	1.4	valid	0.4832353419988067	53248.0	0	1.0	1.0	51200	0	53248	1	51200	0	0.7	53248	purple	turquoise	0	2	ml	2.7.3	bip	sub-10_ses-01_task-ml_proj-bip_2020-12-08-10-22-13.100039
36	10	1	1	37	stable	1	200	37	sv	turquoise	purple	purple	turquoise	right	left	0.7	0.30000000000000004	4	2	2.8	0.6000000000000001	0	1	0.30000000000000004	0.7	2	4	0.6000000000000001	2.8	invalid	0.4499128990009922	53248.0	0	1.0	1.0	53248	1	53248	1	53248	1	0.7	53248	purple	turquoise	1	0	ml	2.7.3	bip	sub-10_ses-01_task-ml_proj-bip_2020-12-08-10-22-13.100039
37	10	1	1	38	stable	1	200	38	sv	turquoise	purple	purple	turquoise	right	left	0.7	0.30000000000000004	6	6	4.199999999999998	1.8000000000000005	1	0	0.30000000000000004	0.7	6	6	1.8000000000000005	4.199999999999998	valid	0.5498754780001036	53248.0	0	1.0	1.0	53248	1	53248	1	53248	1	0.7	53248	purple	turquoise	0	6	ml	2.7.3	bip	sub-10_ses-01_task-ml_proj-bip_2020-12-08-10-22-13.100039
38	10	1	1	39	stable	1	200	39	sv	turquoise	purple	purple	turquoise	right	left	0.7	0.30000000000000004	2	2	1.4	0.6000000000000001	1	0	0.30000000000000004	0.7	2	2	0.6000000000000001	1.4	valid	0.5831988109985105	53248.0	0	1.0	1.0	53248	1	53248	1	53248	1	0.7	53248	purple	turquoise	0	2	ml	2.7.3	bip	sub-10_ses-01_task-ml_proj-bip_2020-12-08-10-22-13.100039
39	10	1	1	40	stable	1	200	40	sv	turquoise	purple	purple	turquoise	right	left	0.7	0.30000000000000004	2	10	1.4	3.0000000000000004	0	1	0.30000000000000004	0.7	10	2	3.0000000000000004	1.4	invalid	0.4832293239996943	53248.0	0	1.0	1.0	51200	0	53248	1	51200	0	0.7	53248	purple	turquoise	0	0	ml	2.7.3	bip	sub-10_ses-01_task-ml_proj-bip_2020-12-08-10-22-13.100039
40	10	1	1	41	stable	1	200	41	sv	turquoise	purple	purple	turquoise	right	left	0.7	0.30000000000000004	2	10	1.4	3.0000000000000004	1	0	0.30000000000000004	0.7	10	2	3.0000000000000004	1.4	valid	0.5665370170008828	53248.0	0	1.0	1.0	51200	0	53248	1	51200	0	0.7	53248	purple	turquoise	0	2	ml	2.7.3	bip	sub-10_ses-01_task-ml_proj-bip_2020-12-08-10-22-13.100039
41	10	1	1	42	stable	1	200	42	sv	purple	turquoise	purple	turquoise	left	right	0.7	0.30000000000000004	2	4	1.4	1.2000000000000002	1	0	0.7	0.30000000000000004	2	4	1.4	1.2000000000000002	valid	0.5831894189996092	51200.0	0	0.0	1.0	51200	1	51200	1	53248	0	0.7	51200	purple	turquoise	0	2	ml	2.7.3	bip	sub-10_ses-01_task-ml_proj-bip_2020-12-08-10-22-13.100039
42	10	1	1	43	stable	1	200	43	sv	purple	turquoise	purple	turquoise	left	right	0.7	0.30000000000000004	6	2	4.199999999999998	0.6000000000000001	1	0	0.7	0.30000000000000004	6	2	4.199999999999998	0.6000000000000001	valid	0.5998522379995848	51200.0	0	0.0	1.0	51200	1	51200	1	51200	1	0.7	51200	purple	turquoise	1	6	ml	2.7.3	bip	sub-10_ses-01_task-ml_proj-bip_2020-12-08-10-22-13.100039
43	10	1	1	44	stable	1	200	44	sv	purple	turquoise	purple	turquoise	left	right	0.7	0.30000000000000004	4	2	2.8	0.6000000000000001	1	0	0.7	0.30000000000000004	4	2	2.8	0.6000000000000001	valid	0.5332134529999166	51200.0	0	0.0	1.0	51200	1	51200	1	51200	1	0.7	51200	purple	turquoise	1	4	ml	2.7.3	bip	sub-10_ses-01_task-ml_proj-bip_2020-12-08-10-22-13.100039
44	10	1	1	45	stable	1	200	45	sv	turquoise	purple	purple	turquoise	right	left	0.7	0.30000000000000004	6	4	4.199999999999998	1.2000000000000002	1	0	0.30000000000000004	0.7	4	6	1.2000000000000002	4.199999999999998	valid	0.5498694729994895	53248.0	0	1.0	1.0	53248	1	53248	1	53248	1	0.7	53248	purple	turquoise	1	6	ml	2.7.3	bip	sub-10_ses-01_task-ml_proj-bip_2020-12-08-10-22-13.100039
45	10	1	1	46	stable	1	200	46	sv	purple	turquoise	purple	turquoise	left	right	0.7	0.30000000000000004	10	2	7.0	0.6000000000000001	0	1	0.7	0.30000000000000004	10	2	7.0	0.6000000000000001	invalid	0.4498872029998893	51200.0	0	0.0	1.0	51200	1	51200	1	51200	1	0.7	51200	purple	turquoise	1	0	ml	2.7.3	bip	sub-10_ses-01_task-ml_proj-bip_2020-12-08-10-22-13.100039
46	10	1	1	47	stable	1	200	47	sv	turquoise	purple	purple	turquoise	right	left	0.7	0.30000000000000004	4	2	2.8	0.6000000000000001	1	0	0.30000000000000004	0.7	2	4	0.6000000000000001	2.8	valid	1.649557458000345	53248.0	0	1.0	1.0	53248	1	53248	1	53248	1	0.7	53248	purple	turquoise	1	4	ml	2.7.3	bip	sub-10_ses-01_task-ml_proj-bip_2020-12-08-10-22-13.100039
47	10	1	1	48	stable	1	200	48	sv	turquoise	purple	purple	turquoise	right	left	0.7	0.30000000000000004	4	2	2.8	0.6000000000000001	1	0	0.30000000000000004	0.7	2	4	0.6000000000000001	2.8	valid	0.5498850189997029	53248.0	0	1.0	1.0	53248	1	53248	1	53248	1	0.7	53248	purple	turquoise	1	4	ml	2.7.3	bip	sub-10_ses-01_task-ml_proj-bip_2020-12-08-10-22-13.100039
48	10	1	1	49	stable	1	200	49	sv	turquoise	purple	purple	turquoise	right	left	0.7	0.30000000000000004	4	6	2.8	1.8000000000000005	1	0	0.30000000000000004	0.7	6	4	1.8000000000000005	2.8	valid	0.4998904240001138	53248.0	0	1.0	1.0	53248	1	53248	1	51200	0	0.7	53248	purple	turquoise	0	4	ml	2.7.3	bip	sub-10_ses-01_task-ml_proj-bip_2020-12-08-10-22-13.100039
49	10	1	1	50	stable	1	200	50	sv	purple	turquoise	purple	turquoise	left	right	0.7	0.30000000000000004	2	6	1.4	1.8000000000000005	1	0	0.7	0.30000000000000004	2	6	1.4	1.8000000000000005	valid	0.6165077990008285	51200.0	0	0.0	1.0	53248	0	51200	1	53248	0	0.7	51200	purple	turquoise	0	2	ml	2.7.3	bip	sub-10_ses-01_task-ml_proj-bip_2020-12-08-10-22-13.100039
50	10	1	2	51	stable	1	200	51	sv	turquoise	purple	purple	turquoise	right	left	0.7	0.30000000000000004	2	6	1.4	1.8000000000000005	0	1	0.30000000000000004	0.7	6	2	1.8000000000000005	1.4	invalid	0.9330979099995602	53248.0	0	1.0	1.0	51200	0	53248	1	51200	0	0.7	53248	purple	turquoise	0	0	ml	2.7.3	bip	sub-10_ses-01_task-ml_proj-bip_2020-12-08-10-22-13.100039
51	10	1	2	52	stable	1	200	52	sv	purple	turquoise	purple	turquoise	left	right	0.7	0.30000000000000004	2	10	1.4	3.0000000000000004	1	0	0.7	0.30000000000000004	2	10	1.4	3.0000000000000004	valid	0.5498647380009061	51200.0	0	0.0	1.0	53248	0	51200	1	53248	0	0.7	51200	purple	turquoise	0	2	ml	2.7.3	bip	sub-10_ses-01_task-ml_proj-bip_2020-12-08-10-22-13.100039
52	10	1	2	53	stable	1	200	53	sv	turquoise	purple	purple	turquoise	right	left	0.7	0.30000000000000004	2	10	1.4	3.0000000000000004	1	0	0.30000000000000004	0.7	10	2	3.0000000000000004	1.4	valid	0.4499069480007165	53248.0	0	1.0	1.0	51200	0	53248	1	51200	0	0.7	53248	purple	turquoise	0	2	ml	2.7.3	bip	sub-10_ses-01_task-ml_proj-bip_2020-12-08-10-22-13.100039
53	10	1	2	54	stable	1	200	54	sv	purple	turquoise	purple	turquoise	left	right	0.7	0.30000000000000004	6	2	4.199999999999998	0.6000000000000001	1	0	0.7	0.30000000000000004	6	2	4.199999999999998	0.6000000000000001	valid	0.4165649829992617	51200.0	0	0.0	1.0	51200	1	51200	1	51200	1	0.7	51200	purple	turquoise	1	6	ml	2.7.3	bip	sub-10_ses-01_task-ml_proj-bip_2020-12-08-10-22-13.100039
54	10	1	2	55	stable	1	200	55	sv	purple	turquoise	purple	turquoise	left	right	0.7	0.30000000000000004	6	4	4.199999999999998	1.2000000000000002	0	1	0.7	0.30000000000000004	6	4	4.199999999999998	1.2000000000000002	invalid	0.483243994998702	51200.0	0	0.0	1.0	51200	1	51200	1	51200	1	0.7	51200	purple	turquoise	1	0	ml	2.7.3	bip	sub-10_ses-01_task-ml_proj-bip_2020-12-08-10-22-13.100039
55	10	1	2	56	stable	1	200	56	sv	turquoise	purple	purple	turquoise	right	left	0.7	0.30000000000000004	4	6	2.8	1.8000000000000005	1	0	0.30000000000000004	0.7	6	4	1.8000000000000005	2.8	valid	1.2496762779992423	53248.0	0	1.0	1.0	53248	1	53248	1	51200	0	0.7	53248	purple	turquoise	0	4	ml	2.7.3	bip	sub-10_ses-01_task-ml_proj-bip_2020-12-08-10-22-13.100039
56	10	1	2	57	stable	1	200	57	sv	turquoise	purple	purple	turquoise	right	left	0.7	0.30000000000000004	6	6	4.199999999999998	1.8000000000000005	1	0	0.30000000000000004	0.7	6	6	1.8000000000000005	4.199999999999998	valid	0.5165601189983136	53248.0	0	1.0	1.0	53248	1	53248	1	53248	1	0.7	53248	purple	turquoise	0	6	ml	2.7.3	bip	sub-10_ses-01_task-ml_proj-bip_2020-12-08-10-22-13.100039
57	10	1	2	58	stable	1	200	58	sv	purple	turquoise	purple	turquoise	left	right	0.7	0.30000000000000004	6	2	4.199999999999998	0.6000000000000001	1	0	0.7	0.30000000000000004	6	2	4.199999999999998	0.6000000000000001	valid	0.4665505949997169	51200.0	0	0.0	1.0	51200	1	51200	1	51200	1	0.7	51200	purple	turquoise	1	6	ml	2.7.3	bip	sub-10_ses-01_task-ml_proj-bip_2020-12-08-10-22-13.100039
58	10	1	2	59	stable	1	200	59	sv	turquoise	purple	purple	turquoise	right	left	0.7	0.30000000000000004	6	6	4.199999999999998	1.8000000000000005	1	0	0.30000000000000004	0.7	6	6	1.8000000000000005	4.199999999999998	valid	0.3832701160008583	53248.0	0	1.0	1.0	53248	1	53248	1	53248	1	0.7	53248	purple	turquoise	0	6	ml	2.7.3	bip	sub-10_ses-01_task-ml_proj-bip_2020-12-08-10-22-13.100039
59	10	1	2	60	stable	1	200	60	sv	turquoise	purple	purple	turquoise	right	left	0.7	0.30000000000000004	2	10	1.4	3.0000000000000004	1	0	0.30000000000000004	0.7	10	2	3.0000000000000004	1.4	valid	0.5998617879995436	53248.0	0	1.0	1.0	51200	0	53248	1	51200	0	0.7	53248	purple	turquoise	0	2	ml	2.7.3	bip	sub-10_ses-01_task-ml_proj-bip_2020-12-08-10-22-13.100039
60	10	1	2	61	stable	1	200	61	sv	purple	turquoise	purple	turquoise	left	right	0.7	0.30000000000000004	2	6	1.4	1.8000000000000005	0	1	0.7	0.30000000000000004	2	6	1.4	1.8000000000000005	invalid	0.4332335770013742	51200.0	0	0.0	1.0	53248	0	51200	1	53248	0	0.7	51200	purple	turquoise	0	0	ml	2.7.3	bip	sub-10_ses-01_task-ml_proj-bip_2020-12-08-10-22-13.100039
61	10	1	2	62	stable	1	200	62	sv	turquoise	purple	purple	turquoise	right	left	0.7	0.30000000000000004	4	2	2.8	0.6000000000000001	1	0	0.30000000000000004	0.7	2	4	0.6000000000000001	2.8	valid	0.399920273999669	53248.0	0	1.0	1.0	53248	1	53248	1	53248	1	0.7	53248	purple	turquoise	1	4	ml	2.7.3	bip	sub-10_ses-01_task-ml_proj-bip_2020-12-08-10-22-13.100039
62	10	1	2	63	stable	1	200	63	sv	purple	turquoise	purple	turquoise	left	right	0.7	0.30000000000000004	6	2	4.199999999999998	0.6000000000000001	1	0	0.7	0.30000000000000004	6	2	4.199999999999998	0.6000000000000001	valid	0.5498600189985154	51200.0	0	0.0	1.0	51200	1	51200	1	51200	1	0.7	51200	purple	turquoise	1	6	ml	2.7.3	bip	sub-10_ses-01_task-ml_proj-bip_2020-12-08-10-22-13.100039
63	10	1	2	64	stable	1	200	64	sv	turquoise	purple	purple	turquoise	right	left	0.7	0.30000000000000004	2	2	1.4	0.6000000000000001	1	0	0.30000000000000004	0.7	2	2	0.6000000000000001	1.4	valid	0.4165888509996876	53248.0	0	1.0	1.0	53248	1	53248	1	53248	1	0.7	53248	purple	turquoise	0	2	ml	2.7.3	bip	sub-10_ses-01_task-ml_proj-bip_2020-12-08-10-22-13.100039
64	10	1	2	65	stable	1	200	65	sv	purple	turquoise	purple	turquoise	left	right	0.7	0.30000000000000004	2	10	1.4	3.0000000000000004	1	0	0.7	0.30000000000000004	2	10	1.4	3.0000000000000004	valid	0.4498935880001227	51200.0	0	0.0	1.0	53248	0	51200	1	53248	0	0.7	51200	purple	turquoise	0	2	ml	2.7.3	bip	sub-10_ses-01_task-ml_proj-bip_2020-12-08-10-22-13.100039
65	10	1	2	66	stable	1	200	66	sv	purple	turquoise	purple	turquoise	left	right	0.7	0.30000000000000004	6	4	4.199999999999998	1.2000000000000002	0	1	0.7	0.30000000000000004	6	4	4.199999999999998	1.2000000000000002	invalid	0.5332053859983716	51200.0	0	0.0	1.0	51200	1	51200	1	51200	1	0.7	51200	purple	turquoise	1	0	ml	2.7.3	bip	sub-10_ses-01_task-ml_proj-bip_2020-12-08-10-22-13.100039
66	10	1	2	67	stable	1	200	67	sv	turquoise	purple	purple	turquoise	right	left	0.7	0.30000000000000004	2	2	1.4	0.6000000000000001	1	0	0.30000000000000004	0.7	2	2	0.6000000000000001	1.4	valid	0.48322066500077204	51200.0	0	0.0	2.0	53248	0	53248	0	53248	0	0.7	53248	purple	turquoise	0	0	ml	2.7.3	bip	sub-10_ses-01_task-ml_proj-bip_2020-12-08-10-22-13.100039
67	10	1	2	68	stable	1	200	68	sv	turquoise	purple	purple	turquoise	right	left	0.7	0.30000000000000004	4	2	2.8	0.6000000000000001	1	0	0.30000000000000004	0.7	2	4	0.6000000000000001	2.8	valid	0.5165544730007241	53248.0	0	1.0	1.0	53248	1	53248	1	53248	1	0.7	53248	purple	turquoise	1	4	ml	2.7.3	bip	sub-10_ses-01_task-ml_proj-bip_2020-12-08-10-22-13.100039
68	10	1	2	69	stable	1	200	69	sv	turquoise	purple	purple	turquoise	right	left	0.7	0.30000000000000004	10	2	7.0	0.6000000000000001	0	1	0.30000000000000004	0.7	2	10	0.6000000000000001	7.0	invalid	0.5831999969996104	53248.0	0	1.0	1.0	53248	1	53248	1	53248	1	0.7	53248	purple	turquoise	1	0	ml	2.7.3	bip	sub-10_ses-01_task-ml_proj-bip_2020-12-08-10-22-13.100039
69	10	1	2	70	stable	1	200	70	sv	purple	turquoise	purple	turquoise	left	right	0.7	0.30000000000000004	6	6	4.199999999999998	1.8000000000000005	0	1	0.7	0.30000000000000004	6	6	4.199999999999998	1.8000000000000005	invalid	0.7164856880008301	51200.0	0	0.0	1.0	51200	1	51200	1	53248	0	0.7	51200	purple	turquoise	1	0	ml	2.7.3	bip	sub-10_ses-01_task-ml_proj-bip_2020-12-08-10-22-13.100039
70	10	1	2	71	stable	1	200	71	sv	purple	turquoise	purple	turquoise	left	right	0.7	0.30000000000000004	4	6	2.8	1.8000000000000005	1	0	0.7	0.30000000000000004	4	6	2.8	1.8000000000000005	valid	0.533203084998604	51200.0	0	0.0	1.0	51200	1	51200	1	53248	0	0.7	51200	purple	turquoise	0	4	ml	2.7.3	bip	sub-10_ses-01_task-ml_proj-bip_2020-12-08-10-22-13.100039
71	10	1	2	72	stable	1	200	72	sv	turquoise	purple	purple	turquoise	right	left	0.7	0.30000000000000004	2	2	1.4	0.6000000000000001	0	1	0.30000000000000004	0.7	2	2	0.6000000000000001	1.4	invalid	0.5165607380004076	53248.0	0	1.0	1.0	53248	1	53248	1	53248	1	0.7	53248	purple	turquoise	0	0	ml	2.7.3	bip	sub-10_ses-01_task-ml_proj-bip_2020-12-08-10-22-13.100039
72	10	1	2	73	stable	1	200	73	sv	purple	turquoise	purple	turquoise	left	right	0.7	0.30000000000000004	2	2	1.4	0.6000000000000001	1	0	0.7	0.30000000000000004	2	2	1.4	0.6000000000000001	valid	0.7331537480004044	51200.0	0	0.0	1.0	51200	1	51200	1	53248	0	0.7	51200	purple	turquoise	1	2	ml	2.7.3	bip	sub-10_ses-01_task-ml_proj-bip_2020-12-08-10-22-13.100039
73	10	1	2	74	stable	1	200	74	sv	purple	turquoise	purple	turquoise	left	right	0.7	0.30000000000000004	2	2	1.4	0.6000000000000001	1	0	0.7	0.30000000000000004	2	2	1.4	0.6000000000000001	valid	0.4332280169983278	51200.0	0	0.0	1.0	51200	1	51200	1	53248	0	0.7	51200	purple	turquoise	1	2	ml	2.7.3	bip	sub-10_ses-01_task-ml_proj-bip_2020-12-08-10-22-13.100039
74	10	1	2	75	stable	1	200	75	sv	turquoise	purple	purple	turquoise	right	left	0.7	0.30000000000000004	2	2	1.4	0.6000000000000001	0	1	0.30000000000000004	0.7	2	2	0.6000000000000001	1.4	invalid	0.4832307550004771	53248.0	0	1.0	1.0	53248	1	53248	1	53248	1	0.7	53248	purple	turquoise	0	0	ml	2.7.3	bip	sub-10_ses-01_task-ml_proj-bip_2020-12-08-10-22-13.100039
75	10	1	2	76	stable	1	200	76	sv	purple	turquoise	purple	turquoise	left	right	0.7	0.30000000000000004	6	6	4.199999999999998	1.8000000000000005	1	0	0.7	0.30000000000000004	6	6	4.199999999999998	1.8000000000000005	valid	0.6165146580005967	51200.0	0	0.0	1.0	51200	1	51200	1	53248	0	0.7	51200	purple	turquoise	1	6	ml	2.7.3	bip	sub-10_ses-01_task-ml_proj-bip_2020-12-08-10-22-13.100039
76	10	1	2	77	stable	1	200	77	sv	purple	turquoise	purple	turquoise	left	right	0.7	0.30000000000000004	2	10	1.4	3.0000000000000004	0	1	0.7	0.30000000000000004	2	10	1.4	3.0000000000000004	invalid	0.7164820289999625	51200.0	0	0.0	1.0	53248	0	51200	1	53248	0	0.7	51200	purple	turquoise	0	0	ml	2.7.3	bip	sub-10_ses-01_task-ml_proj-bip_2020-12-08-10-22-13.100039
77	10	1	2	78	stable	1	200	78	sv	purple	turquoise	purple	turquoise	left	right	0.7	0.30000000000000004	6	2	4.199999999999998	0.6000000000000001	1	0	0.7	0.30000000000000004	6	2	4.199999999999998	0.6000000000000001	valid	0.5665348219990847	51200.0	0	0.0	1.0	51200	1	51200	1	51200	1	0.7	51200	purple	turquoise	1	6	ml	2.7.3	bip	sub-10_ses-01_task-ml_proj-bip_2020-12-08-10-22-13.100039
78	10	1	2	79	stable	1	200	79	sv	purple	turquoise	purple	turquoise	left	right	0.7	0.30000000000000004	4	6	2.8	1.8000000000000005	1	0	0.7	0.30000000000000004	4	6	2.8	1.8000000000000005	valid	0.6165139250006177	51200.0	0	0.0	1.0	51200	1	51200	1	53248	0	0.7	51200	purple	turquoise	0	4	ml	2.7.3	bip	sub-10_ses-01_task-ml_proj-bip_2020-12-08-10-22-13.100039
79	10	1	2	80	stable	1	200	80	sv	turquoise	purple	purple	turquoise	right	left	0.7	0.30000000000000004	2	2	1.4	0.6000000000000001	1	0	0.30000000000000004	0.7	2	2	0.6000000000000001	1.4	valid	1.0164063400006853	53248.0	0	1.0	1.0	53248	1	53248	1	53248	1	0.7	53248	purple	turquoise	0	2	ml	2.7.3	bip	sub-10_ses-01_task-ml_proj-bip_2020-12-08-10-22-13.100039
80	10	1	2	81	stable	1	200	81	sv	turquoise	purple	purple	turquoise	right	left	0.7	0.30000000000000004	4	6	2.8	1.8000000000000005	0	1	0.30000000000000004	0.7	6	4	1.8000000000000005	2.8	invalid	1.0997125149988278	51200.0	0	0.0	2.0	53248	0	53248	0	51200	1	0.7	53248	purple	turquoise	0	6	ml	2.7.3	bip	sub-10_ses-01_task-ml_proj-bip_2020-12-08-10-22-13.100039
81	10	1	2	82	stable	1	200	82	sv	purple	turquoise	purple	turquoise	left	right	0.7	0.30000000000000004	6	2	4.199999999999998	0.6000000000000001	1	0	0.7	0.30000000000000004	6	2	4.199999999999998	0.6000000000000001	valid	0.6831599440010905	51200.0	0	0.0	1.0	51200	1	51200	1	51200	1	0.7	51200	purple	turquoise	1	6	ml	2.7.3	bip	sub-10_ses-01_task-ml_proj-bip_2020-12-08-10-22-13.100039
82	10	1	2	83	stable	1	200	83	sv	turquoise	purple	purple	turquoise	right	left	0.7	0.30000000000000004	2	4	1.4	1.2000000000000002	0	1	0.30000000000000004	0.7	4	2	1.2000000000000002	1.4	invalid	0.966411313000208	51200.0	0	0.0	2.0	53248	0	53248	0	51200	1	0.7	53248	purple	turquoise	0	4	ml	2.7.3	bip	sub-10_ses-01_task-ml_proj-bip_2020-12-08-10-22-13.100039
83	10	1	2	84	stable	1	200	84	sv	purple	turquoise	purple	turquoise	left	right	0.7	0.30000000000000004	4	6	2.8	1.8000000000000005	0	1	0.7	0.30000000000000004	4	6	2.8	1.8000000000000005	invalid	0.46656950299984606	53248.0	0	1.0	2.0	51200	0	51200	0	53248	1	0.7	51200	purple	turquoise	0	6	ml	2.7.3	bip	sub-10_ses-01_task-ml_proj-bip_2020-12-08-10-22-13.100039
84	10	1	2	85	stable	1	200	85	sv	purple	turquoise	purple	turquoise	left	right	0.7	0.30000000000000004	4	2	2.8	0.6000000000000001	0	1	0.7	0.30000000000000004	4	2	2.8	0.6000000000000001	invalid	0.6664987390013266	51200.0	0	0.0	1.0	51200	1	51200	1	51200	1	0.7	51200	purple	turquoise	1	0	ml	2.7.3	bip	sub-10_ses-01_task-ml_proj-bip_2020-12-08-10-22-13.100039
85	10	1	2	86	stable	1	200	86	sv	purple	turquoise	purple	turquoise	left	right	0.7	0.30000000000000004	4	6	2.8	1.8000000000000005	1	0	0.7	0.30000000000000004	4	6	2.8	1.8000000000000005	valid	0.5498680589989817	51200.0	0	0.0	1.0	51200	1	51200	1	53248	0	0.7	51200	purple	turquoise	0	4	ml	2.7.3	bip	sub-10_ses-01_task-ml_proj-bip_2020-12-08-10-22-13.100039
86	10	1	2	87	stable	1	200	87	sv	purple	turquoise	purple	turquoise	left	right	0.7	0.30000000000000004	6	2	4.199999999999998	0.6000000000000001	1	0	0.7	0.30000000000000004	6	2	4.199999999999998	0.6000000000000001	valid	0.5831856379991223	51200.0	0	0.0	1.0	51200	1	51200	1	51200	1	0.7	51200	purple	turquoise	1	6	ml	2.7.3	bip	sub-10_ses-01_task-ml_proj-bip_2020-12-08-10-22-13.100039
87	10	1	2	88	stable	1	200	88	sv	turquoise	purple	purple	turquoise	right	left	0.7	0.30000000000000004	6	4	4.199999999999998	1.2000000000000002	1	0	0.30000000000000004	0.7	4	6	1.2000000000000002	4.199999999999998	valid	0.483269663000101	53248.0	0	1.0	1.0	53248	1	53248	1	53248	1	0.7	53248	purple	turquoise	1	6	ml	2.7.3	bip	sub-10_ses-01_task-ml_proj-bip_2020-12-08-10-22-13.100039
88	10	1	2	89	stable	1	200	89	sv	purple	turquoise	purple	turquoise	left	right	0.7	0.30000000000000004	6	4	4.199999999999998	1.2000000000000002	0	1	0.7	0.30000000000000004	6	4	4.199999999999998	1.2000000000000002	invalid	0.3999119129985047	51200.0	0	0.0	1.0	51200	1	51200	1	51200	1	0.7	51200	purple	turquoise	1	0	ml	2.7.3	bip	sub-10_ses-01_task-ml_proj-bip_2020-12-08-10-22-13.100039
89	10	1	2	90	stable	1	200	90	sv	turquoise	purple	purple	turquoise	right	left	0.7	0.30000000000000004	4	6	2.8	1.8000000000000005	1	0	0.30000000000000004	0.7	6	4	1.8000000000000005	2.8	valid	0.3999219620000076	53248.0	0	1.0	1.0	53248	1	53248	1	51200	0	0.7	53248	purple	turquoise	0	4	ml	2.7.3	bip	sub-10_ses-01_task-ml_proj-bip_2020-12-08-10-22-13.100039
90	10	1	2	91	stable	1	200	91	sv	purple	turquoise	purple	turquoise	left	right	0.7	0.30000000000000004	4	6	2.8	1.8000000000000005	1	0	0.7	0.30000000000000004	4	6	2.8	1.8000000000000005	valid	0.6498375320006744	51200.0	0	0.0	1.0	51200	1	51200	1	53248	0	0.7	51200	purple	turquoise	0	4	ml	2.7.3	bip	sub-10_ses-01_task-ml_proj-bip_2020-12-08-10-22-13.100039
91	10	1	2	92	stable	1	200	92	sv	turquoise	purple	purple	turquoise	right	left	0.7	0.30000000000000004	6	4	4.199999999999998	1.2000000000000002	0	1	0.30000000000000004	0.7	4	6	1.2000000000000002	4.199999999999998	invalid	0.5665398080000159	53248.0	0	1.0	1.0	53248	1	53248	1	53248	1	0.7	53248	purple	turquoise	1	0	ml	2.7.3	bip	sub-10_ses-01_task-ml_proj-bip_2020-12-08-10-22-13.100039
92	10	1	2	93	stable	1	200	93	sv	purple	turquoise	purple	turquoise	left	right	0.7	0.30000000000000004	4	2	2.8	0.6000000000000001	1	0	0.7	0.30000000000000004	4	2	2.8	0.6000000000000001	valid	0.4832309749999695	53248.0	0	1.0	2.0	51200	0	51200	0	51200	0	0.7	51200	purple	turquoise	1	0	ml	2.7.3	bip	sub-10_ses-01_task-ml_proj-bip_2020-12-08-10-22-13.100039
93	10	1	2	94	stable	1	200	94	sv	turquoise	purple	purple	turquoise	right	left	0.7	0.30000000000000004	2	2	1.4	0.6000000000000001	0	1	0.30000000000000004	0.7	2	2	0.6000000000000001	1.4	invalid	0.433238612000423	53248.0	0	1.0	1.0	53248	1	53248	1	53248	1	0.7	53248	purple	turquoise	0	0	ml	2.7.3	bip	sub-10_ses-01_task-ml_proj-bip_2020-12-08-10-22-13.100039
94	10	1	2	95	stable	1	200	95	sv	turquoise	purple	purple	turquoise	right	left	0.7	0.30000000000000004	6	2	4.199999999999998	0.6000000000000001	0	1	0.30000000000000004	0.7	2	6	0.6000000000000001	4.199999999999998	invalid	0.3999208790010016	53248.0	0	1.0	1.0	53248	1	53248	1	53248	1	0.7	53248	purple	turquoise	1	0	ml	2.7.3	bip	sub-10_ses-01_task-ml_proj-bip_2020-12-08-10-22-13.100039
95	10	1	2	96	stable	1	200	96	sv	purple	turquoise	purple	turquoise	left	right	0.7	0.30000000000000004	2	4	1.4	1.2000000000000002	0	1	0.7	0.30000000000000004	2	4	1.4	1.2000000000000002	invalid	0.5332045510003809	51200.0	0	0.0	1.0	51200	1	51200	1	53248	0	0.7	51200	purple	turquoise	0	0	ml	2.7.3	bip	sub-10_ses-01_task-ml_proj-bip_2020-12-08-10-22-13.100039
96	10	1	2	97	stable	1	200	97	sv	turquoise	purple	purple	turquoise	right	left	0.7	0.30000000000000004	2	10	1.4	3.0000000000000004	0	1	0.30000000000000004	0.7	10	2	3.0000000000000004	1.4	invalid	0.6498388729996805	51200.0	0	0.0	2.0	51200	1	53248	0	51200	1	0.7	53248	purple	turquoise	0	10	ml	2.7.3	bip	sub-10_ses-01_task-ml_proj-bip_2020-12-08-10-22-13.100039
97	10	1	2	98	stable	1	200	98	sv	purple	turquoise	purple	turquoise	left	right	0.7	0.30000000000000004	2	6	1.4	1.8000000000000005	1	0	0.7	0.30000000000000004	2	6	1.4	1.8000000000000005	valid	0.43324425399987376	53248.0	0	1.0	2.0	53248	1	51200	0	53248	1	0.7	51200	purple	turquoise	0	0	ml	2.7.3	bip	sub-10_ses-01_task-ml_proj-bip_2020-12-08-10-22-13.100039
98	10	1	2	99	stable	1	200	99	sv	purple	turquoise	purple	turquoise	left	right	0.7	0.30000000000000004	4	6	2.8	1.8000000000000005	0	1	0.7	0.30000000000000004	4	6	2.8	1.8000000000000005	invalid	0.5665355019991694	51200.0	0	0.0	1.0	51200	1	51200	1	53248	0	0.7	51200	purple	turquoise	0	0	ml	2.7.3	bip	sub-10_ses-01_task-ml_proj-bip_2020-12-08-10-22-13.100039
99	10	1	2	100	stable	1	200	100	sv	turquoise	purple	purple	turquoise	right	left	0.7	0.30000000000000004	10	2	7.0	0.6000000000000001	1	0	0.30000000000000004	0.7	2	10	0.6000000000000001	7.0	valid	1.416284615001132	53248.0	0	1.0	1.0	53248	1	53248	1	53248	1	0.7	53248	purple	turquoise	1	10	ml	2.7.3	bip	sub-10_ses-01_task-ml_proj-bip_2020-12-08-10-22-13.100039
100	10	1	3	101	stable	1	200	101	sv	purple	turquoise	purple	turquoise	left	right	0.7	0.30000000000000004	10	2	7.0	0.6000000000000001	1	0	0.7	0.30000000000000004	10	2	7.0	0.6000000000000001	valid	0.833117776999643	51200.0	0	0.0	1.0	51200	1	51200	1	51200	1	0.7	51200	purple	turquoise	1	10	ml	2.7.3	bip	sub-10_ses-01_task-ml_proj-bip_2020-12-08-10-22-13.100039
101	10	1	3	102	stable	1	200	102	sv	turquoise	purple	purple	turquoise	right	left	0.7	0.30000000000000004	4	2	2.8	0.6000000000000001	0	1	0.30000000000000004	0.7	2	4	0.6000000000000001	2.8	invalid	0.5665374599993811	53248.0	0	1.0	1.0	53248	1	53248	1	53248	1	0.7	53248	purple	turquoise	1	0	ml	2.7.3	bip	sub-10_ses-01_task-ml_proj-bip_2020-12-08-10-22-13.100039
102	10	1	3	103	stable	1	200	103	sv	purple	turquoise	purple	turquoise	left	right	0.7	0.30000000000000004	4	2	2.8	0.6000000000000001	0	1	0.7	0.30000000000000004	4	2	2.8	0.6000000000000001	invalid	0.5165436339993903	51200.0	0	0.0	1.0	51200	1	51200	1	51200	1	0.7	51200	purple	turquoise	1	0	ml	2.7.3	bip	sub-10_ses-01_task-ml_proj-bip_2020-12-08-10-22-13.100039
103	10	1	3	104	stable	1	200	104	sv	turquoise	purple	purple	turquoise	right	left	0.7	0.30000000000000004	2	10	1.4	3.0000000000000004	1	0	0.30000000000000004	0.7	10	2	3.0000000000000004	1.4	valid	1.183018918000016	51200.0	0	0.0	2.0	51200	1	53248	0	51200	1	0.7	53248	purple	turquoise	0	0	ml	2.7.3	bip	sub-10_ses-01_task-ml_proj-bip_2020-12-08-10-22-13.100039
104	10	1	3	105	stable	1	200	105	sv	purple	turquoise	purple	turquoise	left	right	0.7	0.30000000000000004	10	2	7.0	0.6000000000000001	1	0	0.7	0.30000000000000004	10	2	7.0	0.6000000000000001	valid	0.7997954429993115	51200.0	0	0.0	1.0	51200	1	51200	1	51200	1	0.7	51200	purple	turquoise	1	10	ml	2.7.3	bip	sub-10_ses-01_task-ml_proj-bip_2020-12-08-10-22-13.100039
105	10	1	3	106	stable	1	200	106	sv	turquoise	purple	purple	turquoise	right	left	0.7	0.30000000000000004	10	2	7.0	0.6000000000000001	1	0	0.30000000000000004	0.7	2	10	0.6000000000000001	7.0	valid	0.5665396040003543	53248.0	0	1.0	1.0	53248	1	53248	1	53248	1	0.7	53248	purple	turquoise	1	10	ml	2.7.3	bip	sub-10_ses-01_task-ml_proj-bip_2020-12-08-10-22-13.100039
106	10	1	3	107	stable	1	200	107	sv	turquoise	purple	purple	turquoise	right	left	0.7	0.30000000000000004	2	4	1.4	1.2000000000000002	1	0	0.30000000000000004	0.7	4	2	1.2000000000000002	1.4	valid	0.5665421600006084	53248.0	0	1.0	1.0	53248	1	53248	1	51200	0	0.7	53248	purple	turquoise	0	2	ml	2.7.3	bip	sub-10_ses-01_task-ml_proj-bip_2020-12-08-10-22-13.100039
107	10	1	3	108	stable	1	200	108	sv	purple	turquoise	purple	turquoise	left	right	0.7	0.30000000000000004	6	2	4.199999999999998	0.6000000000000001	1	0	0.7	0.30000000000000004	6	2	4.199999999999998	0.6000000000000001	valid	0.4665621280000778	51200.0	0	0.0	1.0	51200	1	51200	1	51200	1	0.7	51200	purple	turquoise	1	6	ml	2.7.3	bip	sub-10_ses-01_task-ml_proj-bip_2020-12-08-10-22-13.100039
108	10	1	3	109	stable	1	200	109	sv	turquoise	purple	purple	turquoise	right	left	0.7	0.30000000000000004	6	4	4.199999999999998	1.2000000000000002	1	0	0.30000000000000004	0.7	4	6	1.2000000000000002	4.199999999999998	valid	0.4332460259993241	53248.0	0	1.0	1.0	53248	1	53248	1	53248	1	0.7	53248	purple	turquoise	1	6	ml	2.7.3	bip	sub-10_ses-01_task-ml_proj-bip_2020-12-08-10-22-13.100039
109	10	1	3	110	stable	1	200	110	sv	purple	turquoise	purple	turquoise	left	right	0.7	0.30000000000000004	4	2	2.8	0.6000000000000001	0	1	0.7	0.30000000000000004	4	2	2.8	0.6000000000000001	invalid	0.4332348230000207	51200.0	0	0.0	1.0	51200	1	51200	1	51200	1	0.7	51200	purple	turquoise	1	0	ml	2.7.3	bip	sub-10_ses-01_task-ml_proj-bip_2020-12-08-10-22-13.100039
110	10	1	3	111	stable	1	200	111	sv	turquoise	purple	purple	turquoise	right	left	0.7	0.30000000000000004	4	2	2.8	0.6000000000000001	1	0	0.30000000000000004	0.7	2	4	0.6000000000000001	2.8	valid	0.4832278949997999	53248.0	0	1.0	1.0	53248	1	53248	1	53248	1	0.7	53248	purple	turquoise	1	4	ml	2.7.3	bip	sub-10_ses-01_task-ml_proj-bip_2020-12-08-10-22-13.100039
111	10	1	3	112	stable	1	200	112	sv	turquoise	purple	purple	turquoise	right	left	0.7	0.30000000000000004	6	2	4.199999999999998	0.6000000000000001	0	1	0.30000000000000004	0.7	2	6	0.6000000000000001	4.199999999999998	invalid	0.5665393540002697	53248.0	0	1.0	1.0	53248	1	53248	1	53248	1	0.7	53248	purple	turquoise	1	0	ml	2.7.3	bip	sub-10_ses-01_task-ml_proj-bip_2020-12-08-10-22-13.100039
112	10	1	3	113	stable	1	200	113	sv	purple	turquoise	purple	turquoise	left	right	0.7	0.30000000000000004	2	2	1.4	0.6000000000000001	0	1	0.7	0.30000000000000004	2	2	1.4	0.6000000000000001	invalid	0.6331791089996841	51200.0	0	0.0	1.0	51200	1	51200	1	53248	0	0.7	51200	purple	turquoise	1	0	ml	2.7.3	bip	sub-10_ses-01_task-ml_proj-bip_2020-12-08-10-22-13.100039
113	10	1	3	114	stable	1	200	114	sv	turquoise	purple	purple	turquoise	right	left	0.7	0.30000000000000004	2	4	1.4	1.2000000000000002	0	1	0.30000000000000004	0.7	4	2	1.2000000000000002	1.4	invalid	0.5831943479988695	53248.0	0	1.0	1.0	53248	1	53248	1	51200	0	0.7	53248	purple	turquoise	0	0	ml	2.7.3	bip	sub-10_ses-01_task-ml_proj-bip_2020-12-08-10-22-13.100039
114	10	1	3	115	stable	1	200	115	sv	purple	turquoise	purple	turquoise	left	right	0.7	0.30000000000000004	6	2	4.199999999999998	0.6000000000000001	1	0	0.7	0.30000000000000004	6	2	4.199999999999998	0.6000000000000001	valid	0.6664963459988941	51200.0	0	0.0	1.0	51200	1	51200	1	51200	1	0.7	51200	purple	turquoise	1	6	ml	2.7.3	bip	sub-10_ses-01_task-ml_proj-bip_2020-12-08-10-22-13.100039
115	10	1	3	116	stable	1	200	116	sv	purple	turquoise	purple	turquoise	left	right	0.7	0.30000000000000004	2	10	1.4	3.0000000000000004	1	0	0.7	0.30000000000000004	2	10	1.4	3.0000000000000004	valid	0.666499038999973	51200.0	0	0.0	1.0	53248	0	51200	1	53248	0	0.7	51200	purple	turquoise	0	2	ml	2.7.3	bip	sub-10_ses-01_task-ml_proj-bip_2020-12-08-10-22-13.100039
116	10	1	3	117	stable	1	200	117	sv	purple	turquoise	purple	turquoise	left	right	0.7	0.30000000000000004	2	4	1.4	1.2000000000000002	1	0	0.7	0.30000000000000004	2	4	1.4	1.2000000000000002	valid	0.983067717999802	51200.0	0	0.0	1.0	51200	1	51200	1	53248	0	0.7	51200	purple	turquoise	0	2	ml	2.7.3	bip	sub-10_ses-01_task-ml_proj-bip_2020-12-08-10-22-13.100039
117	10	1	3	118	stable	1	200	118	sv	turquoise	purple	purple	turquoise	right	left	0.7	0.30000000000000004	2	4	1.4	1.2000000000000002	0	1	0.30000000000000004	0.7	4	2	1.2000000000000002	1.4	invalid	1.1996876089997386	53248.0	0	1.0	1.0	53248	1	53248	1	51200	0	0.7	53248	purple	turquoise	0	0	ml	2.7.3	bip	sub-10_ses-01_task-ml_proj-bip_2020-12-08-10-22-13.100039
118	10	1	3	119	stable	1	200	119	sv	turquoise	purple	purple	turquoise	right	left	0.7	0.30000000000000004	6	6	4.199999999999998	1.8000000000000005	0	1	0.30000000000000004	0.7	6	6	1.8000000000000005	4.199999999999998	invalid	1.3996309619997191	53248.0	0	1.0	1.0	53248	1	53248	1	53248	1	0.7	53248	purple	turquoise	0	0	ml	2.7.3	bip	sub-10_ses-01_task-ml_proj-bip_2020-12-08-10-22-13.100039
119	10	1	3	120	stable	1	200	120	sv	purple	turquoise	purple	turquoise	left	right	0.7	0.30000000000000004	4	2	2.8	0.6000000000000001	1	0	0.7	0.30000000000000004	4	2	2.8	0.6000000000000001	valid	0.4665589880005427	51200.0	0	0.0	1.0	51200	1	51200	1	51200	1	0.7	51200	purple	turquoise	1	4	ml	2.7.3	bip	sub-10_ses-01_task-ml_proj-bip_2020-12-08-10-22-13.100039
120	10	1	3	121	stable	1	200	121	sv	purple	turquoise	purple	turquoise	left	right	0.7	0.30000000000000004	2	2	1.4	0.6000000000000001	0	1	0.7	0.30000000000000004	2	2	1.4	0.6000000000000001	invalid	0.5332058009989851	51200.0	0	0.0	1.0	51200	1	51200	1	53248	0	0.7	51200	purple	turquoise	1	0	ml	2.7.3	bip	sub-10_ses-01_task-ml_proj-bip_2020-12-08-10-22-13.100039
121	10	1	3	122	stable	1	200	122	sv	turquoise	purple	purple	turquoise	right	left	0.7	0.30000000000000004	4	6	2.8	1.8000000000000005	1	0	0.30000000000000004	0.7	6	4	1.8000000000000005	2.8	valid	0.4499073110000609	53248.0	0	1.0	1.0	53248	1	53248	1	51200	0	0.7	53248	purple	turquoise	0	4	ml	2.7.3	bip	sub-10_ses-01_task-ml_proj-bip_2020-12-08-10-22-13.100039
122	10	1	3	123	stable	1	200	123	sv	purple	turquoise	purple	turquoise	left	right	0.7	0.30000000000000004	2	10	1.4	3.0000000000000004	1	0	0.7	0.30000000000000004	2	10	1.4	3.0000000000000004	valid	0.5165426620005746	51200.0	0	0.0	1.0	53248	0	51200	1	53248	0	0.7	51200	purple	turquoise	0	2	ml	2.7.3	bip	sub-10_ses-01_task-ml_proj-bip_2020-12-08-10-22-13.100039
123	10	1	3	124	stable	1	200	124	sv	turquoise	purple	purple	turquoise	right	left	0.7	0.30000000000000004	2	6	1.4	1.8000000000000005	1	0	0.30000000000000004	0.7	6	2	1.8000000000000005	1.4	valid	0.6498468459994909	53248.0	0	1.0	1.0	51200	0	53248	1	51200	0	0.7	53248	purple	turquoise	0	2	ml	2.7.3	bip	sub-10_ses-01_task-ml_proj-bip_2020-12-08-10-22-13.100039
124	10	1	3	125	stable	1	200	125	sv	purple	turquoise	purple	turquoise	left	right	0.7	0.30000000000000004	2	2	1.4	0.6000000000000001	1	0	0.7	0.30000000000000004	2	2	1.4	0.6000000000000001	valid	0.4665559409986599	51200.0	0	0.0	1.0	51200	1	51200	1	53248	0	0.7	51200	purple	turquoise	1	2	ml	2.7.3	bip	sub-10_ses-01_task-ml_proj-bip_2020-12-08-10-22-13.100039
125	10	1	3	126	stable	1	200	126	sv	turquoise	purple	purple	turquoise	right	left	0.7	0.30000000000000004	2	2	1.4	0.6000000000000001	1	0	0.30000000000000004	0.7	2	2	0.6000000000000001	1.4	valid	0.5498775169999135	53248.0	0	1.0	1.0	53248	1	53248	1	53248	1	0.7	53248	purple	turquoise	0	2	ml	2.7.3	bip	sub-10_ses-01_task-ml_proj-bip_2020-12-08-10-22-13.100039
126	10	1	3	127	stable	1	200	127	sv	turquoise	purple	purple	turquoise	right	left	0.7	0.30000000000000004	6	6	4.199999999999998	1.8000000000000005	1	0	0.30000000000000004	0.7	6	6	1.8000000000000005	4.199999999999998	valid	0.4665658009998879	53248.0	0	1.0	1.0	53248	1	53248	1	53248	1	0.7	53248	purple	turquoise	0	6	ml	2.7.3	bip	sub-10_ses-01_task-ml_proj-bip_2020-12-08-10-22-13.100039
127	10	1	3	128	stable	1	200	128	sv	purple	turquoise	purple	turquoise	left	right	0.7	0.30000000000000004	4	6	2.8	1.8000000000000005	1	0	0.7	0.30000000000000004	4	6	2.8	1.8000000000000005	valid	0.4665631569987454	51200.0	0	0.0	1.0	51200	1	51200	1	53248	0	0.7	51200	purple	turquoise	0	4	ml	2.7.3	bip	sub-10_ses-01_task-ml_proj-bip_2020-12-08-10-22-13.100039
128	10	1	3	129	stable	1	200	129	sv	turquoise	purple	purple	turquoise	right	left	0.7	0.30000000000000004	6	6	4.199999999999998	1.8000000000000005	1	0	0.30000000000000004	0.7	6	6	1.8000000000000005	4.199999999999998	valid	0.5498717169994052	53248.0	0	1.0	1.0	53248	1	53248	1	53248	1	0.7	53248	purple	turquoise	0	6	ml	2.7.3	bip	sub-10_ses-01_task-ml_proj-bip_2020-12-08-10-22-13.100039
129	10	1	3	130	stable	1	200	130	sv	purple	turquoise	purple	turquoise	left	right	0.7	0.30000000000000004	4	2	2.8	0.6000000000000001	1	0	0.7	0.30000000000000004	4	2	2.8	0.6000000000000001	valid	0.4832104580000305	51200.0	0	0.0	1.0	51200	1	51200	1	51200	1	0.7	51200	purple	turquoise	1	4	ml	2.7.3	bip	sub-10_ses-01_task-ml_proj-bip_2020-12-08-10-22-13.100039
130	10	1	3	131	stable	1	200	131	sv	turquoise	purple	purple	turquoise	right	left	0.7	0.30000000000000004	2	10	1.4	3.0000000000000004	1	0	0.30000000000000004	0.7	10	2	3.0000000000000004	1.4	valid	0.5998722869990161	53248.0	0	1.0	1.0	51200	0	53248	1	51200	0	0.7	53248	purple	turquoise	0	2	ml	2.7.3	bip	sub-10_ses-01_task-ml_proj-bip_2020-12-08-10-22-13.100039
131	10	1	3	132	stable	1	200	132	sv	purple	turquoise	purple	turquoise	left	right	0.7	0.30000000000000004	6	4	4.199999999999998	1.2000000000000002	1	0	0.7	0.30000000000000004	6	4	4.199999999999998	1.2000000000000002	valid	0.4665581819990621	51200.0	0	0.0	1.0	51200	1	51200	1	51200	1	0.7	51200	purple	turquoise	1	6	ml	2.7.3	bip	sub-10_ses-01_task-ml_proj-bip_2020-12-08-10-22-13.100039
132	10	1	3	133	stable	1	200	133	sv	purple	turquoise	purple	turquoise	left	right	0.7	0.30000000000000004	10	2	7.0	0.6000000000000001	0	1	0.7	0.30000000000000004	10	2	7.0	0.6000000000000001	invalid	0.4665723540001636	51200.0	0	0.0	1.0	51200	1	51200	1	51200	1	0.7	51200	purple	turquoise	1	0	ml	2.7.3	bip	sub-10_ses-01_task-ml_proj-bip_2020-12-08-10-22-13.100039
133	10	1	3	134	stable	1	200	134	sv	turquoise	purple	purple	turquoise	right	left	0.7	0.30000000000000004	6	2	4.199999999999998	0.6000000000000001	1	0	0.30000000000000004	0.7	2	6	0.6000000000000001	4.199999999999998	valid	0.4332465419993241	53248.0	0	1.0	1.0	53248	1	53248	1	53248	1	0.7	53248	purple	turquoise	1	6	ml	2.7.3	bip	sub-10_ses-01_task-ml_proj-bip_2020-12-08-10-22-13.100039
134	10	1	3	135	stable	1	200	135	sv	turquoise	purple	purple	turquoise	right	left	0.7	0.30000000000000004	6	2	4.199999999999998	0.6000000000000001	0	1	0.30000000000000004	0.7	2	6	0.6000000000000001	4.199999999999998	invalid	0.6331956769990938	53248.0	0	1.0	1.0	53248	1	53248	1	53248	1	0.7	53248	purple	turquoise	1	0	ml	2.7.3	bip	sub-10_ses-01_task-ml_proj-bip_2020-12-08-10-22-13.100039
135	10	1	3	136	stable	1	200	136	sv	purple	turquoise	purple	turquoise	left	right	0.7	0.30000000000000004	2	4	1.4	1.2000000000000002	1	0	0.7	0.30000000000000004	2	4	1.4	1.2000000000000002	valid	0.6331709249989217	51200.0	0	0.0	1.0	51200	1	51200	1	53248	0	0.7	51200	purple	turquoise	0	2	ml	2.7.3	bip	sub-10_ses-01_task-ml_proj-bip_2020-12-08-10-22-13.100039
136	10	1	3	137	stable	1	200	137	sv	purple	turquoise	purple	turquoise	left	right	0.7	0.30000000000000004	2	10	1.4	3.0000000000000004	1	0	0.7	0.30000000000000004	2	10	1.4	3.0000000000000004	valid	0.5498652709993621	51200.0	0	0.0	1.0	53248	0	51200	1	53248	0	0.7	51200	purple	turquoise	0	2	ml	2.7.3	bip	sub-10_ses-01_task-ml_proj-bip_2020-12-08-10-22-13.100039
137	10	1	3	138	stable	1	200	138	sv	turquoise	purple	purple	turquoise	right	left	0.7	0.30000000000000004	4	2	2.8	0.6000000000000001	1	0	0.30000000000000004	0.7	2	4	0.6000000000000001	2.8	valid	0.8331286639986502	53248.0	0	1.0	1.0	53248	1	53248	1	53248	1	0.7	53248	purple	turquoise	1	4	ml	2.7.3	bip	sub-10_ses-01_task-ml_proj-bip_2020-12-08-10-22-13.100039
138	10	1	3	139	stable	1	200	139	sv	turquoise	purple	purple	turquoise	right	left	0.7	0.30000000000000004	4	2	2.8	0.6000000000000001	1	0	0.30000000000000004	0.7	2	4	0.6000000000000001	2.8	valid	0.8164644299995416	53248.0	0	1.0	1.0	53248	1	53248	1	53248	1	0.7	53248	purple	turquoise	1	4	ml	2.7.3	bip	sub-10_ses-01_task-ml_proj-bip_2020-12-08-10-22-13.100039
139	10	1	3	140	stable	1	200	140	sv	purple	turquoise	purple	turquoise	left	right	0.7	0.30000000000000004	10	2	7.0	0.6000000000000001	0	1	0.7	0.30000000000000004	10	2	7.0	0.6000000000000001	invalid	0.7164835349994974	51200.0	0	0.0	1.0	51200	1	51200	1	51200	1	0.7	51200	purple	turquoise	1	0	ml	2.7.3	bip	sub-10_ses-01_task-ml_proj-bip_2020-12-08-10-22-13.100039
140	10	1	3	141	stable	1	200	141	sv	turquoise	purple	purple	turquoise	right	left	0.7	0.30000000000000004	4	6	2.8	1.8000000000000005	1	0	0.30000000000000004	0.7	6	4	1.8000000000000005	2.8	valid	0.5165559769993706	53248.0	0	1.0	1.0	53248	1	53248	1	51200	0	0.7	53248	purple	turquoise	0	4	ml	2.7.3	bip	sub-10_ses-01_task-ml_proj-bip_2020-12-08-10-22-13.100039
141	10	1	3	142	stable	1	200	142	sv	purple	turquoise	purple	turquoise	left	right	0.7	0.30000000000000004	2	2	1.4	0.6000000000000001	1	0	0.7	0.30000000000000004	2	2	1.4	0.6000000000000001	valid	0.583196831999885	51200.0	0	0.0	1.0	51200	1	51200	1	53248	0	0.7	51200	purple	turquoise	1	2	ml	2.7.3	bip	sub-10_ses-01_task-ml_proj-bip_2020-12-08-10-22-13.100039
142	10	1	3	143	stable	1	200	143	sv	purple	turquoise	purple	turquoise	left	right	0.7	0.30000000000000004	2	2	1.4	0.6000000000000001	0	1	0.7	0.30000000000000004	2	2	1.4	0.6000000000000001	invalid	0.5165397090004262	51200.0	0	0.0	1.0	51200	1	51200	1	53248	0	0.7	51200	purple	turquoise	1	0	ml	2.7.3	bip	sub-10_ses-01_task-ml_proj-bip_2020-12-08-10-22-13.100039
143	10	1	3	144	stable	1	200	144	sv	turquoise	purple	purple	turquoise	right	left	0.7	0.30000000000000004	4	6	2.8	1.8000000000000005	0	1	0.30000000000000004	0.7	6	4	1.8000000000000005	2.8	invalid	0.5165537130014854	53248.0	0	1.0	1.0	53248	1	53248	1	51200	0	0.7	53248	purple	turquoise	0	0	ml	2.7.3	bip	sub-10_ses-01_task-ml_proj-bip_2020-12-08-10-22-13.100039
144	10	1	3	145	stable	1	200	145	sv	turquoise	purple	purple	turquoise	right	left	0.7	0.30000000000000004	2	6	1.4	1.8000000000000005	1	0	0.30000000000000004	0.7	6	2	1.8000000000000005	1.4	valid	1.2829984379986854	53248.0	0	1.0	1.0	51200	0	53248	1	51200	0	0.7	53248	purple	turquoise	0	2	ml	2.7.3	bip	sub-10_ses-01_task-ml_proj-bip_2020-12-08-10-22-13.100039
145	10	1	3	146	stable	1	200	146	sv	purple	turquoise	purple	turquoise	left	right	0.7	0.30000000000000004	2	4	1.4	1.2000000000000002	1	0	0.7	0.30000000000000004	2	4	1.4	1.2000000000000002	valid	0.5665263760001835	51200.0	0	0.0	1.0	51200	1	51200	1	53248	0	0.7	51200	purple	turquoise	0	2	ml	2.7.3	bip	sub-10_ses-01_task-ml_proj-bip_2020-12-08-10-22-13.100039
146	10	1	3	147	stable	1	200	147	sv	purple	turquoise	purple	turquoise	left	right	0.7	0.30000000000000004	2	2	1.4	0.6000000000000001	0	1	0.7	0.30000000000000004	2	2	1.4	0.6000000000000001	invalid	0.7498005260003993	51200.0	0	0.0	1.0	51200	1	51200	1	53248	0	0.7	51200	purple	turquoise	1	0	ml	2.7.3	bip	sub-10_ses-01_task-ml_proj-bip_2020-12-08-10-22-13.100039
147	10	1	3	148	stable	1	200	148	sv	turquoise	purple	purple	turquoise	right	left	0.7	0.30000000000000004	2	4	1.4	1.2000000000000002	0	1	0.30000000000000004	0.7	4	2	1.2000000000000002	1.4	invalid	0.5832468240005255	53248.0	0	1.0	1.0	53248	1	53248	1	51200	0	0.7	53248	purple	turquoise	0	0	ml	2.7.3	bip	sub-10_ses-01_task-ml_proj-bip_2020-12-08-10-22-13.100039
148	10	1	3	149	stable	1	200	149	sv	purple	turquoise	purple	turquoise	left	right	0.7	0.30000000000000004	2	10	1.4	3.0000000000000004	0	1	0.7	0.30000000000000004	2	10	1.4	3.0000000000000004	invalid	0.6498352430007799	51200.0	0	0.0	1.0	53248	0	51200	1	53248	0	0.7	51200	purple	turquoise	0	0	ml	2.7.3	bip	sub-10_ses-01_task-ml_proj-bip_2020-12-08-10-22-13.100039
149	10	1	3	150	stable	1	200	150	sv	purple	turquoise	purple	turquoise	left	right	0.7	0.30000000000000004	4	2	2.8	0.6000000000000001	1	0	0.7	0.30000000000000004	4	2	2.8	0.6000000000000001	valid	0.9830845959986618	53248.0	0	1.0	2.0	51200	0	51200	0	51200	0	0.7	51200	purple	turquoise	1	0	ml	2.7.3	bip	sub-10_ses-01_task-ml_proj-bip_2020-12-08-10-22-13.100039
150	10	1	4	151	stable	1	200	151	sv	turquoise	purple	purple	turquoise	right	left	0.7	0.30000000000000004	4	6	2.8	1.8000000000000005	1	0	0.30000000000000004	0.7	6	4	1.8000000000000005	2.8	valid	0.999741752000773	51200.0	0	0.0	2.0	53248	0	53248	0	51200	1	0.7	53248	purple	turquoise	0	0	ml	2.7.3	bip	sub-10_ses-01_task-ml_proj-bip_2020-12-08-10-22-13.100039
151	10	1	4	152	stable	1	200	152	sv	turquoise	purple	purple	turquoise	right	left	0.7	0.30000000000000004	2	4	1.4	1.2000000000000002	1	0	0.30000000000000004	0.7	4	2	1.2000000000000002	1.4	valid	0.3832627270003286	53248.0	0	1.0	1.0	53248	1	53248	1	51200	0	0.7	53248	purple	turquoise	0	2	ml	2.7.3	bip	sub-10_ses-01_task-ml_proj-bip_2020-12-08-10-22-13.100039
152	10	1	4	153	stable	1	200	153	sv	turquoise	purple	purple	turquoise	right	left	0.7	0.30000000000000004	6	6	4.199999999999998	1.8000000000000005	0	1	0.30000000000000004	0.7	6	6	1.8000000000000005	4.199999999999998	invalid	0.5498783559996809	53248.0	0	1.0	1.0	53248	1	53248	1	53248	1	0.7	53248	purple	turquoise	0	0	ml	2.7.3	bip	sub-10_ses-01_task-ml_proj-bip_2020-12-08-10-22-13.100039
153	10	1	4	154	stable	1	200	154	sv	purple	turquoise	purple	turquoise	left	right	0.7	0.30000000000000004	2	4	1.4	1.2000000000000002	1	0	0.7	0.30000000000000004	2	4	1.4	1.2000000000000002	valid	0.58319343400035	51200.0	0	0.0	1.0	51200	1	51200	1	53248	0	0.7	51200	purple	turquoise	0	2	ml	2.7.3	bip	sub-10_ses-01_task-ml_proj-bip_2020-12-08-10-22-13.100039
154	10	1	4	155	stable	1	200	155	sv	turquoise	purple	purple	turquoise	right	left	0.7	0.30000000000000004	6	2	4.199999999999998	0.6000000000000001	1	0	0.30000000000000004	0.7	2	6	0.6000000000000001	4.199999999999998	valid	0.4665813939991494	53248.0	0	1.0	1.0	53248	1	53248	1	53248	1	0.7	53248	purple	turquoise	1	6	ml	2.7.3	bip	sub-10_ses-01_task-ml_proj-bip_2020-12-08-10-22-13.100039
155	10	1	4	156	stable	1	200	156	sv	purple	turquoise	purple	turquoise	left	right	0.7	0.30000000000000004	6	4	4.199999999999998	1.2000000000000002	0	1	0.7	0.30000000000000004	6	4	4.199999999999998	1.2000000000000002	invalid	0.4165732030014624	51200.0	0	0.0	1.0	51200	1	51200	1	51200	1	0.7	51200	purple	turquoise	1	0	ml	2.7.3	bip	sub-10_ses-01_task-ml_proj-bip_2020-12-08-10-22-13.100039
156	10	1	4	157	stable	1	200	157	sv	purple	turquoise	purple	turquoise	left	right	0.7	0.30000000000000004	10	2	7.0	0.6000000000000001	1	0	0.7	0.30000000000000004	10	2	7.0	0.6000000000000001	valid	0.3832575540000107	51200.0	0	0.0	1.0	51200	1	51200	1	51200	1	0.7	51200	purple	turquoise	1	10	ml	2.7.3	bip	sub-10_ses-01_task-ml_proj-bip_2020-12-08-10-22-13.100039
157	10	1	4	158	stable	1	200	158	sv	purple	turquoise	purple	turquoise	left	right	0.7	0.30000000000000004	4	2	2.8	0.6000000000000001	0	1	0.7	0.30000000000000004	4	2	2.8	0.6000000000000001	invalid	0.5165550060009991	51200.0	0	0.0	1.0	51200	1	51200	1	51200	1	0.7	51200	purple	turquoise	1	0	ml	2.7.3	bip	sub-10_ses-01_task-ml_proj-bip_2020-12-08-10-22-13.100039
158	10	1	4	159	stable	1	200	159	sv	turquoise	purple	purple	turquoise	right	left	0.7	0.30000000000000004	10	2	7.0	0.6000000000000001	0	1	0.30000000000000004	0.7	2	10	0.6000000000000001	7.0	invalid	0.5165555410003435	53248.0	0	1.0	1.0	53248	1	53248	1	53248	1	0.7	53248	purple	turquoise	1	0	ml	2.7.3	bip	sub-10_ses-01_task-ml_proj-bip_2020-12-08-10-22-13.100039
159	10	1	4	160	stable	1	200	160	sv	purple	turquoise	purple	turquoise	left	right	0.7	0.30000000000000004	2	6	1.4	1.8000000000000005	1	0	0.7	0.30000000000000004	2	6	1.4	1.8000000000000005	valid	0.5332063459991332	51200.0	0	0.0	1.0	53248	0	51200	1	53248	0	0.7	51200	purple	turquoise	0	2	ml	2.7.3	bip	sub-10_ses-01_task-ml_proj-bip_2020-12-08-10-22-13.100039
160	10	1	4	161	stable	1	200	161	sv	turquoise	purple	purple	turquoise	right	left	0.7	0.30000000000000004	2	4	1.4	1.2000000000000002	1	0	0.30000000000000004	0.7	4	2	1.2000000000000002	1.4	valid	0.43324427799962	53248.0	0	1.0	1.0	53248	1	53248	1	51200	0	0.7	53248	purple	turquoise	0	2	ml	2.7.3	bip	sub-10_ses-01_task-ml_proj-bip_2020-12-08-10-22-13.100039
161	10	1	4	162	stable	1	200	162	sv	turquoise	purple	purple	turquoise	right	left	0.7	0.30000000000000004	10	2	7.0	0.6000000000000001	1	0	0.30000000000000004	0.7	2	10	0.6000000000000001	7.0	valid	0.8997619700003271	51200.0	0	0.0	2.0	53248	0	53248	0	53248	0	0.7	53248	purple	turquoise	1	0	ml	2.7.3	bip	sub-10_ses-01_task-ml_proj-bip_2020-12-08-10-22-13.100039
162	10	1	4	163	stable	1	200	163	sv	turquoise	purple	purple	turquoise	right	left	0.7	0.30000000000000004	4	2	2.8	0.6000000000000001	1	0	0.30000000000000004	0.7	2	4	0.6000000000000001	2.8	valid	0.466569496999	53248.0	0	1.0	1.0	53248	1	53248	1	53248	1	0.7	53248	purple	turquoise	1	4	ml	2.7.3	bip	sub-10_ses-01_task-ml_proj-bip_2020-12-08-10-22-13.100039
163	10	1	4	164	stable	1	200	164	sv	purple	turquoise	purple	turquoise	left	right	0.7	0.30000000000000004	4	2	2.8	0.6000000000000001	1	0	0.7	0.30000000000000004	4	2	2.8	0.6000000000000001	valid	0.4665600890002679	51200.0	0	0.0	1.0	51200	1	51200	1	51200	1	0.7	51200	purple	turquoise	1	4	ml	2.7.3	bip	sub-10_ses-01_task-ml_proj-bip_2020-12-08-10-22-13.100039
164	10	1	4	165	stable	1	200	165	sv	turquoise	purple	purple	turquoise	right	left	0.7	0.30000000000000004	6	4	4.199999999999998	1.2000000000000002	0	1	0.30000000000000004	0.7	4	6	1.2000000000000002	4.199999999999998	invalid	0.4832303740004136	53248.0	0	1.0	1.0	53248	1	53248	1	53248	1	0.7	53248	purple	turquoise	1	0	ml	2.7.3	bip	sub-10_ses-01_task-ml_proj-bip_2020-12-08-10-22-13.100039
165	10	1	4	166	stable	1	200	166	sv	turquoise	purple	purple	turquoise	right	left	0.7	0.30000000000000004	6	4	4.199999999999998	1.2000000000000002	1	0	0.30000000000000004	0.7	4	6	1.2000000000000002	4.199999999999998	valid	0.4332436560016504	53248.0	0	1.0	1.0	53248	1	53248	1	53248	1	0.7	53248	purple	turquoise	1	6	ml	2.7.3	bip	sub-10_ses-01_task-ml_proj-bip_2020-12-08-10-22-13.100039
166	10	1	4	167	stable	1	200	167	sv	purple	turquoise	purple	turquoise	left	right	0.7	0.30000000000000004	2	10	1.4	3.0000000000000004	1	0	0.7	0.30000000000000004	2	10	1.4	3.0000000000000004	valid	0.5831734610001149	51200.0	0	0.0	1.0	53248	0	51200	1	53248	0	0.7	51200	purple	turquoise	0	2	ml	2.7.3	bip	sub-10_ses-01_task-ml_proj-bip_2020-12-08-10-22-13.100039
167	10	1	4	168	stable	1	200	168	sv	turquoise	purple	purple	turquoise	right	left	0.7	0.30000000000000004	6	2	4.199999999999998	0.6000000000000001	0	1	0.30000000000000004	0.7	2	6	0.6000000000000001	4.199999999999998	invalid	0.6165167579983972	53248.0	0	1.0	1.0	53248	1	53248	1	53248	1	0.7	53248	purple	turquoise	1	0	ml	2.7.3	bip	sub-10_ses-01_task-ml_proj-bip_2020-12-08-10-22-13.100039
168	10	1	4	169	stable	1	200	169	sv	turquoise	purple	purple	turquoise	right	left	0.7	0.30000000000000004	6	2	4.199999999999998	0.6000000000000001	1	0	0.30000000000000004	0.7	2	6	0.6000000000000001	4.199999999999998	valid	0.6498562109991326	53248.0	0	1.0	1.0	53248	1	53248	1	53248	1	0.7	53248	purple	turquoise	1	6	ml	2.7.3	bip	sub-10_ses-01_task-ml_proj-bip_2020-12-08-10-22-13.100039
169	10	1	4	170	stable	1	200	170	sv	purple	turquoise	purple	turquoise	left	right	0.7	0.30000000000000004	2	6	1.4	1.8000000000000005	1	0	0.7	0.30000000000000004	2	6	1.4	1.8000000000000005	valid	0.7331485499998962	51200.0	0	0.0	1.0	53248	0	51200	1	53248	0	0.7	51200	purple	turquoise	0	2	ml	2.7.3	bip	sub-10_ses-01_task-ml_proj-bip_2020-12-08-10-22-13.100039
170	10	1	4	171	stable	1	200	171	sv	purple	turquoise	purple	turquoise	left	right	0.7	0.30000000000000004	10	2	7.0	0.6000000000000001	1	0	0.7	0.30000000000000004	10	2	7.0	0.6000000000000001	valid	0.4832192129997566	51200.0	0	0.0	1.0	51200	1	51200	1	51200	1	0.7	51200	purple	turquoise	1	10	ml	2.7.3	bip	sub-10_ses-01_task-ml_proj-bip_2020-12-08-10-22-13.100039
171	10	1	4	172	stable	1	200	172	sv	turquoise	purple	purple	turquoise	right	left	0.7	0.30000000000000004	6	4	4.199999999999998	1.2000000000000002	1	0	0.30000000000000004	0.7	4	6	1.2000000000000002	4.199999999999998	valid	0.5332146860000648	53248.0	0	1.0	1.0	53248	1	53248	1	53248	1	0.7	53248	purple	turquoise	1	6	ml	2.7.3	bip	sub-10_ses-01_task-ml_proj-bip_2020-12-08-10-22-13.100039
172	10	1	4	173	stable	1	200	173	sv	turquoise	purple	purple	turquoise	right	left	0.7	0.30000000000000004	6	6	4.199999999999998	1.8000000000000005	1	0	0.30000000000000004	0.7	6	6	1.8000000000000005	4.199999999999998	valid	0.1333230390009703	51200.0	0	0.0	2.0	53248	0	53248	0	53248	0	0.7	53248	purple	turquoise	0	0	ml	2.7.3	bip	sub-10_ses-01_task-ml_proj-bip_2020-12-08-10-22-13.100039
173	10	1	4	174	stable	1	200	174	sv	turquoise	purple	purple	turquoise	right	left	0.7	0.30000000000000004	4	6	2.8	1.8000000000000005	1	0	0.30000000000000004	0.7	6	4	1.8000000000000005	2.8	valid	2.9825079199999887	nan	1	nan	nan	53248	0	53248	0	51200	0	0.7	53248	purple	turquoise	0	0	ml	2.7.3	bip	sub-10_ses-01_task-ml_proj-bip_2020-12-08-10-22-13.100039
174	10	1	4	175	stable	1	200	175	sv	purple	turquoise	purple	turquoise	left	right	0.7	0.30000000000000004	2	6	1.4	1.8000000000000005	1	0	0.7	0.30000000000000004	2	6	1.4	1.8000000000000005	valid	0.5831904780006879	51200.0	0	0.0	1.0	53248	0	51200	1	53248	0	0.7	51200	purple	turquoise	0	2	ml	2.7.3	bip	sub-10_ses-01_task-ml_proj-bip_2020-12-08-10-22-13.100039
175	10	1	4	176	stable	1	200	176	sv	purple	turquoise	purple	turquoise	left	right	0.7	0.30000000000000004	6	6	4.199999999999998	1.8000000000000005	1	0	0.7	0.30000000000000004	6	6	4.199999999999998	1.8000000000000005	valid	0.5165497300004063	51200.0	0	0.0	1.0	51200	1	51200	1	53248	0	0.7	51200	purple	turquoise	1	6	ml	2.7.3	bip	sub-10_ses-01_task-ml_proj-bip_2020-12-08-10-22-13.100039
176	10	1	4	177	stable	1	200	177	sv	turquoise	purple	purple	turquoise	right	left	0.7	0.30000000000000004	4	2	2.8	0.6000000000000001	1	0	0.30000000000000004	0.7	2	4	0.6000000000000001	2.8	valid	0.5498777859993424	53248.0	0	1.0	1.0	53248	1	53248	1	53248	1	0.7	53248	purple	turquoise	1	4	ml	2.7.3	bip	sub-10_ses-01_task-ml_proj-bip_2020-12-08-10-22-13.100039
177	10	1	4	178	stable	1	200	178	sv	purple	turquoise	purple	turquoise	left	right	0.7	0.30000000000000004	4	6	2.8	1.8000000000000005	1	0	0.7	0.30000000000000004	4	6	2.8	1.8000000000000005	valid	0.4998798249998799	51200.0	0	0.0	1.0	51200	1	51200	1	53248	0	0.7	51200	purple	turquoise	0	4	ml	2.7.3	bip	sub-10_ses-01_task-ml_proj-bip_2020-12-08-10-22-13.100039
178	10	1	4	179	stable	1	200	179	sv	purple	turquoise	purple	turquoise	left	right	0.7	0.30000000000000004	2	2	1.4	0.6000000000000001	1	0	0.7	0.30000000000000004	2	2	1.4	0.6000000000000001	valid	0.4498973019999539	51200.0	0	0.0	1.0	51200	1	51200	1	53248	0	0.7	51200	purple	turquoise	1	2	ml	2.7.3	bip	sub-10_ses-01_task-ml_proj-bip_2020-12-08-10-22-13.100039
179	10	1	4	180	stable	1	200	180	sv	purple	turquoise	purple	turquoise	left	right	0.7	0.30000000000000004	6	2	4.199999999999998	0.6000000000000001	1	0	0.7	0.30000000000000004	6	2	4.199999999999998	0.6000000000000001	valid	0.4832179920013005	51200.0	0	0.0	1.0	51200	1	51200	1	51200	1	0.7	51200	purple	turquoise	1	6	ml	2.7.3	bip	sub-10_ses-01_task-ml_proj-bip_2020-12-08-10-22-13.100039
180	10	1	4	181	stable	1	200	181	sv	turquoise	purple	purple	turquoise	right	left	0.7	0.30000000000000004	6	4	4.199999999999998	1.2000000000000002	1	0	0.30000000000000004	0.7	4	6	1.2000000000000002	4.199999999999998	valid	0.4832327910007734	53248.0	0	1.0	1.0	53248	1	53248	1	53248	1	0.7	53248	purple	turquoise	1	6	ml	2.7.3	bip	sub-10_ses-01_task-ml_proj-bip_2020-12-08-10-22-13.100039
181	10	1	4	182	stable	1	200	182	sv	purple	turquoise	purple	turquoise	left	right	0.7	0.30000000000000004	6	2	4.199999999999998	0.6000000000000001	0	1	0.7	0.30000000000000004	6	2	4.199999999999998	0.6000000000000001	invalid	0.533204218998435	51200.0	0	0.0	1.0	51200	1	51200	1	51200	1	0.7	51200	purple	turquoise	1	0	ml	2.7.3	bip	sub-10_ses-01_task-ml_proj-bip_2020-12-08-10-22-13.100039
182	10	1	4	183	stable	1	200	183	sv	purple	turquoise	purple	turquoise	left	right	0.7	0.30000000000000004	2	10	1.4	3.0000000000000004	0	1	0.7	0.30000000000000004	2	10	1.4	3.0000000000000004	invalid	0.4998816389997955	51200.0	0	0.0	1.0	53248	0	51200	1	53248	0	0.7	51200	purple	turquoise	0	0	ml	2.7.3	bip	sub-10_ses-01_task-ml_proj-bip_2020-12-08-10-22-13.100039
183	10	1	4	184	stable	1	200	184	sv	turquoise	purple	purple	turquoise	right	left	0.7	0.30000000000000004	6	6	4.199999999999998	1.8000000000000005	1	0	0.30000000000000004	0.7	6	6	1.8000000000000005	4.199999999999998	valid	0.4332432350001909	53248.0	0	1.0	1.0	53248	1	53248	1	53248	1	0.7	53248	purple	turquoise	0	6	ml	2.7.3	bip	sub-10_ses-01_task-ml_proj-bip_2020-12-08-10-22-13.100039
184	10	1	4	185	stable	1	200	185	sv	purple	turquoise	purple	turquoise	left	right	0.7	0.30000000000000004	2	6	1.4	1.8000000000000005	1	0	0.7	0.30000000000000004	2	6	1.4	1.8000000000000005	valid	0.4665569940007117	51200.0	0	0.0	1.0	53248	0	51200	1	53248	0	0.7	51200	purple	turquoise	0	2	ml	2.7.3	bip	sub-10_ses-01_task-ml_proj-bip_2020-12-08-10-22-13.100039
185	10	1	4	186	stable	1	200	186	sv	turquoise	purple	purple	turquoise	right	left	0.7	0.30000000000000004	2	10	1.4	3.0000000000000004	1	0	0.30000000000000004	0.7	10	2	3.0000000000000004	1.4	valid	0.633184299000277	53248.0	0	1.0	1.0	51200	0	53248	1	51200	0	0.7	53248	purple	turquoise	0	2	ml	2.7.3	bip	sub-10_ses-01_task-ml_proj-bip_2020-12-08-10-22-13.100039
186	10	1	4	187	stable	1	200	187	sv	purple	turquoise	purple	turquoise	left	right	0.7	0.30000000000000004	2	4	1.4	1.2000000000000002	1	0	0.7	0.30000000000000004	2	4	1.4	1.2000000000000002	valid	0.516534000998945	51200.0	0	0.0	1.0	51200	1	51200	1	53248	0	0.7	51200	purple	turquoise	0	2	ml	2.7.3	bip	sub-10_ses-01_task-ml_proj-bip_2020-12-08-10-22-13.100039
187	10	1	4	188	stable	1	200	188	sv	turquoise	purple	purple	turquoise	right	left	0.7	0.30000000000000004	6	6	4.199999999999998	1.8000000000000005	1	0	0.30000000000000004	0.7	6	6	1.8000000000000005	4.199999999999998	valid	0.9164361340008328	53248.0	0	1.0	1.0	53248	1	53248	1	53248	1	0.7	53248	purple	turquoise	0	6	ml	2.7.3	bip	sub-10_ses-01_task-ml_proj-bip_2020-12-08-10-22-13.100039
188	10	1	4	189	stable	1	200	189	sv	purple	turquoise	purple	turquoise	left	right	0.7	0.30000000000000004	2	6	1.4	1.8000000000000005	1	0	0.7	0.30000000000000004	2	6	1.4	1.8000000000000005	valid	0.44989338099912857	51200.0	0	0.0	1.0	53248	0	51200	1	53248	0	0.7	51200	purple	turquoise	0	2	ml	2.7.3	bip	sub-10_ses-01_task-ml_proj-bip_2020-12-08-10-22-13.100039
189	10	1	4	190	stable	1	200	190	sv	purple	turquoise	purple	turquoise	left	right	0.7	0.30000000000000004	6	2	4.199999999999998	0.6000000000000001	1	0	0.7	0.30000000000000004	6	2	4.199999999999998	0.6000000000000001	valid	0.5165433670008497	51200.0	0	0.0	1.0	51200	1	51200	1	51200	1	0.7	51200	purple	turquoise	1	6	ml	2.7.3	bip	sub-10_ses-01_task-ml_proj-bip_2020-12-08-10-22-13.100039
190	10	1	4	191	stable	1	200	191	sv	turquoise	purple	purple	turquoise	right	left	0.7	0.30000000000000004	4	6	2.8	1.8000000000000005	1	0	0.30000000000000004	0.7	6	4	1.8000000000000005	2.8	valid	0.4665684860010515	53248.0	0	1.0	1.0	53248	1	53248	1	51200	0	0.7	53248	purple	turquoise	0	4	ml	2.7.3	bip	sub-10_ses-01_task-ml_proj-bip_2020-12-08-10-22-13.100039
191	10	1	4	192	stable	1	200	192	sv	purple	turquoise	purple	turquoise	left	right	0.7	0.30000000000000004	6	4	4.199999999999998	1.2000000000000002	1	0	0.7	0.30000000000000004	6	4	4.199999999999998	1.2000000000000002	valid	0.6165124180006387	51200.0	0	0.0	1.0	51200	1	51200	1	51200	1	0.7	51200	purple	turquoise	1	6	ml	2.7.3	bip	sub-10_ses-01_task-ml_proj-bip_2020-12-08-10-22-13.100039
192	10	1	4	193	stable	1	200	193	sv	turquoise	purple	purple	turquoise	right	left	0.7	0.30000000000000004	4	6	2.8	1.8000000000000005	1	0	0.30000000000000004	0.7	6	4	1.8000000000000005	2.8	valid	0.8997744959997362	53248.0	0	1.0	1.0	53248	1	53248	1	51200	0	0.7	53248	purple	turquoise	0	4	ml	2.7.3	bip	sub-10_ses-01_task-ml_proj-bip_2020-12-08-10-22-13.100039
193	10	1	4	194	stable	1	200	194	sv	turquoise	purple	purple	turquoise	right	left	0.7	0.30000000000000004	10	2	7.0	0.6000000000000001	0	1	0.30000000000000004	0.7	2	10	0.6000000000000001	7.0	invalid	0.4665668170000572	53248.0	0	1.0	1.0	53248	1	53248	1	53248	1	0.7	53248	purple	turquoise	1	0	ml	2.7.3	bip	sub-10_ses-01_task-ml_proj-bip_2020-12-08-10-22-13.100039
194	10	1	4	195	stable	1	200	195	sv	purple	turquoise	purple	turquoise	left	right	0.7	0.30000000000000004	2	10	1.4	3.0000000000000004	0	1	0.7	0.30000000000000004	2	10	1.4	3.0000000000000004	invalid	0.5498654149996582	51200.0	0	0.0	1.0	53248	0	51200	1	53248	0	0.7	51200	purple	turquoise	0	0	ml	2.7.3	bip	sub-10_ses-01_task-ml_proj-bip_2020-12-08-10-22-13.100039
195	10	1	4	196	stable	1	200	196	sv	turquoise	purple	purple	turquoise	right	left	0.7	0.30000000000000004	2	4	1.4	1.2000000000000002	1	0	0.30000000000000004	0.7	4	2	1.2000000000000002	1.4	valid	1.166363646998434	53248.0	0	1.0	1.0	53248	1	53248	1	51200	0	0.7	53248	purple	turquoise	0	2	ml	2.7.3	bip	sub-10_ses-01_task-ml_proj-bip_2020-12-08-10-22-13.100039
196	10	1	4	197	stable	1	200	197	sv	purple	turquoise	purple	turquoise	left	right	0.7	0.30000000000000004	6	4	4.199999999999998	1.2000000000000002	0	1	0.7	0.30000000000000004	6	4	4.199999999999998	1.2000000000000002	invalid	0.5332015849999152	51200.0	0	0.0	1.0	51200	1	51200	1	51200	1	0.7	51200	purple	turquoise	1	0	ml	2.7.3	bip	sub-10_ses-01_task-ml_proj-bip_2020-12-08-10-22-13.100039
197	10	1	4	198	stable	1	200	198	sv	turquoise	purple	purple	turquoise	right	left	0.7	0.30000000000000004	6	4	4.199999999999998	1.2000000000000002	1	0	0.30000000000000004	0.7	4	6	1.2000000000000002	4.199999999999998	valid	1.2163527350003278	53248.0	0	1.0	1.0	53248	1	53248	1	53248	1	0.7	53248	purple	turquoise	1	6	ml	2.7.3	bip	sub-10_ses-01_task-ml_proj-bip_2020-12-08-10-22-13.100039
198	10	1	4	199	stable	1	200	199	sv	turquoise	purple	purple	turquoise	right	left	0.7	0.30000000000000004	6	2	4.199999999999998	0.6000000000000001	1	0	0.30000000000000004	0.7	2	6	0.6000000000000001	4.199999999999998	valid	0.4332456949996413	53248.0	0	1.0	1.0	53248	1	53248	1	53248	1	0.7	53248	purple	turquoise	1	6	ml	2.7.3	bip	sub-10_ses-01_task-ml_proj-bip_2020-12-08-10-22-13.100039
199	10	1	4	200	stable	1	200	200	sv	turquoise	purple	purple	turquoise	right	left	0.7	0.30000000000000004	2	10	1.4	3.0000000000000004	1	0	0.30000000000000004	0.7	10	2	3.0000000000000004	1.4	valid	1.616235626001071	53248.0	0	1.0	1.0	51200	0	53248	1	51200	0	0.7	53248	purple	turquoise	0	2	ml	2.7.3	bip	sub-10_ses-01_task-ml_proj-bip_2020-12-08-10-22-13.100039
200	10	1	5	201	volatile	2	20	1	sv	purple	turquoise	purple	turquoise	left	right	0.30000000000000004	0.7	4	6	1.2000000000000002	4.199999999999998	1	0	0.30000000000000004	0.7	4	6	1.2000000000000002	4.199999999999998	invalid	0.8497864849996404	51200.0	0	0.0	1.0	53248	0	53248	0	53248	0	0.7	53248	turquoise	purple	1	4	ml	2.7.3	bip	sub-10_ses-01_task-ml_proj-bip_2020-12-08-10-22-13.100039
201	10	1	5	202	volatile	2	20	2	sv	turquoise	purple	purple	turquoise	right	left	0.30000000000000004	0.7	4	2	1.2000000000000002	1.4	1	0	0.7	0.30000000000000004	2	4	1.4	1.2000000000000002	invalid	0.5665404939991276	53248.0	0	1.0	1.0	51200	0	51200	0	53248	1	0.7	51200	turquoise	purple	0	4	ml	2.7.3	bip	sub-10_ses-01_task-ml_proj-bip_2020-12-08-10-22-13.100039
202	10	1	5	203	volatile	2	20	3	sv	turquoise	purple	purple	turquoise	right	left	0.30000000000000004	0.7	6	6	1.8000000000000005	4.199999999999998	0	1	0.7	0.30000000000000004	6	6	4.199999999999998	1.8000000000000005	valid	0.5332157199991343	53248.0	0	1.0	1.0	51200	0	51200	0	53248	1	0.7	51200	turquoise	purple	1	0	ml	2.7.3	bip	sub-10_ses-01_task-ml_proj-bip_2020-12-08-10-22-13.100039
203	10	1	5	204	volatile	2	20	4	sv	purple	turquoise	purple	turquoise	left	right	0.30000000000000004	0.7	2	6	0.6000000000000001	4.199999999999998	0	1	0.30000000000000004	0.7	2	6	0.6000000000000001	4.199999999999998	valid	0.3832474760001787	51200.0	0	0.0	1.0	53248	0	53248	0	53248	0	0.7	53248	turquoise	purple	1	0	ml	2.7.3	bip	sub-10_ses-01_task-ml_proj-bip_2020-12-08-10-22-13.100039
204	10	1	5	205	volatile	2	20	5	sv	turquoise	purple	purple	turquoise	right	left	0.30000000000000004	0.7	10	2	3.0000000000000004	1.4	0	1	0.7	0.30000000000000004	2	10	1.4	3.0000000000000004	valid	0.44990743699963787	53248.0	0	1.0	1.0	53248	1	51200	0	53248	1	0.7	51200	turquoise	purple	0	0	ml	2.7.3	bip	sub-10_ses-01_task-ml_proj-bip_2020-12-08-10-22-13.100039
205	10	1	5	206	volatile	2	20	6	sv	turquoise	purple	purple	turquoise	right	left	0.30000000000000004	0.7	2	2	0.6000000000000001	1.4	1	0	0.7	0.30000000000000004	2	2	1.4	0.6000000000000001	invalid	0.5332148449997476	53248.0	0	1.0	1.0	51200	0	51200	0	53248	1	0.7	51200	turquoise	purple	1	2	ml	2.7.3	bip	sub-10_ses-01_task-ml_proj-bip_2020-12-08-10-22-13.100039
206	10	1	5	207	volatile	2	20	7	sv	purple	turquoise	purple	turquoise	left	right	0.30000000000000004	0.7	6	4	1.8000000000000005	2.8	1	0	0.30000000000000004	0.7	6	4	1.8000000000000005	2.8	invalid	0.4165731630000664	51200.0	0	0.0	1.0	53248	0	53248	0	51200	1	0.7	53248	turquoise	purple	0	6	ml	2.7.3	bip	sub-10_ses-01_task-ml_proj-bip_2020-12-08-10-22-13.100039
207	10	1	5	208	volatile	2	20	8	sv	turquoise	purple	purple	turquoise	right	left	0.30000000000000004	0.7	2	10	0.6000000000000001	7.0	0	1	0.7	0.30000000000000004	10	2	7.0	0.6000000000000001	valid	0.3999213959996269	53248.0	0	1.0	1.0	51200	0	51200	0	51200	0	0.7	51200	turquoise	purple	1	0	ml	2.7.3	bip	sub-10_ses-01_task-ml_proj-bip_2020-12-08-10-22-13.100039
208	10	1	5	209	volatile	2	20	9	sv	purple	turquoise	purple	turquoise	left	right	0.30000000000000004	0.7	2	10	0.6000000000000001	7.0	0	1	0.30000000000000004	0.7	2	10	0.6000000000000001	7.0	valid	0.5165420670000458	51200.0	0	0.0	1.0	53248	0	53248	0	53248	0	0.7	53248	turquoise	purple	1	0	ml	2.7.3	bip	sub-10_ses-01_task-ml_proj-bip_2020-12-08-10-22-13.100039
209	10	1	5	210	volatile	2	20	10	sv	turquoise	purple	purple	turquoise	right	left	0.30000000000000004	0.7	6	2	1.8000000000000005	1.4	1	0	0.7	0.30000000000000004	2	6	1.4	1.8000000000000005	invalid	0.6498492329992587	53248.0	0	1.0	1.0	53248	1	51200	0	53248	1	0.7	51200	turquoise	purple	0	6	ml	2.7.3	bip	sub-10_ses-01_task-ml_proj-bip_2020-12-08-10-22-13.100039
210	10	1	5	211	volatile	2	20	11	sv	purple	turquoise	purple	turquoise	left	right	0.30000000000000004	0.7	6	4	1.8000000000000005	2.8	0	1	0.30000000000000004	0.7	6	4	1.8000000000000005	2.8	valid	0.5498607539993827	51200.0	0	0.0	1.0	53248	0	53248	0	51200	1	0.7	53248	turquoise	purple	0	0	ml	2.7.3	bip	sub-10_ses-01_task-ml_proj-bip_2020-12-08-10-22-13.100039
211	10	1	5	212	volatile	2	20	12	sv	turquoise	purple	purple	turquoise	right	left	0.30000000000000004	0.7	2	10	0.6000000000000001	7.0	0	1	0.7	0.30000000000000004	10	2	7.0	0.6000000000000001	valid	0.5665269509991049	51200.0	0	0.0	2.0	51200	1	51200	1	51200	1	0.7	51200	turquoise	purple	1	10	ml	2.7.3	bip	sub-10_ses-01_task-ml_proj-bip_2020-12-08-10-22-13.100039
212	10	1	5	213	volatile	2	20	13	sv	purple	turquoise	purple	turquoise	left	right	0.30000000000000004	0.7	6	6	1.8000000000000005	4.199999999999998	0	1	0.30000000000000004	0.7	6	6	1.8000000000000005	4.199999999999998	valid	0.4998978969997552	53248.0	0	1.0	2.0	53248	1	53248	1	53248	1	0.7	53248	turquoise	purple	0	6	ml	2.7.3	bip	sub-10_ses-01_task-ml_proj-bip_2020-12-08-10-22-13.100039
213	10	1	5	214	volatile	2	20	14	sv	turquoise	purple	purple	turquoise	right	left	0.30000000000000004	0.7	2	4	0.6000000000000001	2.8	0	1	0.7	0.30000000000000004	4	2	2.8	0.6000000000000001	valid	0.4165727719991992	51200.0	0	0.0	2.0	51200	1	51200	1	51200	1	0.7	51200	turquoise	purple	1	4	ml	2.7.3	bip	sub-10_ses-01_task-ml_proj-bip_2020-12-08-10-22-13.100039
214	10	1	5	215	volatile	2	20	15	sv	purple	turquoise	purple	turquoise	left	right	0.30000000000000004	0.7	4	2	1.2000000000000002	1.4	0	1	0.30000000000000004	0.7	4	2	1.2000000000000002	1.4	valid	0.3999121360011486	53248.0	0	1.0	2.0	53248	1	53248	1	51200	0	0.7	53248	turquoise	purple	0	2	ml	2.7.3	bip	sub-10_ses-01_task-ml_proj-bip_2020-12-08-10-22-13.100039
215	10	1	5	216	volatile	2	20	16	sv	purple	turquoise	purple	turquoise	left	right	0.30000000000000004	0.7	4	6	1.2000000000000002	4.199999999999998	1	0	0.30000000000000004	0.7	4	6	1.2000000000000002	4.199999999999998	invalid	0.4499078740009281	53248.0	0	1.0	2.0	53248	1	53248	1	53248	1	0.7	53248	turquoise	purple	1	0	ml	2.7.3	bip	sub-10_ses-01_task-ml_proj-bip_2020-12-08-10-22-13.100039
216	10	1	5	217	volatile	2	20	17	sv	turquoise	purple	purple	turquoise	right	left	0.30000000000000004	0.7	2	6	0.6000000000000001	4.199999999999998	0	1	0.7	0.30000000000000004	6	2	4.199999999999998	0.6000000000000001	valid	0.3832492680012365	51200.0	0	0.0	2.0	51200	1	51200	1	51200	1	0.7	51200	turquoise	purple	1	6	ml	2.7.3	bip	sub-10_ses-01_task-ml_proj-bip_2020-12-08-10-22-13.100039
217	10	1	5	218	volatile	2	20	18	sv	purple	turquoise	purple	turquoise	left	right	0.30000000000000004	0.7	2	4	0.6000000000000001	2.8	0	1	0.30000000000000004	0.7	2	4	0.6000000000000001	2.8	valid	0.4332426390010369	53248.0	0	1.0	2.0	53248	1	53248	1	53248	1	0.7	53248	turquoise	purple	1	4	ml	2.7.3	bip	sub-10_ses-01_task-ml_proj-bip_2020-12-08-10-22-13.100039
218	10	1	5	219	volatile	2	20	19	sv	turquoise	purple	purple	turquoise	right	left	0.30000000000000004	0.7	2	2	0.6000000000000001	1.4	0	1	0.7	0.30000000000000004	2	2	1.4	0.6000000000000001	valid	0.4332343930000207	51200.0	0	0.0	2.0	51200	1	51200	1	53248	0	0.7	51200	turquoise	purple	1	2	ml	2.7.3	bip	sub-10_ses-01_task-ml_proj-bip_2020-12-08-10-22-13.100039
219	10	1	5	220	volatile	2	20	20	sv	purple	turquoise	purple	turquoise	left	right	0.30000000000000004	0.7	6	2	1.8000000000000005	1.4	0	1	0.30000000000000004	0.7	6	2	1.8000000000000005	1.4	valid	0.4665698669996346	53248.0	0	1.0	2.0	51200	0	53248	1	51200	0	0.7	53248	turquoise	purple	0	2	ml	2.7.3	bip	sub-10_ses-01_task-ml_proj-bip_2020-12-08-10-22-13.100039
220	10	1	5	221	volatile	3	20	1	sv	turquoise	purple	purple	turquoise	right	left	0.7	0.30000000000000004	4	6	2.8	1.8000000000000005	1	0	0.30000000000000004	0.7	6	4	1.8000000000000005	2.8	valid	0.5165448939987982	51200.0	0	0.0	2.0	53248	0	53248	0	51200	1	0.7	53248	purple	turquoise	0	0	ml	2.7.3	bip	sub-10_ses-01_task-ml_proj-bip_2020-12-08-10-22-13.100039
221	10	1	5	222	volatile	3	20	2	sv	turquoise	purple	purple	turquoise	right	left	0.7	0.30000000000000004	2	6	1.4	1.8000000000000005	1	0	0.30000000000000004	0.7	6	2	1.8000000000000005	1.4	valid	0.3665844879997167	51200.0	0	0.0	2.0	51200	1	53248	0	51200	1	0.7	53248	purple	turquoise	0	0	ml	2.7.3	bip	sub-10_ses-01_task-ml_proj-bip_2020-12-08-10-22-13.100039
222	10	1	5	223	volatile	3	20	3	sv	turquoise	purple	purple	turquoise	right	left	0.7	0.30000000000000004	6	2	4.199999999999998	0.6000000000000001	1	0	0.30000000000000004	0.7	2	6	0.6000000000000001	4.199999999999998	valid	0.3999103489986737	51200.0	0	0.0	2.0	53248	0	53248	0	53248	0	0.7	53248	purple	turquoise	1	0	ml	2.7.3	bip	sub-10_ses-01_task-ml_proj-bip_2020-12-08-10-22-13.100039
223	10	1	5	224	volatile	3	20	4	sv	turquoise	purple	purple	turquoise	right	left	0.7	0.30000000000000004	6	6	4.199999999999998	1.8000000000000005	1	0	0.30000000000000004	0.7	6	6	1.8000000000000005	4.199999999999998	valid	0.4332411689993023	53248.0	0	1.0	1.0	53248	1	53248	1	53248	1	0.7	53248	purple	turquoise	0	6	ml	2.7.3	bip	sub-10_ses-01_task-ml_proj-bip_2020-12-08-10-22-13.100039
224	10	1	5	225	volatile	3	20	5	sv	purple	turquoise	purple	turquoise	left	right	0.7	0.30000000000000004	4	6	2.8	1.8000000000000005	1	0	0.7	0.30000000000000004	4	6	2.8	1.8000000000000005	valid	0.4998794999992242	51200.0	0	0.0	1.0	51200	1	51200	1	53248	0	0.7	51200	purple	turquoise	0	4	ml	2.7.3	bip	sub-10_ses-01_task-ml_proj-bip_2020-12-08-10-22-13.100039
225	10	1	5	226	volatile	3	20	6	sv	purple	turquoise	purple	turquoise	left	right	0.7	0.30000000000000004	2	6	1.4	1.8000000000000005	1	0	0.7	0.30000000000000004	2	6	1.4	1.8000000000000005	valid	0.4498950139986846	51200.0	0	0.0	1.0	53248	0	51200	1	53248	0	0.7	51200	purple	turquoise	0	2	ml	2.7.3	bip	sub-10_ses-01_task-ml_proj-bip_2020-12-08-10-22-13.100039
226	10	1	5	227	volatile	3	20	7	sv	turquoise	purple	purple	turquoise	right	left	0.7	0.30000000000000004	4	2	2.8	0.6000000000000001	1	0	0.30000000000000004	0.7	2	4	0.6000000000000001	2.8	valid	0.38326066099944	53248.0	0	1.0	1.0	53248	1	53248	1	53248	1	0.7	53248	purple	turquoise	1	4	ml	2.7.3	bip	sub-10_ses-01_task-ml_proj-bip_2020-12-08-10-22-13.100039
227	10	1	5	228	volatile	3	20	8	sv	turquoise	purple	purple	turquoise	right	left	0.7	0.30000000000000004	2	6	1.4	1.8000000000000005	0	1	0.30000000000000004	0.7	6	2	1.8000000000000005	1.4	invalid	0.4832306320004136	53248.0	0	1.0	1.0	51200	0	53248	1	51200	0	0.7	53248	purple	turquoise	0	0	ml	2.7.3	bip	sub-10_ses-01_task-ml_proj-bip_2020-12-08-10-22-13.100039
228	10	1	5	229	volatile	3	20	9	sv	turquoise	purple	purple	turquoise	right	left	0.7	0.30000000000000004	6	4	4.199999999999998	1.2000000000000002	1	0	0.30000000000000004	0.7	4	6	1.2000000000000002	4.199999999999998	valid	0.3499360890000389	53248.0	0	1.0	1.0	53248	1	53248	1	53248	1	0.7	53248	purple	turquoise	1	6	ml	2.7.3	bip	sub-10_ses-01_task-ml_proj-bip_2020-12-08-10-22-13.100039
229	10	1	5	230	volatile	3	20	10	sv	turquoise	purple	purple	turquoise	right	left	0.7	0.30000000000000004	2	10	1.4	3.0000000000000004	1	0	0.30000000000000004	0.7	10	2	3.0000000000000004	1.4	valid	0.3666033749996132	53248.0	0	1.0	1.0	51200	0	53248	1	51200	0	0.7	53248	purple	turquoise	0	2	ml	2.7.3	bip	sub-10_ses-01_task-ml_proj-bip_2020-12-08-10-22-13.100039
230	10	1	5	231	volatile	3	20	11	sv	purple	turquoise	purple	turquoise	left	right	0.7	0.30000000000000004	6	6	4.199999999999998	1.8000000000000005	0	1	0.7	0.30000000000000004	6	6	4.199999999999998	1.8000000000000005	invalid	0.4998798820015509	51200.0	0	0.0	1.0	51200	1	51200	1	53248	0	0.7	51200	purple	turquoise	1	0	ml	2.7.3	bip	sub-10_ses-01_task-ml_proj-bip_2020-12-08-10-22-13.100039
231	10	1	5	232	volatile	3	20	12	sv	turquoise	purple	purple	turquoise	right	left	0.7	0.30000000000000004	2	10	1.4	3.0000000000000004	0	1	0.30000000000000004	0.7	10	2	3.0000000000000004	1.4	invalid	0.3165926319998107	51200.0	0	0.0	2.0	51200	1	53248	0	51200	1	0.7	53248	purple	turquoise	0	10	ml	2.7.3	bip	sub-10_ses-01_task-ml_proj-bip_2020-12-08-10-22-13.100039
232	10	1	5	233	volatile	3	20	13	sv	purple	turquoise	purple	turquoise	left	right	0.7	0.30000000000000004	2	2	1.4	0.6000000000000001	1	0	0.7	0.30000000000000004	2	2	1.4	0.6000000000000001	valid	0.5665284820006491	51200.0	0	0.0	1.0	51200	1	51200	1	53248	0	0.7	51200	purple	turquoise	1	2	ml	2.7.3	bip	sub-10_ses-01_task-ml_proj-bip_2020-12-08-10-22-13.100039
233	10	1	5	234	volatile	3	20	14	sv	purple	turquoise	purple	turquoise	left	right	0.7	0.30000000000000004	6	4	4.199999999999998	1.2000000000000002	1	0	0.7	0.30000000000000004	6	4	4.199999999999998	1.2000000000000002	valid	0.5331954160010355	51200.0	0	0.0	1.0	51200	1	51200	1	51200	1	0.7	51200	purple	turquoise	1	6	ml	2.7.3	bip	sub-10_ses-01_task-ml_proj-bip_2020-12-08-10-22-13.100039
234	10	1	5	235	volatile	3	20	15	sv	purple	turquoise	purple	turquoise	left	right	0.7	0.30000000000000004	4	2	2.8	0.6000000000000001	1	0	0.7	0.30000000000000004	4	2	2.8	0.6000000000000001	valid	0.4498958950007364	51200.0	0	0.0	1.0	51200	1	51200	1	51200	1	0.7	51200	purple	turquoise	1	4	ml	2.7.3	bip	sub-10_ses-01_task-ml_proj-bip_2020-12-08-10-22-13.100039
235	10	1	5	236	volatile	3	20	16	sv	purple	turquoise	purple	turquoise	left	right	0.7	0.30000000000000004	2	4	1.4	1.2000000000000002	1	0	0.7	0.30000000000000004	2	4	1.4	1.2000000000000002	valid	0.4165711339992413	51200.0	0	0.0	1.0	51200	1	51200	1	53248	0	0.7	51200	purple	turquoise	0	2	ml	2.7.3	bip	sub-10_ses-01_task-ml_proj-bip_2020-12-08-10-22-13.100039
236	10	1	5	237	volatile	3	20	17	sv	purple	turquoise	purple	turquoise	left	right	0.7	0.30000000000000004	2	2	1.4	0.6000000000000001	0	1	0.7	0.30000000000000004	2	2	1.4	0.6000000000000001	invalid	0.4332327560005069	51200.0	0	0.0	1.0	51200	1	51200	1	53248	0	0.7	51200	purple	turquoise	1	0	ml	2.7.3	bip	sub-10_ses-01_task-ml_proj-bip_2020-12-08-10-22-13.100039
237	10	1	5	238	volatile	3	20	18	sv	turquoise	purple	purple	turquoise	right	left	0.7	0.30000000000000004	10	2	7.0	0.6000000000000001	0	1	0.30000000000000004	0.7	2	10	0.6000000000000001	7.0	invalid	0.4832378560004145	53248.0	0	1.0	1.0	53248	1	53248	1	53248	1	0.7	53248	purple	turquoise	1	0	ml	2.7.3	bip	sub-10_ses-01_task-ml_proj-bip_2020-12-08-10-22-13.100039
238	10	1	5	239	volatile	3	20	19	sv	purple	turquoise	purple	turquoise	left	right	0.7	0.30000000000000004	2	10	1.4	3.0000000000000004	0	1	0.7	0.30000000000000004	2	10	1.4	3.0000000000000004	invalid	0.3665871009998227	51200.0	0	0.0	1.0	53248	0	51200	1	53248	0	0.7	51200	purple	turquoise	0	0	ml	2.7.3	bip	sub-10_ses-01_task-ml_proj-bip_2020-12-08-10-22-13.100039
239	10	1	5	240	volatile	3	20	20	sv	purple	turquoise	purple	turquoise	left	right	0.7	0.30000000000000004	4	2	2.8	0.6000000000000001	1	0	0.7	0.30000000000000004	4	2	2.8	0.6000000000000001	valid	0.33325501599938434	51200.0	0	0.0	1.0	51200	1	51200	1	51200	1	0.7	51200	purple	turquoise	1	4	ml	2.7.3	bip	sub-10_ses-01_task-ml_proj-bip_2020-12-08-10-22-13.100039
240	10	1	5	241	volatile	4	40	1	sv	turquoise	purple	purple	turquoise	right	left	0.30000000000000004	0.7	6	2	1.8000000000000005	1.4	1	0	0.7	0.30000000000000004	2	6	1.4	1.8000000000000005	invalid	0.5165532699993491	53248.0	0	1.0	1.0	53248	1	51200	0	53248	1	0.7	51200	turquoise	purple	0	6	ml	2.7.3	bip	sub-10_ses-01_task-ml_proj-bip_2020-12-08-10-22-13.100039
241	10	1	5	242	volatile	4	40	2	sv	purple	turquoise	purple	turquoise	left	right	0.30000000000000004	0.7	2	6	0.6000000000000001	4.199999999999998	1	0	0.30000000000000004	0.7	2	6	0.6000000000000001	4.199999999999998	invalid	0.4832197810010257	51200.0	0	0.0	1.0	53248	0	53248	0	53248	0	0.7	53248	turquoise	purple	1	2	ml	2.7.3	bip	sub-10_ses-01_task-ml_proj-bip_2020-12-08-10-22-13.100039
242	10	1	5	243	volatile	4	40	3	sv	turquoise	purple	purple	turquoise	right	left	0.30000000000000004	0.7	2	10	0.6000000000000001	7.0	0	1	0.7	0.30000000000000004	10	2	7.0	0.6000000000000001	valid	0.4832360729997162	53248.0	0	1.0	1.0	51200	0	51200	0	51200	0	0.7	51200	turquoise	purple	1	0	ml	2.7.3	bip	sub-10_ses-01_task-ml_proj-bip_2020-12-08-10-22-13.100039
243	10	1	5	244	volatile	4	40	4	sv	purple	turquoise	purple	turquoise	left	right	0.30000000000000004	0.7	2	4	0.6000000000000001	2.8	0	1	0.30000000000000004	0.7	2	4	0.6000000000000001	2.8	valid	0.4498978680003347	51200.0	0	0.0	1.0	53248	0	53248	0	53248	0	0.7	53248	turquoise	purple	1	0	ml	2.7.3	bip	sub-10_ses-01_task-ml_proj-bip_2020-12-08-10-22-13.100039
244	10	1	5	245	volatile	4	40	5	sv	purple	turquoise	purple	turquoise	left	right	0.30000000000000004	0.7	6	2	1.8000000000000005	1.4	0	1	0.30000000000000004	0.7	6	2	1.8000000000000005	1.4	valid	0.5332062680008676	51200.0	0	0.0	1.0	51200	1	53248	0	51200	1	0.7	53248	turquoise	purple	0	0	ml	2.7.3	bip	sub-10_ses-01_task-ml_proj-bip_2020-12-08-10-22-13.100039
245	10	1	5	246	volatile	4	40	6	sv	turquoise	purple	purple	turquoise	right	left	0.30000000000000004	0.7	10	2	3.0000000000000004	1.4	0	1	0.7	0.30000000000000004	2	10	1.4	3.0000000000000004	valid	0.8997779130004346	53248.0	0	1.0	1.0	53248	1	51200	0	53248	1	0.7	51200	turquoise	purple	0	0	ml	2.7.3	bip	sub-10_ses-01_task-ml_proj-bip_2020-12-08-10-22-13.100039
246	10	1	5	247	volatile	4	40	7	sv	purple	turquoise	purple	turquoise	left	right	0.30000000000000004	0.7	6	4	1.8000000000000005	2.8	0	1	0.30000000000000004	0.7	6	4	1.8000000000000005	2.8	valid	0.5165351320010814	51200.0	0	0.0	1.0	53248	0	53248	0	51200	1	0.7	53248	turquoise	purple	0	0	ml	2.7.3	bip	sub-10_ses-01_task-ml_proj-bip_2020-12-08-10-22-13.100039
247	10	1	5	248	volatile	4	40	8	sv	purple	turquoise	purple	turquoise	left	right	0.30000000000000004	0.7	4	2	1.2000000000000002	1.4	0	1	0.30000000000000004	0.7	4	2	1.2000000000000002	1.4	valid	0.6331782760007627	51200.0	0	0.0	1.0	53248	0	53248	0	51200	1	0.7	53248	turquoise	purple	0	0	ml	2.7.3	bip	sub-10_ses-01_task-ml_proj-bip_2020-12-08-10-22-13.100039
248	10	1	5	249	volatile	4	40	9	sv	purple	turquoise	purple	turquoise	left	right	0.30000000000000004	0.7	6	4	1.8000000000000005	2.8	1	0	0.30000000000000004	0.7	6	4	1.8000000000000005	2.8	invalid	2.1993938390005496	53248.0	0	1.0	2.0	53248	1	53248	1	51200	0	0.7	53248	turquoise	purple	0	0	ml	2.7.3	bip	sub-10_ses-01_task-ml_proj-bip_2020-12-08-10-22-13.100039
249	10	1	5	250	volatile	4	40	10	sv	turquoise	purple	purple	turquoise	right	left	0.30000000000000004	0.7	10	2	3.0000000000000004	1.4	0	1	0.7	0.30000000000000004	2	10	1.4	3.0000000000000004	valid	1.2496635539991985	51200.0	0	0.0	2.0	53248	0	51200	1	53248	0	0.7	51200	turquoise	purple	0	2	ml	2.7.3	bip	sub-10_ses-01_task-ml_proj-bip_2020-12-08-10-22-13.100039
250	10	1	6	251	volatile	4	40	11	sv	purple	turquoise	purple	turquoise	left	right	0.30000000000000004	0.7	2	4	0.6000000000000001	2.8	1	0	0.30000000000000004	0.7	2	4	0.6000000000000001	2.8	invalid	1.5495769990011468	51200.0	0	0.0	1.0	53248	0	53248	0	53248	0	0.7	53248	turquoise	purple	1	2	ml	2.7.3	bip	sub-10_ses-01_task-ml_proj-bip_2020-12-08-10-22-13.100039
251	10	1	6	252	volatile	4	40	12	sv	turquoise	purple	purple	turquoise	right	left	0.30000000000000004	0.7	10	2	3.0000000000000004	1.4	1	0	0.7	0.30000000000000004	2	10	1.4	3.0000000000000004	invalid	0.7331555670007219	53248.0	0	1.0	1.0	53248	1	51200	0	53248	1	0.7	51200	turquoise	purple	0	10	ml	2.7.3	bip	sub-10_ses-01_task-ml_proj-bip_2020-12-08-10-22-13.100039
252	10	1	6	253	volatile	4	40	13	sv	turquoise	purple	purple	turquoise	right	left	0.30000000000000004	0.7	2	2	0.6000000000000001	1.4	1	0	0.7	0.30000000000000004	2	2	1.4	0.6000000000000001	invalid	0.5498761010003363	53248.0	0	1.0	1.0	51200	0	51200	0	53248	1	0.7	51200	turquoise	purple	1	2	ml	2.7.3	bip	sub-10_ses-01_task-ml_proj-bip_2020-12-08-10-22-13.100039
253	10	1	6	254	volatile	4	40	14	sv	purple	turquoise	purple	turquoise	left	right	0.30000000000000004	0.7	4	6	1.2000000000000002	4.199999999999998	0	1	0.30000000000000004	0.7	4	6	1.2000000000000002	4.199999999999998	valid	0.3999104550002812	51200.0	0	0.0	1.0	53248	0	53248	0	53248	0	0.7	53248	turquoise	purple	1	0	ml	2.7.3	bip	sub-10_ses-01_task-ml_proj-bip_2020-12-08-10-22-13.100039
254	10	1	6	255	volatile	4	40	15	sv	purple	turquoise	purple	turquoise	left	right	0.30000000000000004	0.7	6	6	1.8000000000000005	4.199999999999998	1	0	0.30000000000000004	0.7	6	6	1.8000000000000005	4.199999999999998	invalid	0.4665552380010922	51200.0	0	0.0	1.0	53248	0	53248	0	53248	0	0.7	53248	turquoise	purple	0	6	ml	2.7.3	bip	sub-10_ses-01_task-ml_proj-bip_2020-12-08-10-22-13.100039
255	10	1	6	256	volatile	4	40	16	sv	purple	turquoise	purple	turquoise	left	right	0.30000000000000004	0.7	6	4	1.8000000000000005	2.8	0	1	0.30000000000000004	0.7	6	4	1.8000000000000005	2.8	valid	0.3999092100002599	51200.0	0	0.0	1.0	53248	0	53248	0	51200	1	0.7	53248	turquoise	purple	0	0	ml	2.7.3	bip	sub-10_ses-01_task-ml_proj-bip_2020-12-08-10-22-13.100039
256	10	1	6	257	volatile	4	40	17	sv	turquoise	purple	purple	turquoise	right	left	0.30000000000000004	0.7	4	2	1.2000000000000002	1.4	0	1	0.7	0.30000000000000004	2	4	1.4	1.2000000000000002	valid	0.4165804590011248	53248.0	0	1.0	1.0	51200	0	51200	0	53248	1	0.7	51200	turquoise	purple	0	0	ml	2.7.3	bip	sub-10_ses-01_task-ml_proj-bip_2020-12-08-10-22-13.100039
257	10	1	6	258	volatile	4	40	18	sv	turquoise	purple	purple	turquoise	right	left	0.30000000000000004	0.7	2	2	0.6000000000000001	1.4	0	1	0.7	0.30000000000000004	2	2	1.4	0.6000000000000001	valid	0.3832574460011529	53248.0	0	1.0	1.0	51200	0	51200	0	53248	1	0.7	51200	turquoise	purple	1	0	ml	2.7.3	bip	sub-10_ses-01_task-ml_proj-bip_2020-12-08-10-22-13.100039
258	10	1	6	259	volatile	4	40	19	sv	turquoise	purple	purple	turquoise	right	left	0.30000000000000004	0.7	2	2	0.6000000000000001	1.4	1	0	0.7	0.30000000000000004	2	2	1.4	0.6000000000000001	invalid	1.049732405001123	53248.0	0	1.0	1.0	51200	0	51200	0	53248	1	0.7	51200	turquoise	purple	1	2	ml	2.7.3	bip	sub-10_ses-01_task-ml_proj-bip_2020-12-08-10-22-13.100039
259	10	1	6	260	volatile	4	40	20	sv	turquoise	purple	purple	turquoise	right	left	0.30000000000000004	0.7	2	6	0.6000000000000001	4.199999999999998	0	1	0.7	0.30000000000000004	6	2	4.199999999999998	0.6000000000000001	valid	1.4496180950009148	53248.0	0	1.0	1.0	51200	0	51200	0	51200	0	0.7	51200	turquoise	purple	1	0	ml	2.7.3	bip	sub-10_ses-01_task-ml_proj-bip_2020-12-08-10-22-13.100039
260	10	1	6	261	volatile	4	40	21	sv	turquoise	purple	purple	turquoise	right	left	0.30000000000000004	0.7	2	4	0.6000000000000001	2.8	0	1	0.7	0.30000000000000004	4	2	2.8	0.6000000000000001	valid	0.6664993559988943	51200.0	0	0.0	2.0	51200	1	51200	1	51200	1	0.7	51200	turquoise	purple	1	4	ml	2.7.3	bip	sub-10_ses-01_task-ml_proj-bip_2020-12-08-10-22-13.100039
261	10	1	6	262	volatile	4	40	22	sv	turquoise	purple	purple	turquoise	right	left	0.30000000000000004	0.7	4	2	1.2000000000000002	1.4	0	1	0.7	0.30000000000000004	2	4	1.4	1.2000000000000002	valid	0.699827385999015	53248.0	0	1.0	1.0	51200	0	51200	0	53248	1	0.7	51200	turquoise	purple	0	0	ml	2.7.3	bip	sub-10_ses-01_task-ml_proj-bip_2020-12-08-10-22-13.100039
262	10	1	6	263	volatile	4	40	23	sv	purple	turquoise	purple	turquoise	left	right	0.30000000000000004	0.7	4	6	1.2000000000000002	4.199999999999998	0	1	0.30000000000000004	0.7	4	6	1.2000000000000002	4.199999999999998	valid	1.049722333000318	51200.0	0	0.0	1.0	53248	0	53248	0	53248	0	0.7	53248	turquoise	purple	1	0	ml	2.7.3	bip	sub-10_ses-01_task-ml_proj-bip_2020-12-08-10-22-13.100039
263	10	1	6	264	volatile	4	40	24	sv	turquoise	purple	purple	turquoise	right	left	0.30000000000000004	0.7	2	6	0.6000000000000001	4.199999999999998	0	1	0.7	0.30000000000000004	6	2	4.199999999999998	0.6000000000000001	valid	0.7164948709996679	53248.0	0	1.0	1.0	51200	0	51200	0	51200	0	0.7	51200	turquoise	purple	1	0	ml	2.7.3	bip	sub-10_ses-01_task-ml_proj-bip_2020-12-08-10-22-13.100039
264	10	1	6	265	volatile	4	40	25	sv	turquoise	purple	purple	turquoise	right	left	0.30000000000000004	0.7	2	4	0.6000000000000001	2.8	0	1	0.7	0.30000000000000004	4	2	2.8	0.6000000000000001	valid	0.5665272729984281	51200.0	0	0.0	2.0	51200	1	51200	1	51200	1	0.7	51200	turquoise	purple	1	4	ml	2.7.3	bip	sub-10_ses-01_task-ml_proj-bip_2020-12-08-10-22-13.100039
265	10	1	6	266	volatile	4	40	26	sv	turquoise	purple	purple	turquoise	right	left	0.30000000000000004	0.7	2	10	0.6000000000000001	7.0	0	1	0.7	0.30000000000000004	10	2	7.0	0.6000000000000001	valid	0.5998496219999652	51200.0	0	0.0	2.0	51200	1	51200	1	51200	1	0.7	51200	turquoise	purple	1	10	ml	2.7.3	bip	sub-10_ses-01_task-ml_proj-bip_2020-12-08-10-22-13.100039
266	10	1	6	267	volatile	4	40	27	sv	purple	turquoise	purple	turquoise	left	right	0.30000000000000004	0.7	6	6	1.8000000000000005	4.199999999999998	1	0	0.30000000000000004	0.7	6	6	1.8000000000000005	4.199999999999998	invalid	0.5332174550003401	53248.0	0	1.0	2.0	53248	1	53248	1	53248	1	0.7	53248	turquoise	purple	0	0	ml	2.7.3	bip	sub-10_ses-01_task-ml_proj-bip_2020-12-08-10-22-13.100039
267	10	1	6	268	volatile	4	40	28	sv	purple	turquoise	purple	turquoise	left	right	0.30000000000000004	0.7	4	2	1.2000000000000002	1.4	0	1	0.30000000000000004	0.7	4	2	1.2000000000000002	1.4	valid	0.5498741650008014	51200.0	0	0.0	1.0	53248	0	53248	0	51200	1	0.7	53248	turquoise	purple	0	0	ml	2.7.3	bip	sub-10_ses-01_task-ml_proj-bip_2020-12-08-10-22-13.100039
268	10	1	6	269	volatile	4	40	29	sv	turquoise	purple	purple	turquoise	right	left	0.30000000000000004	0.7	6	6	1.8000000000000005	4.199999999999998	0	1	0.7	0.30000000000000004	6	6	4.199999999999998	1.8000000000000005	valid	0.483218740000666	51200.0	0	0.0	2.0	51200	1	51200	1	53248	0	0.7	51200	turquoise	purple	1	6	ml	2.7.3	bip	sub-10_ses-01_task-ml_proj-bip_2020-12-08-10-22-13.100039
269	10	1	6	270	volatile	4	40	30	sv	purple	turquoise	purple	turquoise	left	right	0.30000000000000004	0.7	2	6	0.6000000000000001	4.199999999999998	0	1	0.30000000000000004	0.7	2	6	0.6000000000000001	4.199999999999998	valid	0.4499084779999976	53248.0	0	1.0	2.0	53248	1	53248	1	53248	1	0.7	53248	turquoise	purple	1	6	ml	2.7.3	bip	sub-10_ses-01_task-ml_proj-bip_2020-12-08-10-22-13.100039
270	10	1	6	271	volatile	4	40	31	sv	turquoise	purple	purple	turquoise	right	left	0.30000000000000004	0.7	4	6	1.2000000000000002	4.199999999999998	0	1	0.7	0.30000000000000004	6	4	4.199999999999998	1.2000000000000002	valid	0.4332325420000416	51200.0	0	0.0	2.0	51200	1	51200	1	51200	1	0.7	51200	turquoise	purple	1	6	ml	2.7.3	bip	sub-10_ses-01_task-ml_proj-bip_2020-12-08-10-22-13.100039
271	10	1	6	272	volatile	4	40	32	sv	purple	turquoise	purple	turquoise	left	right	0.30000000000000004	0.7	6	2	1.8000000000000005	1.4	0	1	0.30000000000000004	0.7	6	2	1.8000000000000005	1.4	valid	0.7331574590007222	53248.0	0	1.0	2.0	51200	0	53248	1	51200	0	0.7	53248	turquoise	purple	0	2	ml	2.7.3	bip	sub-10_ses-01_task-ml_proj-bip_2020-12-08-10-22-13.100039
272	10	1	6	273	volatile	4	40	33	sv	turquoise	purple	purple	turquoise	right	left	0.30000000000000004	0.7	2	10	0.6000000000000001	7.0	0	1	0.7	0.30000000000000004	10	2	7.0	0.6000000000000001	valid	0.4665556229992944	51200.0	0	0.0	2.0	51200	1	51200	1	51200	1	0.7	51200	turquoise	purple	1	10	ml	2.7.3	bip	sub-10_ses-01_task-ml_proj-bip_2020-12-08-10-22-13.100039
273	10	1	6	274	volatile	4	40	34	sv	turquoise	purple	purple	turquoise	right	left	0.30000000000000004	0.7	2	2	0.6000000000000001	1.4	1	0	0.7	0.30000000000000004	2	2	1.4	0.6000000000000001	invalid	0.4998802249992878	51200.0	0	0.0	2.0	51200	1	51200	1	53248	0	0.7	51200	turquoise	purple	1	0	ml	2.7.3	bip	sub-10_ses-01_task-ml_proj-bip_2020-12-08-10-22-13.100039
