Unnamed: 0	sub_id	ses_id	block_no	trial_no	phase_type	phase_no	phase_length	trialInPhase_no	phase_type_order	color_left	color_right	color1	color2	position1	position2	prob1	prob2	mag1	mag2	ev1	ev2	outcome1	outcome2	prob_left	prob_right	mag_left	mag_right	ev_left	ev_right	reward_validity	resp_time	resp_key	timeout	choice_side	choice	ev_corr_resp	ev_correct	prob_corr_resp	prob_correct	mag_corr_resp	mag_correct	high_prob	high_prob_side	high_prob_color	low_prob_color	no_brain	reward	name	version	proj_id	logFileID
0	1	2	1	1	volatile	1	20	1	vs	green	brown	brown	green	right	left	0.7	0.30000000000000004	4	2	2.8	0.6000000000000001	0	1	0.30000000000000004	0.7	2	4	0.6000000000000001	2.8	invalid	0.9497532530003808	53248	0	1	1	53248	1	53248	1	53248	1	0.7	53248	brown	green	1	0	ml	2.7.3	lorasick	sub-01_ses-02_task-ml_proj-lorasick_2020-10-23-14-19-57.666927
1	1	2	1	2	volatile	1	20	2	vs	green	brown	brown	green	right	left	0.7	0.30000000000000004	2	2	1.4	0.6000000000000001	1	0	0.30000000000000004	0.7	2	2	0.6000000000000001	1.4	valid	0.43324274599945056	53248	0	1	1	53248	1	53248	1	53248	1	0.7	53248	brown	green	0	2	ml	2.7.3	lorasick	sub-01_ses-02_task-ml_proj-lorasick_2020-10-23-14-19-57.666927
2	1	2	1	3	volatile	1	20	3	vs	brown	green	brown	green	left	right	0.7	0.30000000000000004	6	4	4.199999999999998	1.2000000000000002	1	0	0.7	0.30000000000000004	6	4	4.199999999999998	1.2000000000000002	valid	0.3999096270017617	51200	0	0	1	51200	1	51200	1	51200	1	0.7	51200	brown	green	1	6	ml	2.7.3	lorasick	sub-01_ses-02_task-ml_proj-lorasick_2020-10-23-14-19-57.666927
3	1	2	1	4	volatile	1	20	4	vs	brown	green	brown	green	left	right	0.7	0.30000000000000004	2	2	1.4	0.6000000000000001	1	0	0.7	0.30000000000000004	2	2	1.4	0.6000000000000001	valid	0.41656869600046775	51200	0	0	1	51200	1	51200	1	53248	0	0.7	51200	brown	green	1	2	ml	2.7.3	lorasick	sub-01_ses-02_task-ml_proj-lorasick_2020-10-23-14-19-57.666927
4	1	2	1	5	volatile	1	20	5	vs	brown	green	brown	green	left	right	0.7	0.30000000000000004	4	6	2.8	1.8000000000000005	0	1	0.7	0.30000000000000004	4	6	2.8	1.8000000000000005	invalid	0.5498643960017944	51200	0	0	1	51200	1	51200	1	53248	0	0.7	51200	brown	green	0	0	ml	2.7.3	lorasick	sub-01_ses-02_task-ml_proj-lorasick_2020-10-23-14-19-57.666927
5	1	2	1	6	volatile	1	20	6	vs	green	brown	brown	green	right	left	0.7	0.30000000000000004	6	2	4.199999999999998	0.6000000000000001	0	1	0.30000000000000004	0.7	2	6	0.6000000000000001	4.199999999999998	invalid	0.3999179079983151	53248	0	1	1	53248	1	53248	1	53248	1	0.7	53248	brown	green	1	0	ml	2.7.3	lorasick	sub-01_ses-02_task-ml_proj-lorasick_2020-10-23-14-19-57.666927
6	1	2	1	7	volatile	1	20	7	vs	brown	green	brown	green	left	right	0.7	0.30000000000000004	6	6	4.199999999999998	1.8000000000000005	1	0	0.7	0.30000000000000004	6	6	4.199999999999998	1.8000000000000005	valid	0.3832465699997556	51200	0	0	1	51200	1	51200	1	53248	0	0.7	51200	brown	green	1	6	ml	2.7.3	lorasick	sub-01_ses-02_task-ml_proj-lorasick_2020-10-23-14-19-57.666927
7	1	2	1	8	volatile	1	20	8	vs	brown	green	brown	green	left	right	0.7	0.30000000000000004	4	2	2.8	0.6000000000000001	1	0	0.7	0.30000000000000004	4	2	2.8	0.6000000000000001	valid	0.7164789759990526	51200	0	0	1	51200	1	51200	1	51200	1	0.7	51200	brown	green	1	4	ml	2.7.3	lorasick	sub-01_ses-02_task-ml_proj-lorasick_2020-10-23-14-19-57.666927
8	1	2	1	9	volatile	1	20	9	vs	green	brown	brown	green	right	left	0.7	0.30000000000000004	6	4	4.199999999999998	1.2000000000000002	1	0	0.30000000000000004	0.7	4	6	1.2000000000000002	4.199999999999998	valid	0.6331874290008273	53248	0	1	1	53248	1	53248	1	53248	1	0.7	53248	brown	green	1	6	ml	2.7.3	lorasick	sub-01_ses-02_task-ml_proj-lorasick_2020-10-23-14-19-57.666927
9	1	2	1	10	volatile	1	20	10	vs	green	brown	brown	green	right	left	0.7	0.30000000000000004	2	10	1.4	3.0000000000000004	1	0	0.30000000000000004	0.7	10	2	3.0000000000000004	1.4	valid	0.8497724119988561	51200	0	0	2	51200	1	53248	0	51200	1	0.7	53248	brown	green	0	0	ml	2.7.3	lorasick	sub-01_ses-02_task-ml_proj-lorasick_2020-10-23-14-19-57.666927
10	1	2	1	11	volatile	1	20	11	vs	green	brown	brown	green	right	left	0.7	0.30000000000000004	4	2	2.8	0.6000000000000001	0	1	0.30000000000000004	0.7	2	4	0.6000000000000001	2.8	invalid	0.5498659129989392	53248	0	1	1	53248	1	53248	1	53248	1	0.7	53248	brown	green	1	0	ml	2.7.3	lorasick	sub-01_ses-02_task-ml_proj-lorasick_2020-10-23-14-19-57.666927
11	1	2	1	12	volatile	1	20	12	vs	brown	green	brown	green	left	right	0.7	0.30000000000000004	6	2	4.199999999999998	0.6000000000000001	1	0	0.7	0.30000000000000004	6	2	4.199999999999998	0.6000000000000001	valid	0.5498563850014762	51200	0	0	1	51200	1	51200	1	51200	1	0.7	51200	brown	green	1	6	ml	2.7.3	lorasick	sub-01_ses-02_task-ml_proj-lorasick_2020-10-23-14-19-57.666927
12	1	2	1	13	volatile	1	20	13	vs	green	brown	brown	green	right	left	0.7	0.30000000000000004	2	10	1.4	3.0000000000000004	1	0	0.30000000000000004	0.7	10	2	3.0000000000000004	1.4	valid	1.1996746250006254	51200	0	0	2	51200	1	53248	0	51200	1	0.7	53248	brown	green	0	0	ml	2.7.3	lorasick	sub-01_ses-02_task-ml_proj-lorasick_2020-10-23-14-19-57.666927
13	1	2	1	14	volatile	1	20	14	vs	brown	green	brown	green	left	right	0.7	0.30000000000000004	4	2	2.8	0.6000000000000001	0	1	0.7	0.30000000000000004	4	2	2.8	0.6000000000000001	invalid	0.6498332989976916	51200	0	0	1	51200	1	51200	1	51200	1	0.7	51200	brown	green	1	0	ml	2.7.3	lorasick	sub-01_ses-02_task-ml_proj-lorasick_2020-10-23-14-19-57.666927
14	1	2	1	15	volatile	1	20	15	vs	brown	green	brown	green	left	right	0.7	0.30000000000000004	6	2	4.199999999999998	0.6000000000000001	1	0	0.7	0.30000000000000004	6	2	4.199999999999998	0.6000000000000001	valid	0.4165708569998969	51200	0	0	1	51200	1	51200	1	51200	1	0.7	51200	brown	green	1	6	ml	2.7.3	lorasick	sub-01_ses-02_task-ml_proj-lorasick_2020-10-23-14-19-57.666927
15	1	2	1	16	volatile	1	20	16	vs	brown	green	brown	green	left	right	0.7	0.30000000000000004	2	10	1.4	3.0000000000000004	1	0	0.7	0.30000000000000004	2	10	1.4	3.0000000000000004	valid	0.4832222490003914	51200	0	0	1	53248	0	51200	1	53248	0	0.7	51200	brown	green	0	2	ml	2.7.3	lorasick	sub-01_ses-02_task-ml_proj-lorasick_2020-10-23-14-19-57.666927
16	1	2	1	17	volatile	1	20	17	vs	brown	green	brown	green	left	right	0.7	0.30000000000000004	2	10	1.4	3.0000000000000004	0	1	0.7	0.30000000000000004	2	10	1.4	3.0000000000000004	invalid	0.6664941589988302	51200	0	0	1	53248	0	51200	1	53248	0	0.7	51200	brown	green	0	0	ml	2.7.3	lorasick	sub-01_ses-02_task-ml_proj-lorasick_2020-10-23-14-19-57.666927
17	1	2	1	18	volatile	1	20	18	vs	green	brown	brown	green	right	left	0.7	0.30000000000000004	4	6	2.8	1.8000000000000005	1	0	0.30000000000000004	0.7	6	4	1.8000000000000005	2.8	valid	0.99973966700054	53248	0	1	1	53248	1	53248	1	51200	0	0.7	53248	brown	green	0	4	ml	2.7.3	lorasick	sub-01_ses-02_task-ml_proj-lorasick_2020-10-23-14-19-57.666927
18	1	2	1	19	volatile	1	20	19	vs	green	brown	brown	green	right	left	0.7	0.30000000000000004	6	6	4.199999999999998	1.8000000000000005	1	0	0.30000000000000004	0.7	6	6	1.8000000000000005	4.199999999999998	valid	0.4665603279972856	53248	0	1	1	53248	1	53248	1	53248	1	0.7	53248	brown	green	0	6	ml	2.7.3	lorasick	sub-01_ses-02_task-ml_proj-lorasick_2020-10-23-14-19-57.666927
19	1	2	1	20	volatile	1	20	20	vs	green	brown	brown	green	right	left	0.7	0.30000000000000004	6	2	4.199999999999998	0.6000000000000001	1	0	0.30000000000000004	0.7	2	6	0.6000000000000001	4.199999999999998	valid	0.5332107499998529	53248	0	1	1	53248	1	53248	1	53248	1	0.7	53248	brown	green	1	6	ml	2.7.3	lorasick	sub-01_ses-02_task-ml_proj-lorasick_2020-10-23-14-19-57.666927
20	1	2	1	21	volatile	2	20	1	vs	green	brown	brown	green	right	left	0.30000000000000004	0.7	2	10	0.6000000000000001	7.0	0	1	0.7	0.30000000000000004	10	2	7.0	0.6000000000000001	valid	0.6165095239994116	51200	0	0	2	51200	1	51200	1	51200	1	0.7	51200	green	brown	1	10	ml	2.7.3	lorasick	sub-01_ses-02_task-ml_proj-lorasick_2020-10-23-14-19-57.666927
21	1	2	1	22	volatile	2	20	2	vs	brown	green	brown	green	left	right	0.30000000000000004	0.7	2	6	0.6000000000000001	4.199999999999998	0	1	0.30000000000000004	0.7	2	6	0.6000000000000001	4.199999999999998	valid	1.1663432380009908	51200	0	0	1	53248	0	53248	0	53248	0	0.7	53248	green	brown	1	0	ml	2.7.3	lorasick	sub-01_ses-02_task-ml_proj-lorasick_2020-10-23-14-19-57.666927
22	1	2	1	23	volatile	2	20	3	vs	green	brown	brown	green	right	left	0.30000000000000004	0.7	2	4	0.6000000000000001	2.8	0	1	0.7	0.30000000000000004	4	2	2.8	0.6000000000000001	valid	0.5498828720010351	53248	0	1	1	51200	0	51200	0	51200	0	0.7	51200	green	brown	1	0	ml	2.7.3	lorasick	sub-01_ses-02_task-ml_proj-lorasick_2020-10-23-14-19-57.666927
23	1	2	1	24	volatile	2	20	4	vs	brown	green	brown	green	left	right	0.30000000000000004	0.7	2	2	0.6000000000000001	1.4	1	0	0.30000000000000004	0.7	2	2	0.6000000000000001	1.4	invalid	0.4665552719998232	51200	0	0	1	53248	0	53248	0	53248	0	0.7	53248	green	brown	0	2	ml	2.7.3	lorasick	sub-01_ses-02_task-ml_proj-lorasick_2020-10-23-14-19-57.666927
24	1	2	1	25	volatile	2	20	5	vs	green	brown	brown	green	right	left	0.30000000000000004	0.7	2	4	0.6000000000000001	2.8	0	1	0.7	0.30000000000000004	4	2	2.8	0.6000000000000001	valid	0.44990283500010253	53248	0	1	1	51200	0	51200	0	51200	0	0.7	51200	green	brown	1	0	ml	2.7.3	lorasick	sub-01_ses-02_task-ml_proj-lorasick_2020-10-23-14-19-57.666927
25	1	2	1	26	volatile	2	20	6	vs	brown	green	brown	green	left	right	0.30000000000000004	0.7	4	6	1.2000000000000002	4.199999999999998	0	1	0.30000000000000004	0.7	4	6	1.2000000000000002	4.199999999999998	valid	0.6664914300017699	51200	0	0	1	53248	0	53248	0	53248	0	0.7	53248	green	brown	1	0	ml	2.7.3	lorasick	sub-01_ses-02_task-ml_proj-lorasick_2020-10-23-14-19-57.666927
26	1	2	1	27	volatile	2	20	7	vs	green	brown	brown	green	right	left	0.30000000000000004	0.7	6	6	1.8000000000000005	4.199999999999998	1	0	0.7	0.30000000000000004	6	6	4.199999999999998	1.8000000000000005	invalid	0.5165359189995797	51200	0	0	2	51200	1	51200	1	53248	0	0.7	51200	green	brown	1	0	ml	2.7.3	lorasick	sub-01_ses-02_task-ml_proj-lorasick_2020-10-23-14-19-57.666927
27	1	2	1	28	volatile	2	20	8	vs	brown	green	brown	green	left	right	0.30000000000000004	0.7	4	6	1.2000000000000002	4.199999999999998	0	1	0.30000000000000004	0.7	4	6	1.2000000000000002	4.199999999999998	valid	0.5165491750012734	53248	0	1	2	53248	1	53248	1	53248	1	0.7	53248	green	brown	1	6	ml	2.7.3	lorasick	sub-01_ses-02_task-ml_proj-lorasick_2020-10-23-14-19-57.666927
28	1	2	1	29	volatile	2	20	9	vs	green	brown	brown	green	right	left	0.30000000000000004	0.7	2	2	0.6000000000000001	1.4	0	1	0.7	0.30000000000000004	2	2	1.4	0.6000000000000001	valid	0.4665628209986608	51200	0	0	2	51200	1	51200	1	53248	0	0.7	51200	green	brown	1	2	ml	2.7.3	lorasick	sub-01_ses-02_task-ml_proj-lorasick_2020-10-23-14-19-57.666927
29	1	2	1	30	volatile	2	20	10	vs	brown	green	brown	green	left	right	0.30000000000000004	0.7	2	6	0.6000000000000001	4.199999999999998	0	1	0.30000000000000004	0.7	2	6	0.6000000000000001	4.199999999999998	valid	0.3999215240000922	53248	0	1	2	53248	1	53248	1	53248	1	0.7	53248	green	brown	1	6	ml	2.7.3	lorasick	sub-01_ses-02_task-ml_proj-lorasick_2020-10-23-14-19-57.666927
30	1	2	1	31	volatile	2	20	11	vs	brown	green	brown	green	left	right	0.30000000000000004	0.7	2	4	0.6000000000000001	2.8	0	1	0.30000000000000004	0.7	2	4	0.6000000000000001	2.8	valid	0.4332432810006139	53248	0	1	2	53248	1	53248	1	53248	1	0.7	53248	green	brown	1	4	ml	2.7.3	lorasick	sub-01_ses-02_task-ml_proj-lorasick_2020-10-23-14-19-57.666927
31	1	2	1	32	volatile	2	20	12	vs	green	brown	brown	green	right	left	0.30000000000000004	0.7	2	6	0.6000000000000001	4.199999999999998	0	1	0.7	0.30000000000000004	6	2	4.199999999999998	0.6000000000000001	valid	0.3665897869977925	51200	0	0	2	51200	1	51200	1	51200	1	0.7	51200	green	brown	1	6	ml	2.7.3	lorasick	sub-01_ses-02_task-ml_proj-lorasick_2020-10-23-14-19-57.666927
32	1	2	1	33	volatile	2	20	13	vs	green	brown	brown	green	right	left	0.30000000000000004	0.7	4	2	1.2000000000000002	1.4	1	0	0.7	0.30000000000000004	2	4	1.4	1.2000000000000002	invalid	0.7997939810011303	51200	0	0	2	51200	1	51200	1	53248	0	0.7	51200	green	brown	0	0	ml	2.7.3	lorasick	sub-01_ses-02_task-ml_proj-lorasick_2020-10-23-14-19-57.666927
33	1	2	1	34	volatile	2	20	14	vs	brown	green	brown	green	left	right	0.30000000000000004	0.7	2	10	0.6000000000000001	7.0	1	0	0.30000000000000004	0.7	2	10	0.6000000000000001	7.0	invalid	0.5831969690007099	53248	0	1	2	53248	1	53248	1	53248	1	0.7	53248	green	brown	1	0	ml	2.7.3	lorasick	sub-01_ses-02_task-ml_proj-lorasick_2020-10-23-14-19-57.666927
34	1	2	1	35	volatile	2	20	15	vs	green	brown	brown	green	right	left	0.30000000000000004	0.7	2	10	0.6000000000000001	7.0	0	1	0.7	0.30000000000000004	10	2	7.0	0.6000000000000001	valid	0.3832430149996071	51200	0	0	2	51200	1	51200	1	51200	1	0.7	51200	green	brown	1	10	ml	2.7.3	lorasick	sub-01_ses-02_task-ml_proj-lorasick_2020-10-23-14-19-57.666927
35	1	2	1	36	volatile	2	20	16	vs	brown	green	brown	green	left	right	0.30000000000000004	0.7	6	2	1.8000000000000005	1.4	1	0	0.30000000000000004	0.7	6	2	1.8000000000000005	1.4	invalid	0.7664882179997221	53248	0	1	2	51200	0	53248	1	51200	0	0.7	53248	green	brown	0	0	ml	2.7.3	lorasick	sub-01_ses-02_task-ml_proj-lorasick_2020-10-23-14-19-57.666927
36	1	2	1	37	volatile	2	20	17	vs	green	brown	brown	green	right	left	0.30000000000000004	0.7	4	6	1.2000000000000002	4.199999999999998	0	1	0.7	0.30000000000000004	6	4	4.199999999999998	1.2000000000000002	valid	0.3999247040010232	53248	0	1	1	51200	0	51200	0	51200	0	0.7	51200	green	brown	1	0	ml	2.7.3	lorasick	sub-01_ses-02_task-ml_proj-lorasick_2020-10-23-14-19-57.666927
37	1	2	1	38	volatile	2	20	18	vs	brown	green	brown	green	left	right	0.30000000000000004	0.7	6	4	1.8000000000000005	2.8	0	1	0.30000000000000004	0.7	6	4	1.8000000000000005	2.8	valid	0.4665708360007557	51200	0	0	1	53248	0	53248	0	51200	1	0.7	53248	green	brown	0	0	ml	2.7.3	lorasick	sub-01_ses-02_task-ml_proj-lorasick_2020-10-23-14-19-57.666927
38	1	2	1	39	volatile	2	20	19	vs	green	brown	brown	green	right	left	0.30000000000000004	0.7	10	2	3.0000000000000004	1.4	1	0	0.7	0.30000000000000004	2	10	1.4	3.0000000000000004	invalid	0.7498145779973129	53248	0	1	1	53248	1	51200	0	53248	1	0.7	51200	green	brown	0	10	ml	2.7.3	lorasick	sub-01_ses-02_task-ml_proj-lorasick_2020-10-23-14-19-57.666927
39	1	2	1	40	volatile	2	20	20	vs	brown	green	brown	green	left	right	0.30000000000000004	0.7	6	6	1.8000000000000005	4.199999999999998	0	1	0.30000000000000004	0.7	6	6	1.8000000000000005	4.199999999999998	valid	0.4498936290001439	51200	0	0	1	53248	0	53248	0	53248	0	0.7	53248	green	brown	0	0	ml	2.7.3	lorasick	sub-01_ses-02_task-ml_proj-lorasick_2020-10-23-14-19-57.666927
40	1	2	1	41	volatile	3	40	1	vs	brown	green	brown	green	left	right	0.7	0.30000000000000004	2	2	1.4	0.6000000000000001	0	1	0.7	0.30000000000000004	2	2	1.4	0.6000000000000001	invalid	0.3499297089983884	53248	0	1	2	51200	0	51200	0	53248	1	0.7	51200	brown	green	1	2	ml	2.7.3	lorasick	sub-01_ses-02_task-ml_proj-lorasick_2020-10-23-14-19-57.666927
41	1	2	1	42	volatile	3	40	2	vs	brown	green	brown	green	left	right	0.7	0.30000000000000004	6	2	4.199999999999998	0.6000000000000001	0	1	0.7	0.30000000000000004	6	2	4.199999999999998	0.6000000000000001	invalid	0.5332176510019053	53248	0	1	2	51200	0	51200	0	51200	0	0.7	51200	brown	green	1	2	ml	2.7.3	lorasick	sub-01_ses-02_task-ml_proj-lorasick_2020-10-23-14-19-57.666927
42	1	2	1	43	volatile	3	40	3	vs	brown	green	brown	green	left	right	0.7	0.30000000000000004	2	2	1.4	0.6000000000000001	1	0	0.7	0.30000000000000004	2	2	1.4	0.6000000000000001	valid	0.3665916030004155	53248	0	1	2	51200	0	51200	0	53248	1	0.7	51200	brown	green	1	0	ml	2.7.3	lorasick	sub-01_ses-02_task-ml_proj-lorasick_2020-10-23-14-19-57.666927
43	1	2	1	44	volatile	3	40	4	vs	brown	green	brown	green	left	right	0.7	0.30000000000000004	6	6	4.199999999999998	1.8000000000000005	1	0	0.7	0.30000000000000004	6	6	4.199999999999998	1.8000000000000005	valid	0.3499314539985789	53248	0	1	2	51200	0	51200	0	53248	1	0.7	51200	brown	green	1	0	ml	2.7.3	lorasick	sub-01_ses-02_task-ml_proj-lorasick_2020-10-23-14-19-57.666927
44	1	2	1	45	volatile	3	40	5	vs	brown	green	brown	green	left	right	0.7	0.30000000000000004	4	2	2.8	0.6000000000000001	1	0	0.7	0.30000000000000004	4	2	2.8	0.6000000000000001	valid	0.4665493200009223	51200	0	0	1	51200	1	51200	1	51200	1	0.7	51200	brown	green	1	4	ml	2.7.3	lorasick	sub-01_ses-02_task-ml_proj-lorasick_2020-10-23-14-19-57.666927
45	1	2	1	46	volatile	3	40	6	vs	brown	green	brown	green	left	right	0.7	0.30000000000000004	2	6	1.4	1.8000000000000005	1	0	0.7	0.30000000000000004	2	6	1.4	1.8000000000000005	valid	0.4832109110029705	51200	0	0	1	53248	0	51200	1	53248	0	0.7	51200	brown	green	0	2	ml	2.7.3	lorasick	sub-01_ses-02_task-ml_proj-lorasick_2020-10-23-14-19-57.666927
46	1	2	1	47	volatile	3	40	7	vs	brown	green	brown	green	left	right	0.7	0.30000000000000004	6	2	4.199999999999998	0.6000000000000001	1	0	0.7	0.30000000000000004	6	2	4.199999999999998	0.6000000000000001	valid	0.4998774710002181	51200	0	0	1	51200	1	51200	1	51200	1	0.7	51200	brown	green	1	6	ml	2.7.3	lorasick	sub-01_ses-02_task-ml_proj-lorasick_2020-10-23-14-19-57.666927
47	1	2	1	48	volatile	3	40	8	vs	green	brown	brown	green	right	left	0.7	0.30000000000000004	6	2	4.199999999999998	0.6000000000000001	1	0	0.30000000000000004	0.7	2	6	0.6000000000000001	4.199999999999998	valid	0.5332388579990948	53248	0	1	1	53248	1	53248	1	53248	1	0.7	53248	brown	green	1	6	ml	2.7.3	lorasick	sub-01_ses-02_task-ml_proj-lorasick_2020-10-23-14-19-57.666927
48	1	2	1	49	volatile	3	40	9	vs	green	brown	brown	green	right	left	0.7	0.30000000000000004	2	10	1.4	3.0000000000000004	1	0	0.30000000000000004	0.7	10	2	3.0000000000000004	1.4	valid	0.5998578899998392	53248	0	1	1	51200	0	53248	1	51200	0	0.7	53248	brown	green	0	2	ml	2.7.3	lorasick	sub-01_ses-02_task-ml_proj-lorasick_2020-10-23-14-19-57.666927
49	1	2	1	50	volatile	3	40	10	vs	brown	green	brown	green	left	right	0.7	0.30000000000000004	2	10	1.4	3.0000000000000004	0	1	0.7	0.30000000000000004	2	10	1.4	3.0000000000000004	invalid	0.5665389450005023	53248	0	1	2	53248	1	51200	0	53248	1	0.7	51200	brown	green	0	10	ml	2.7.3	lorasick	sub-01_ses-02_task-ml_proj-lorasick_2020-10-23-14-19-57.666927
50	1	2	2	51	volatile	3	40	11	vs	green	brown	brown	green	right	left	0.7	0.30000000000000004	4	6	2.8	1.8000000000000005	1	0	0.30000000000000004	0.7	6	4	1.8000000000000005	2.8	valid	0.9164259450008104	51200	0	0	2	53248	0	53248	0	51200	1	0.7	53248	brown	green	0	0	ml	2.7.3	lorasick	sub-01_ses-02_task-ml_proj-lorasick_2020-10-23-14-19-57.666927
51	1	2	2	52	volatile	3	40	12	vs	brown	green	brown	green	left	right	0.7	0.30000000000000004	2	10	1.4	3.0000000000000004	1	0	0.7	0.30000000000000004	2	10	1.4	3.0000000000000004	valid	0.4665639069971803	53248	0	1	2	53248	1	51200	0	53248	1	0.7	51200	brown	green	0	0	ml	2.7.3	lorasick	sub-01_ses-02_task-ml_proj-lorasick_2020-10-23-14-19-57.666927
52	1	2	2	53	volatile	3	40	13	vs	green	brown	brown	green	right	left	0.7	0.30000000000000004	6	6	4.199999999999998	1.8000000000000005	0	1	0.30000000000000004	0.7	6	6	1.8000000000000005	4.199999999999998	invalid	0.6331775649996416	51200	0	0	2	53248	0	53248	0	53248	0	0.7	53248	brown	green	0	6	ml	2.7.3	lorasick	sub-01_ses-02_task-ml_proj-lorasick_2020-10-23-14-19-57.666927
53	1	2	2	54	volatile	3	40	14	vs	brown	green	brown	green	left	right	0.7	0.30000000000000004	10	2	7.0	0.6000000000000001	1	0	0.7	0.30000000000000004	10	2	7.0	0.6000000000000001	valid	0.8664325139980065	51200	0	0	1	51200	1	51200	1	51200	1	0.7	51200	brown	green	1	10	ml	2.7.3	lorasick	sub-01_ses-02_task-ml_proj-lorasick_2020-10-23-14-19-57.666927
54	1	2	2	55	volatile	3	40	15	vs	green	brown	brown	green	right	left	0.7	0.30000000000000004	10	2	7.0	0.6000000000000001	1	0	0.30000000000000004	0.7	2	10	0.6000000000000001	7.0	valid	0.3665966999978991	53248	0	1	1	53248	1	53248	1	53248	1	0.7	53248	brown	green	1	10	ml	2.7.3	lorasick	sub-01_ses-02_task-ml_proj-lorasick_2020-10-23-14-19-57.666927
55	1	2	2	56	volatile	3	40	16	vs	green	brown	brown	green	right	left	0.7	0.30000000000000004	2	10	1.4	3.0000000000000004	0	1	0.30000000000000004	0.7	10	2	3.0000000000000004	1.4	invalid	0.8997588359998191	51200	0	0	2	51200	1	53248	0	51200	1	0.7	53248	brown	green	0	10	ml	2.7.3	lorasick	sub-01_ses-02_task-ml_proj-lorasick_2020-10-23-14-19-57.666927
56	1	2	2	57	volatile	3	40	17	vs	green	brown	brown	green	right	left	0.7	0.30000000000000004	6	6	4.199999999999998	1.8000000000000005	0	1	0.30000000000000004	0.7	6	6	1.8000000000000005	4.199999999999998	invalid	1.4995809369975177	51200	0	0	2	53248	0	53248	0	53248	0	0.7	53248	brown	green	0	6	ml	2.7.3	lorasick	sub-01_ses-02_task-ml_proj-lorasick_2020-10-23-14-19-57.666927
57	1	2	2	58	volatile	3	40	18	vs	green	brown	brown	green	right	left	0.7	0.30000000000000004	2	10	1.4	3.0000000000000004	1	0	0.30000000000000004	0.7	10	2	3.0000000000000004	1.4	valid	0.5998459629990975	51200	0	0	2	51200	1	53248	0	51200	1	0.7	53248	brown	green	0	0	ml	2.7.3	lorasick	sub-01_ses-02_task-ml_proj-lorasick_2020-10-23-14-19-57.666927
58	1	2	2	59	volatile	3	40	19	vs	brown	green	brown	green	left	right	0.7	0.30000000000000004	2	6	1.4	1.8000000000000005	1	0	0.7	0.30000000000000004	2	6	1.4	1.8000000000000005	valid	0.8497830499982229	53248	0	1	2	53248	1	51200	0	53248	1	0.7	51200	brown	green	0	0	ml	2.7.3	lorasick	sub-01_ses-02_task-ml_proj-lorasick_2020-10-23-14-19-57.666927
59	1	2	2	60	volatile	3	40	20	vs	green	brown	brown	green	right	left	0.7	0.30000000000000004	2	6	1.4	1.8000000000000005	1	0	0.30000000000000004	0.7	6	2	1.8000000000000005	1.4	valid	0.5831794939986139	51200	0	0	2	51200	1	53248	0	51200	1	0.7	53248	brown	green	0	0	ml	2.7.3	lorasick	sub-01_ses-02_task-ml_proj-lorasick_2020-10-23-14-19-57.666927
60	1	2	2	61	volatile	3	40	21	vs	brown	green	brown	green	left	right	0.7	0.30000000000000004	6	4	4.199999999999998	1.2000000000000002	1	0	0.7	0.30000000000000004	6	4	4.199999999999998	1.2000000000000002	valid	0.3999073519989905	51200	0	0	1	51200	1	51200	1	51200	1	0.7	51200	brown	green	1	6	ml	2.7.3	lorasick	sub-01_ses-02_task-ml_proj-lorasick_2020-10-23-14-19-57.666927
61	1	2	2	62	volatile	3	40	22	vs	green	brown	brown	green	right	left	0.7	0.30000000000000004	6	6	4.199999999999998	1.8000000000000005	1	0	0.30000000000000004	0.7	6	6	1.8000000000000005	4.199999999999998	valid	0.3665897079990828	53248	0	1	1	53248	1	53248	1	53248	1	0.7	53248	brown	green	0	6	ml	2.7.3	lorasick	sub-01_ses-02_task-ml_proj-lorasick_2020-10-23-14-19-57.666927
62	1	2	2	63	volatile	3	40	23	vs	green	brown	brown	green	right	left	0.7	0.30000000000000004	6	4	4.199999999999998	1.2000000000000002	0	1	0.30000000000000004	0.7	4	6	1.2000000000000002	4.199999999999998	invalid	0.4499054179977975	53248	0	1	1	53248	1	53248	1	53248	1	0.7	53248	brown	green	1	0	ml	2.7.3	lorasick	sub-01_ses-02_task-ml_proj-lorasick_2020-10-23-14-19-57.666927
63	1	2	2	64	volatile	3	40	24	vs	brown	green	brown	green	left	right	0.7	0.30000000000000004	4	6	2.8	1.8000000000000005	0	1	0.7	0.30000000000000004	4	6	2.8	1.8000000000000005	invalid	0.5665246409989777	51200	0	0	1	51200	1	51200	1	53248	0	0.7	51200	brown	green	0	0	ml	2.7.3	lorasick	sub-01_ses-02_task-ml_proj-lorasick_2020-10-23-14-19-57.666927
64	1	2	2	65	volatile	3	40	25	vs	green	brown	brown	green	right	left	0.7	0.30000000000000004	6	4	4.199999999999998	1.2000000000000002	1	0	0.30000000000000004	0.7	4	6	1.2000000000000002	4.199999999999998	valid	0.4165787509991787	53248	0	1	1	53248	1	53248	1	53248	1	0.7	53248	brown	green	1	6	ml	2.7.3	lorasick	sub-01_ses-02_task-ml_proj-lorasick_2020-10-23-14-19-57.666927
65	1	2	2	66	volatile	3	40	26	vs	green	brown	brown	green	right	left	0.7	0.30000000000000004	4	6	2.8	1.8000000000000005	1	0	0.30000000000000004	0.7	6	4	1.8000000000000005	2.8	valid	0.44990326600236585	53248	0	1	1	53248	1	53248	1	51200	0	0.7	53248	brown	green	0	4	ml	2.7.3	lorasick	sub-01_ses-02_task-ml_proj-lorasick_2020-10-23-14-19-57.666927
66	1	2	2	67	volatile	3	40	27	vs	green	brown	brown	green	right	left	0.7	0.30000000000000004	2	4	1.4	1.2000000000000002	1	0	0.30000000000000004	0.7	4	2	1.2000000000000002	1.4	valid	0.5498671870009275	53248	0	1	1	53248	1	53248	1	51200	0	0.7	53248	brown	green	0	2	ml	2.7.3	lorasick	sub-01_ses-02_task-ml_proj-lorasick_2020-10-23-14-19-57.666927
67	1	2	2	68	volatile	3	40	28	vs	green	brown	brown	green	right	left	0.7	0.30000000000000004	2	4	1.4	1.2000000000000002	1	0	0.30000000000000004	0.7	4	2	1.2000000000000002	1.4	valid	0.5165519869988202	53248	0	1	1	53248	1	53248	1	51200	0	0.7	53248	brown	green	0	2	ml	2.7.3	lorasick	sub-01_ses-02_task-ml_proj-lorasick_2020-10-23-14-19-57.666927
68	1	2	2	69	volatile	3	40	29	vs	brown	green	brown	green	left	right	0.7	0.30000000000000004	6	4	4.199999999999998	1.2000000000000002	1	0	0.7	0.30000000000000004	6	4	4.199999999999998	1.2000000000000002	valid	0.7331520740008273	53248	0	1	2	51200	0	51200	0	51200	0	0.7	51200	brown	green	1	0	ml	2.7.3	lorasick	sub-01_ses-02_task-ml_proj-lorasick_2020-10-23-14-19-57.666927
69	1	2	2	70	volatile	3	40	30	vs	green	brown	brown	green	right	left	0.7	0.30000000000000004	4	2	2.8	0.6000000000000001	0	1	0.30000000000000004	0.7	2	4	0.6000000000000001	2.8	invalid	0.5831852199989953	51200	0	0	2	53248	0	53248	0	53248	0	0.7	53248	brown	green	1	2	ml	2.7.3	lorasick	sub-01_ses-02_task-ml_proj-lorasick_2020-10-23-14-19-57.666927
70	1	2	2	71	volatile	3	40	31	vs	green	brown	brown	green	right	left	0.7	0.30000000000000004	2	6	1.4	1.8000000000000005	1	0	0.30000000000000004	0.7	6	2	1.8000000000000005	1.4	valid	0.5332132069997897	53248	0	1	1	51200	0	53248	1	51200	0	0.7	53248	brown	green	0	2	ml	2.7.3	lorasick	sub-01_ses-02_task-ml_proj-lorasick_2020-10-23-14-19-57.666927
71	1	2	2	72	volatile	3	40	32	vs	brown	green	brown	green	left	right	0.7	0.30000000000000004	2	10	1.4	3.0000000000000004	0	1	0.7	0.30000000000000004	2	10	1.4	3.0000000000000004	invalid	1.1997076029983873	53248	0	1	2	53248	1	51200	0	53248	1	0.7	51200	brown	green	0	10	ml	2.7.3	lorasick	sub-01_ses-02_task-ml_proj-lorasick_2020-10-23-14-19-57.666927
72	1	2	2	73	volatile	3	40	33	vs	green	brown	brown	green	right	left	0.7	0.30000000000000004	2	4	1.4	1.2000000000000002	1	0	0.30000000000000004	0.7	4	2	1.2000000000000002	1.4	valid	0.7831351109998649	53248	0	1	1	53248	1	53248	1	51200	0	0.7	53248	brown	green	0	2	ml	2.7.3	lorasick	sub-01_ses-02_task-ml_proj-lorasick_2020-10-23-14-19-57.666927
73	1	2	2	74	volatile	3	40	34	vs	brown	green	brown	green	left	right	0.7	0.30000000000000004	4	6	2.8	1.8000000000000005	1	0	0.7	0.30000000000000004	4	6	2.8	1.8000000000000005	valid	0.4665524619995267	51200	0	0	1	51200	1	51200	1	53248	0	0.7	51200	brown	green	0	4	ml	2.7.3	lorasick	sub-01_ses-02_task-ml_proj-lorasick_2020-10-23-14-19-57.666927
74	1	2	2	75	volatile	3	40	35	vs	green	brown	brown	green	right	left	0.7	0.30000000000000004	2	2	1.4	0.6000000000000001	0	1	0.30000000000000004	0.7	2	2	0.6000000000000001	1.4	invalid	0.4832257849993766	53248	0	1	1	53248	1	53248	1	53248	1	0.7	53248	brown	green	0	0	ml	2.7.3	lorasick	sub-01_ses-02_task-ml_proj-lorasick_2020-10-23-14-19-57.666927
75	1	2	2	76	volatile	3	40	36	vs	brown	green	brown	green	left	right	0.7	0.30000000000000004	2	4	1.4	1.2000000000000002	0	1	0.7	0.30000000000000004	2	4	1.4	1.2000000000000002	invalid	0.4165874189966417	53248	0	1	2	51200	0	51200	0	53248	1	0.7	51200	brown	green	0	4	ml	2.7.3	lorasick	sub-01_ses-02_task-ml_proj-lorasick_2020-10-23-14-19-57.666927
76	1	2	2	77	volatile	3	40	37	vs	brown	green	brown	green	left	right	0.7	0.30000000000000004	2	6	1.4	1.8000000000000005	1	0	0.7	0.30000000000000004	2	6	1.4	1.8000000000000005	valid	0.3832528649982123	53248	0	1	2	53248	1	51200	0	53248	1	0.7	51200	brown	green	0	0	ml	2.7.3	lorasick	sub-01_ses-02_task-ml_proj-lorasick_2020-10-23-14-19-57.666927
77	1	2	2	78	volatile	3	40	38	vs	brown	green	brown	green	left	right	0.7	0.30000000000000004	2	2	1.4	0.6000000000000001	1	0	0.7	0.30000000000000004	2	2	1.4	0.6000000000000001	valid	0.3999115689985047	53248	0	1	2	51200	0	51200	0	53248	1	0.7	51200	brown	green	1	0	ml	2.7.3	lorasick	sub-01_ses-02_task-ml_proj-lorasick_2020-10-23-14-19-57.666927
78	1	2	2	79	volatile	3	40	39	vs	green	brown	brown	green	right	left	0.7	0.30000000000000004	4	2	2.8	0.6000000000000001	1	0	0.30000000000000004	0.7	2	4	0.6000000000000001	2.8	valid	0.4998925770014466	53248	0	1	1	53248	1	53248	1	53248	1	0.7	53248	brown	green	1	4	ml	2.7.3	lorasick	sub-01_ses-02_task-ml_proj-lorasick_2020-10-23-14-19-57.666927
79	1	2	2	80	volatile	3	40	40	vs	brown	green	brown	green	left	right	0.7	0.30000000000000004	2	4	1.4	1.2000000000000002	1	0	0.7	0.30000000000000004	2	4	1.4	1.2000000000000002	valid	0.6331689110011212	51200	0	0	1	51200	1	51200	1	53248	0	0.7	51200	brown	green	0	2	ml	2.7.3	lorasick	sub-01_ses-02_task-ml_proj-lorasick_2020-10-23-14-19-57.666927
80	1	2	2	81	volatile	4	40	1	vs	green	brown	brown	green	right	left	0.30000000000000004	0.7	6	4	1.8000000000000005	2.8	0	1	0.7	0.30000000000000004	4	6	2.8	1.8000000000000005	valid	0.4165814400003001	53248	0	1	1	51200	0	51200	0	53248	1	0.7	51200	green	brown	0	0	ml	2.7.3	lorasick	sub-01_ses-02_task-ml_proj-lorasick_2020-10-23-14-19-57.666927
81	1	2	2	82	volatile	4	40	2	vs	green	brown	brown	green	right	left	0.30000000000000004	0.7	6	4	1.8000000000000005	2.8	1	0	0.7	0.30000000000000004	4	6	2.8	1.8000000000000005	invalid	0.8664440239990654	53248	0	1	1	51200	0	51200	0	53248	1	0.7	51200	green	brown	0	6	ml	2.7.3	lorasick	sub-01_ses-02_task-ml_proj-lorasick_2020-10-23-14-19-57.666927
82	1	2	2	83	volatile	4	40	3	vs	green	brown	brown	green	right	left	0.30000000000000004	0.7	2	6	0.6000000000000001	4.199999999999998	0	1	0.7	0.30000000000000004	6	2	4.199999999999998	0.6000000000000001	valid	0.9330996019998564	53248	0	1	1	51200	0	51200	0	51200	0	0.7	51200	green	brown	1	0	ml	2.7.3	lorasick	sub-01_ses-02_task-ml_proj-lorasick_2020-10-23-14-19-57.666927
83	1	2	2	84	volatile	4	40	4	vs	brown	green	brown	green	left	right	0.30000000000000004	0.7	2	6	0.6000000000000001	4.199999999999998	0	1	0.30000000000000004	0.7	2	6	0.6000000000000001	4.199999999999998	valid	0.8664417829968443	53248	0	1	2	53248	1	53248	1	53248	1	0.7	53248	green	brown	1	6	ml	2.7.3	lorasick	sub-01_ses-02_task-ml_proj-lorasick_2020-10-23-14-19-57.666927
84	1	2	2	85	volatile	4	40	5	vs	green	brown	brown	green	right	left	0.30000000000000004	0.7	6	2	1.8000000000000005	1.4	0	1	0.7	0.30000000000000004	2	6	1.4	1.8000000000000005	valid	0.5332100000014179	53248	0	1	1	53248	1	51200	0	53248	1	0.7	51200	green	brown	0	0	ml	2.7.3	lorasick	sub-01_ses-02_task-ml_proj-lorasick_2020-10-23-14-19-57.666927
85	1	2	2	86	volatile	4	40	6	vs	green	brown	brown	green	right	left	0.30000000000000004	0.7	2	10	0.6000000000000001	7.0	0	1	0.7	0.30000000000000004	10	2	7.0	0.6000000000000001	valid	0.6165023680005106	51200	0	0	2	51200	1	51200	1	51200	1	0.7	51200	green	brown	1	10	ml	2.7.3	lorasick	sub-01_ses-02_task-ml_proj-lorasick_2020-10-23-14-19-57.666927
86	1	2	2	87	volatile	4	40	7	vs	brown	green	brown	green	left	right	0.30000000000000004	0.7	4	6	1.2000000000000002	4.199999999999998	1	0	0.30000000000000004	0.7	4	6	1.2000000000000002	4.199999999999998	invalid	0.9164252489972567	51200	0	0	1	53248	0	53248	0	53248	0	0.7	53248	green	brown	1	4	ml	2.7.3	lorasick	sub-01_ses-02_task-ml_proj-lorasick_2020-10-23-14-19-57.666927
87	1	2	2	88	volatile	4	40	8	vs	green	brown	brown	green	right	left	0.30000000000000004	0.7	4	6	1.2000000000000002	4.199999999999998	0	1	0.7	0.30000000000000004	6	4	4.199999999999998	1.2000000000000002	valid	0.5998575099984009	53248	0	1	1	51200	0	51200	0	51200	0	0.7	51200	green	brown	1	0	ml	2.7.3	lorasick	sub-01_ses-02_task-ml_proj-lorasick_2020-10-23-14-19-57.666927
88	1	2	2	89	volatile	4	40	9	vs	brown	green	brown	green	left	right	0.30000000000000004	0.7	2	4	0.6000000000000001	2.8	0	1	0.30000000000000004	0.7	2	4	0.6000000000000001	2.8	valid	0.5498605540014978	51200	0	0	1	53248	0	53248	0	53248	0	0.7	53248	green	brown	1	0	ml	2.7.3	lorasick	sub-01_ses-02_task-ml_proj-lorasick_2020-10-23-14-19-57.666927
89	1	2	2	90	volatile	4	40	10	vs	brown	green	brown	green	left	right	0.30000000000000004	0.7	4	2	1.2000000000000002	1.4	0	1	0.30000000000000004	0.7	4	2	1.2000000000000002	1.4	valid	0.44990414999847417	53248	0	1	2	53248	1	53248	1	51200	0	0.7	53248	green	brown	0	2	ml	2.7.3	lorasick	sub-01_ses-02_task-ml_proj-lorasick_2020-10-23-14-19-57.666927
90	1	2	2	91	volatile	4	40	11	vs	brown	green	brown	green	left	right	0.30000000000000004	0.7	4	2	1.2000000000000002	1.4	0	1	0.30000000000000004	0.7	4	2	1.2000000000000002	1.4	valid	0.3999184280000918	53248	0	1	2	53248	1	53248	1	51200	0	0.7	53248	green	brown	0	2	ml	2.7.3	lorasick	sub-01_ses-02_task-ml_proj-lorasick_2020-10-23-14-19-57.666927
91	1	2	2	92	volatile	4	40	12	vs	green	brown	brown	green	right	left	0.30000000000000004	0.7	2	2	0.6000000000000001	1.4	0	1	0.7	0.30000000000000004	2	2	1.4	0.6000000000000001	valid	0.39990479299740395	51200	0	0	2	51200	1	51200	1	53248	0	0.7	51200	green	brown	1	2	ml	2.7.3	lorasick	sub-01_ses-02_task-ml_proj-lorasick_2020-10-23-14-19-57.666927
92	1	2	2	93	volatile	4	40	13	vs	brown	green	brown	green	left	right	0.30000000000000004	0.7	10	2	3.0000000000000004	1.4	0	1	0.30000000000000004	0.7	10	2	3.0000000000000004	1.4	valid	0.899757351999142	51200	0	0	1	51200	1	53248	0	51200	1	0.7	53248	green	brown	0	0	ml	2.7.3	lorasick	sub-01_ses-02_task-ml_proj-lorasick_2020-10-23-14-19-57.666927
93	1	2	2	94	volatile	4	40	14	vs	brown	green	brown	green	left	right	0.30000000000000004	0.7	6	2	1.8000000000000005	1.4	0	1	0.30000000000000004	0.7	6	2	1.8000000000000005	1.4	valid	0.5998510650024399	51200	0	0	1	51200	1	53248	0	51200	1	0.7	53248	green	brown	0	0	ml	2.7.3	lorasick	sub-01_ses-02_task-ml_proj-lorasick_2020-10-23-14-19-57.666927
94	1	2	2	95	volatile	4	40	15	vs	brown	green	brown	green	left	right	0.30000000000000004	0.7	6	6	1.8000000000000005	4.199999999999998	0	1	0.30000000000000004	0.7	6	6	1.8000000000000005	4.199999999999998	valid	0.599861120001151	53248	0	1	2	53248	1	53248	1	53248	1	0.7	53248	green	brown	0	6	ml	2.7.3	lorasick	sub-01_ses-02_task-ml_proj-lorasick_2020-10-23-14-19-57.666927
95	1	2	2	96	volatile	4	40	16	vs	green	brown	brown	green	right	left	0.30000000000000004	0.7	2	2	0.6000000000000001	1.4	1	0	0.7	0.30000000000000004	2	2	1.4	0.6000000000000001	invalid	0.5165389790017798	51200	0	0	2	51200	1	51200	1	53248	0	0.7	51200	green	brown	1	0	ml	2.7.3	lorasick	sub-01_ses-02_task-ml_proj-lorasick_2020-10-23-14-19-57.666927
96	1	2	2	97	volatile	4	40	17	vs	brown	green	brown	green	left	right	0.30000000000000004	0.7	6	4	1.8000000000000005	2.8	1	0	0.30000000000000004	0.7	6	4	1.8000000000000005	2.8	invalid	0.8164702729991404	53248	0	1	2	53248	1	53248	1	51200	0	0.7	53248	green	brown	0	0	ml	2.7.3	lorasick	sub-01_ses-02_task-ml_proj-lorasick_2020-10-23-14-19-57.666927
97	1	2	2	98	volatile	4	40	18	vs	green	brown	brown	green	right	left	0.30000000000000004	0.7	6	6	1.8000000000000005	4.199999999999998	0	1	0.7	0.30000000000000004	6	6	4.199999999999998	1.8000000000000005	valid	1.3829468809999526	51200	0	0	2	51200	1	51200	1	53248	0	0.7	51200	green	brown	1	6	ml	2.7.3	lorasick	sub-01_ses-02_task-ml_proj-lorasick_2020-10-23-14-19-57.666927
98	1	2	2	99	volatile	4	40	19	vs	green	brown	brown	green	right	left	0.30000000000000004	0.7	2	10	0.6000000000000001	7.0	0	1	0.7	0.30000000000000004	10	2	7.0	0.6000000000000001	valid	0.6165098999990732	51200	0	0	2	51200	1	51200	1	51200	1	0.7	51200	green	brown	1	10	ml	2.7.3	lorasick	sub-01_ses-02_task-ml_proj-lorasick_2020-10-23-14-19-57.666927
99	1	2	2	100	volatile	4	40	20	vs	brown	green	brown	green	left	right	0.30000000000000004	0.7	6	6	1.8000000000000005	4.199999999999998	0	1	0.30000000000000004	0.7	6	6	1.8000000000000005	4.199999999999998	valid	0.5165502359996026	53248	0	1	2	53248	1	53248	1	53248	1	0.7	53248	green	brown	0	6	ml	2.7.3	lorasick	sub-01_ses-02_task-ml_proj-lorasick_2020-10-23-14-19-57.666927
100	1	2	3	101	volatile	4	40	21	vs	green	brown	brown	green	right	left	0.30000000000000004	0.7	2	4	0.6000000000000001	2.8	0	1	0.7	0.30000000000000004	4	2	2.8	0.6000000000000001	valid	0.9164106039970648	51200	0	0	2	51200	1	51200	1	51200	1	0.7	51200	green	brown	1	4	ml	2.7.3	lorasick	sub-01_ses-02_task-ml_proj-lorasick_2020-10-23-14-19-57.666927
101	1	2	3	102	volatile	4	40	22	vs	green	brown	brown	green	right	left	0.30000000000000004	0.7	6	2	1.8000000000000005	1.4	0	1	0.7	0.30000000000000004	2	6	1.4	1.8000000000000005	valid	0.6665056340025329	53248	0	1	1	53248	1	51200	0	53248	1	0.7	51200	green	brown	0	0	ml	2.7.3	lorasick	sub-01_ses-02_task-ml_proj-lorasick_2020-10-23-14-19-57.666927
102	1	2	3	103	volatile	4	40	23	vs	brown	green	brown	green	left	right	0.30000000000000004	0.7	2	4	0.6000000000000001	2.8	1	0	0.30000000000000004	0.7	2	4	0.6000000000000001	2.8	invalid	0.366593743001431	53248	0	1	2	53248	1	53248	1	53248	1	0.7	53248	green	brown	1	0	ml	2.7.3	lorasick	sub-01_ses-02_task-ml_proj-lorasick_2020-10-23-14-19-57.666927
103	1	2	3	104	volatile	4	40	24	vs	green	brown	brown	green	right	left	0.30000000000000004	0.7	2	2	0.6000000000000001	1.4	0	1	0.7	0.30000000000000004	2	2	1.4	0.6000000000000001	valid	0.3999070900026709	51200	0	0	2	51200	1	51200	1	53248	0	0.7	51200	green	brown	1	2	ml	2.7.3	lorasick	sub-01_ses-02_task-ml_proj-lorasick_2020-10-23-14-19-57.666927
104	1	2	3	105	volatile	4	40	25	vs	green	brown	brown	green	right	left	0.30000000000000004	0.7	10	2	3.0000000000000004	1.4	1	0	0.7	0.30000000000000004	2	10	1.4	3.0000000000000004	invalid	1.1496946259976542	53248	0	1	1	53248	1	51200	0	53248	1	0.7	51200	green	brown	0	10	ml	2.7.3	lorasick	sub-01_ses-02_task-ml_proj-lorasick_2020-10-23-14-19-57.666927
105	1	2	3	106	volatile	4	40	26	vs	brown	green	brown	green	left	right	0.30000000000000004	0.7	6	4	1.8000000000000005	2.8	0	1	0.30000000000000004	0.7	6	4	1.8000000000000005	2.8	valid	0.6165204960016126	53248	0	1	2	53248	1	53248	1	51200	0	0.7	53248	green	brown	0	4	ml	2.7.3	lorasick	sub-01_ses-02_task-ml_proj-lorasick_2020-10-23-14-19-57.666927
106	1	2	3	107	volatile	4	40	27	vs	green	brown	brown	green	right	left	0.30000000000000004	0.7	4	2	1.2000000000000002	1.4	0	1	0.7	0.30000000000000004	2	4	1.4	1.2000000000000002	valid	0.5831964630015136	51200	0	0	2	51200	1	51200	1	53248	0	0.7	51200	green	brown	0	2	ml	2.7.3	lorasick	sub-01_ses-02_task-ml_proj-lorasick_2020-10-23-14-19-57.666927
107	1	2	3	108	volatile	4	40	28	vs	green	brown	brown	green	right	left	0.30000000000000004	0.7	10	2	3.0000000000000004	1.4	1	0	0.7	0.30000000000000004	2	10	1.4	3.0000000000000004	invalid	1.0497185780004656	51200	0	0	2	53248	0	51200	1	53248	0	0.7	51200	green	brown	0	0	ml	2.7.3	lorasick	sub-01_ses-02_task-ml_proj-lorasick_2020-10-23-14-19-57.666927
108	1	2	3	109	volatile	4	40	29	vs	brown	green	brown	green	left	right	0.30000000000000004	0.7	4	6	1.2000000000000002	4.199999999999998	0	1	0.30000000000000004	0.7	4	6	1.2000000000000002	4.199999999999998	valid	1.1330315169980167	53248	0	1	2	53248	1	53248	1	53248	1	0.7	53248	green	brown	1	6	ml	2.7.3	lorasick	sub-01_ses-02_task-ml_proj-lorasick_2020-10-23-14-19-57.666927
109	1	2	3	110	volatile	4	40	30	vs	brown	green	brown	green	left	right	0.30000000000000004	0.7	10	2	3.0000000000000004	1.4	0	1	0.30000000000000004	0.7	10	2	3.0000000000000004	1.4	valid	0.4665553489976446	51200	0	0	1	51200	1	53248	0	51200	1	0.7	53248	green	brown	0	0	ml	2.7.3	lorasick	sub-01_ses-02_task-ml_proj-lorasick_2020-10-23-14-19-57.666927
110	1	2	3	111	volatile	4	40	31	vs	brown	green	brown	green	left	right	0.30000000000000004	0.7	4	2	1.2000000000000002	1.4	1	0	0.30000000000000004	0.7	4	2	1.2000000000000002	1.4	invalid	0.5165497760026483	53248	0	1	2	53248	1	53248	1	51200	0	0.7	53248	green	brown	0	0	ml	2.7.3	lorasick	sub-01_ses-02_task-ml_proj-lorasick_2020-10-23-14-19-57.666927
111	1	2	3	112	volatile	4	40	32	vs	brown	green	brown	green	left	right	0.30000000000000004	0.7	2	10	0.6000000000000001	7.0	0	1	0.30000000000000004	0.7	2	10	0.6000000000000001	7.0	valid	0.4665625980014738	53248	0	1	2	53248	1	53248	1	53248	1	0.7	53248	green	brown	1	10	ml	2.7.3	lorasick	sub-01_ses-02_task-ml_proj-lorasick_2020-10-23-14-19-57.666927
112	1	2	3	113	volatile	4	40	33	vs	brown	green	brown	green	left	right	0.30000000000000004	0.7	6	2	1.8000000000000005	1.4	1	0	0.30000000000000004	0.7	6	2	1.8000000000000005	1.4	invalid	0.5498722619995533	53248	0	1	2	51200	0	53248	1	51200	0	0.7	53248	green	brown	0	0	ml	2.7.3	lorasick	sub-01_ses-02_task-ml_proj-lorasick_2020-10-23-14-19-57.666927
113	1	2	3	114	volatile	4	40	34	vs	brown	green	brown	green	left	right	0.30000000000000004	0.7	2	4	0.6000000000000001	2.8	0	1	0.30000000000000004	0.7	2	4	0.6000000000000001	2.8	valid	0.3499297679991287	53248	0	1	2	53248	1	53248	1	53248	1	0.7	53248	green	brown	1	4	ml	2.7.3	lorasick	sub-01_ses-02_task-ml_proj-lorasick_2020-10-23-14-19-57.666927
114	1	2	3	115	volatile	4	40	35	vs	brown	green	brown	green	left	right	0.30000000000000004	0.7	6	6	1.8000000000000005	4.199999999999998	0	1	0.30000000000000004	0.7	6	6	1.8000000000000005	4.199999999999998	valid	0.4165706079984375	53248	0	1	2	53248	1	53248	1	53248	1	0.7	53248	green	brown	0	6	ml	2.7.3	lorasick	sub-01_ses-02_task-ml_proj-lorasick_2020-10-23-14-19-57.666927
115	1	2	3	116	volatile	4	40	36	vs	green	brown	brown	green	right	left	0.30000000000000004	0.7	4	6	1.2000000000000002	4.199999999999998	1	0	0.7	0.30000000000000004	6	4	4.199999999999998	1.2000000000000002	invalid	0.5332015519998095	51200	0	0	2	51200	1	51200	1	51200	1	0.7	51200	green	brown	1	0	ml	2.7.3	lorasick	sub-01_ses-02_task-ml_proj-lorasick_2020-10-23-14-19-57.666927
116	1	2	3	117	volatile	4	40	37	vs	green	brown	brown	green	right	left	0.30000000000000004	0.7	2	6	0.6000000000000001	4.199999999999998	0	1	0.7	0.30000000000000004	6	2	4.199999999999998	0.6000000000000001	valid	0.3999058099980175	51200	0	0	2	51200	1	51200	1	51200	1	0.7	51200	green	brown	1	6	ml	2.7.3	lorasick	sub-01_ses-02_task-ml_proj-lorasick_2020-10-23-14-19-57.666927
117	1	2	3	118	volatile	4	40	38	vs	green	brown	brown	green	right	left	0.30000000000000004	0.7	2	2	0.6000000000000001	1.4	0	1	0.7	0.30000000000000004	2	2	1.4	0.6000000000000001	valid	0.6831535370001802	51200	0	0	2	51200	1	51200	1	53248	0	0.7	51200	green	brown	1	2	ml	2.7.3	lorasick	sub-01_ses-02_task-ml_proj-lorasick_2020-10-23-14-19-57.666927
118	1	2	3	119	volatile	4	40	39	vs	brown	green	brown	green	left	right	0.30000000000000004	0.7	2	6	0.6000000000000001	4.199999999999998	1	0	0.30000000000000004	0.7	2	6	0.6000000000000001	4.199999999999998	invalid	0.5665334100012842	53248	0	1	2	53248	1	53248	1	53248	1	0.7	53248	green	brown	1	0	ml	2.7.3	lorasick	sub-01_ses-02_task-ml_proj-lorasick_2020-10-23-14-19-57.666927
119	1	2	3	120	volatile	4	40	40	vs	green	brown	brown	green	right	left	0.30000000000000004	0.7	10	2	3.0000000000000004	1.4	1	0	0.7	0.30000000000000004	2	10	1.4	3.0000000000000004	invalid	0.7164842450001743	53248	0	1	1	53248	1	51200	0	53248	1	0.7	51200	green	brown	0	10	ml	2.7.3	lorasick	sub-01_ses-02_task-ml_proj-lorasick_2020-10-23-14-19-57.666927
120	1	2	3	121	volatile	5	20	1	vs	green	brown	brown	green	right	left	0.7	0.30000000000000004	6	4	4.199999999999998	1.2000000000000002	1	0	0.30000000000000004	0.7	4	6	1.2000000000000002	4.199999999999998	valid	0.6165106830012519	51200	0	0	2	53248	0	53248	0	53248	0	0.7	53248	brown	green	1	0	ml	2.7.3	lorasick	sub-01_ses-02_task-ml_proj-lorasick_2020-10-23-14-19-57.666927
121	1	2	3	122	volatile	5	20	2	vs	green	brown	brown	green	right	left	0.7	0.30000000000000004	2	4	1.4	1.2000000000000002	0	1	0.30000000000000004	0.7	4	2	1.2000000000000002	1.4	invalid	0.3832569219994184	53248	0	1	1	53248	1	53248	1	51200	0	0.7	53248	brown	green	0	0	ml	2.7.3	lorasick	sub-01_ses-02_task-ml_proj-lorasick_2020-10-23-14-19-57.666927
122	1	2	3	123	volatile	5	20	3	vs	brown	green	brown	green	left	right	0.7	0.30000000000000004	2	2	1.4	0.6000000000000001	0	1	0.7	0.30000000000000004	2	2	1.4	0.6000000000000001	invalid	0.3499215049996565	51200	0	0	1	51200	1	51200	1	53248	0	0.7	51200	brown	green	1	0	ml	2.7.3	lorasick	sub-01_ses-02_task-ml_proj-lorasick_2020-10-23-14-19-57.666927
123	1	2	3	124	volatile	5	20	4	vs	brown	green	brown	green	left	right	0.7	0.30000000000000004	2	4	1.4	1.2000000000000002	0	1	0.7	0.30000000000000004	2	4	1.4	1.2000000000000002	invalid	0.6331707399986044	51200	0	0	1	51200	1	51200	1	53248	0	0.7	51200	brown	green	0	0	ml	2.7.3	lorasick	sub-01_ses-02_task-ml_proj-lorasick_2020-10-23-14-19-57.666927
124	1	2	3	125	volatile	5	20	5	vs	green	brown	brown	green	right	left	0.7	0.30000000000000004	6	2	4.199999999999998	0.6000000000000001	1	0	0.30000000000000004	0.7	2	6	0.6000000000000001	4.199999999999998	valid	1.732854750000115	53248	0	1	1	53248	1	53248	1	53248	1	0.7	53248	brown	green	1	6	ml	2.7.3	lorasick	sub-01_ses-02_task-ml_proj-lorasick_2020-10-23-14-19-57.666927
125	1	2	3	126	volatile	5	20	6	vs	green	brown	brown	green	right	left	0.7	0.30000000000000004	6	6	4.199999999999998	1.8000000000000005	1	0	0.30000000000000004	0.7	6	6	1.8000000000000005	4.199999999999998	valid	0.5165577510015282	53248	0	1	1	53248	1	53248	1	53248	1	0.7	53248	brown	green	0	6	ml	2.7.3	lorasick	sub-01_ses-02_task-ml_proj-lorasick_2020-10-23-14-19-57.666927
126	1	2	3	127	volatile	5	20	7	vs	brown	green	brown	green	left	right	0.7	0.30000000000000004	4	6	2.8	1.8000000000000005	1	0	0.7	0.30000000000000004	4	6	2.8	1.8000000000000005	valid	0.3999092539997946	51200	0	0	1	51200	1	51200	1	53248	0	0.7	51200	brown	green	0	4	ml	2.7.3	lorasick	sub-01_ses-02_task-ml_proj-lorasick_2020-10-23-14-19-57.666927
127	1	2	3	128	volatile	5	20	8	vs	green	brown	brown	green	right	left	0.7	0.30000000000000004	4	6	2.8	1.8000000000000005	1	0	0.30000000000000004	0.7	6	4	1.8000000000000005	2.8	valid	0.34993066899914993	53248	0	1	1	53248	1	53248	1	51200	0	0.7	53248	brown	green	0	4	ml	2.7.3	lorasick	sub-01_ses-02_task-ml_proj-lorasick_2020-10-23-14-19-57.666927
128	1	2	3	129	volatile	5	20	9	vs	green	brown	brown	green	right	left	0.7	0.30000000000000004	2	6	1.4	1.8000000000000005	0	1	0.30000000000000004	0.7	6	2	1.8000000000000005	1.4	invalid	0.3999404940004752	53248	0	1	1	51200	0	53248	1	51200	0	0.7	53248	brown	green	0	0	ml	2.7.3	lorasick	sub-01_ses-02_task-ml_proj-lorasick_2020-10-23-14-19-57.666927
129	1	2	3	130	volatile	5	20	10	vs	brown	green	brown	green	left	right	0.7	0.30000000000000004	10	2	7.0	0.6000000000000001	0	1	0.7	0.30000000000000004	10	2	7.0	0.6000000000000001	invalid	0.5665229139995063	51200	0	0	1	51200	1	51200	1	51200	1	0.7	51200	brown	green	1	0	ml	2.7.3	lorasick	sub-01_ses-02_task-ml_proj-lorasick_2020-10-23-14-19-57.666927
130	1	2	3	131	volatile	5	20	11	vs	green	brown	brown	green	right	left	0.7	0.30000000000000004	6	2	4.199999999999998	0.6000000000000001	1	0	0.30000000000000004	0.7	2	6	0.6000000000000001	4.199999999999998	valid	0.6165249179975945	53248	0	1	1	53248	1	53248	1	53248	1	0.7	53248	brown	green	1	6	ml	2.7.3	lorasick	sub-01_ses-02_task-ml_proj-lorasick_2020-10-23-14-19-57.666927
131	1	2	3	132	volatile	5	20	12	vs	brown	green	brown	green	left	right	0.7	0.30000000000000004	2	10	1.4	3.0000000000000004	1	0	0.7	0.30000000000000004	2	10	1.4	3.0000000000000004	valid	0.5332000610032992	51200	0	0	1	53248	0	51200	1	53248	0	0.7	51200	brown	green	0	2	ml	2.7.3	lorasick	sub-01_ses-02_task-ml_proj-lorasick_2020-10-23-14-19-57.666927
132	1	2	3	133	volatile	5	20	13	vs	green	brown	brown	green	right	left	0.7	0.30000000000000004	2	6	1.4	1.8000000000000005	1	0	0.30000000000000004	0.7	6	2	1.8000000000000005	1.4	valid	1.083036258998618	53248	0	1	1	51200	0	53248	1	51200	0	0.7	53248	brown	green	0	2	ml	2.7.3	lorasick	sub-01_ses-02_task-ml_proj-lorasick_2020-10-23-14-19-57.666927
133	1	2	3	134	volatile	5	20	14	vs	brown	green	brown	green	left	right	0.7	0.30000000000000004	10	2	7.0	0.6000000000000001	1	0	0.7	0.30000000000000004	10	2	7.0	0.6000000000000001	valid	0.6664944020012626	51200	0	0	1	51200	1	51200	1	51200	1	0.7	51200	brown	green	1	10	ml	2.7.3	lorasick	sub-01_ses-02_task-ml_proj-lorasick_2020-10-23-14-19-57.666927
134	1	2	3	135	volatile	5	20	15	vs	brown	green	brown	green	left	right	0.7	0.30000000000000004	6	4	4.199999999999998	1.2000000000000002	1	0	0.7	0.30000000000000004	6	4	4.199999999999998	1.2000000000000002	valid	0.4998725350014866	51200	0	0	1	51200	1	51200	1	51200	1	0.7	51200	brown	green	1	6	ml	2.7.3	lorasick	sub-01_ses-02_task-ml_proj-lorasick_2020-10-23-14-19-57.666927
135	1	2	3	136	volatile	5	20	16	vs	brown	green	brown	green	left	right	0.7	0.30000000000000004	2	4	1.4	1.2000000000000002	1	0	0.7	0.30000000000000004	2	4	1.4	1.2000000000000002	valid	0.5831899059994612	51200	0	0	1	51200	1	51200	1	53248	0	0.7	51200	brown	green	0	2	ml	2.7.3	lorasick	sub-01_ses-02_task-ml_proj-lorasick_2020-10-23-14-19-57.666927
136	1	2	3	137	volatile	5	20	17	vs	green	brown	brown	green	right	left	0.7	0.30000000000000004	10	2	7.0	0.6000000000000001	1	0	0.30000000000000004	0.7	2	10	0.6000000000000001	7.0	valid	1.0830368400020234	51200	0	0	2	53248	0	53248	0	53248	0	0.7	53248	brown	green	1	0	ml	2.7.3	lorasick	sub-01_ses-02_task-ml_proj-lorasick_2020-10-23-14-19-57.666927
137	1	2	3	138	volatile	5	20	18	vs	green	brown	brown	green	right	left	0.7	0.30000000000000004	6	6	4.199999999999998	1.8000000000000005	0	1	0.30000000000000004	0.7	6	6	1.8000000000000005	4.199999999999998	invalid	0.4665671359980479	53248	0	1	1	53248	1	53248	1	53248	1	0.7	53248	brown	green	0	0	ml	2.7.3	lorasick	sub-01_ses-02_task-ml_proj-lorasick_2020-10-23-14-19-57.666927
138	1	2	3	139	volatile	5	20	19	vs	brown	green	brown	green	left	right	0.7	0.30000000000000004	2	2	1.4	0.6000000000000001	1	0	0.7	0.30000000000000004	2	2	1.4	0.6000000000000001	valid	0.5498629469984735	51200	0	0	1	51200	1	51200	1	53248	0	0.7	51200	brown	green	1	2	ml	2.7.3	lorasick	sub-01_ses-02_task-ml_proj-lorasick_2020-10-23-14-19-57.666927
139	1	2	3	140	volatile	5	20	20	vs	brown	green	brown	green	left	right	0.7	0.30000000000000004	4	2	2.8	0.6000000000000001	1	0	0.7	0.30000000000000004	4	2	2.8	0.6000000000000001	valid	0.4332306270007393	51200	0	0	1	51200	1	51200	1	51200	1	0.7	51200	brown	green	1	4	ml	2.7.3	lorasick	sub-01_ses-02_task-ml_proj-lorasick_2020-10-23-14-19-57.666927
140	1	2	3	141	volatile	6	20	1	vs	brown	green	brown	green	left	right	0.30000000000000004	0.7	2	2	0.6000000000000001	1.4	0	1	0.30000000000000004	0.7	2	2	0.6000000000000001	1.4	valid	0.4998753949985257	51200	0	0	1	53248	0	53248	0	53248	0	0.7	53248	green	brown	0	0	ml	2.7.3	lorasick	sub-01_ses-02_task-ml_proj-lorasick_2020-10-23-14-19-57.666927
141	1	2	3	142	volatile	6	20	2	vs	green	brown	brown	green	right	left	0.30000000000000004	0.7	2	2	0.6000000000000001	1.4	0	1	0.7	0.30000000000000004	2	2	1.4	0.6000000000000001	valid	0.39990712500002706	51200	0	0	2	51200	1	51200	1	53248	0	0.7	51200	green	brown	1	2	ml	2.7.3	lorasick	sub-01_ses-02_task-ml_proj-lorasick_2020-10-23-14-19-57.666927
142	1	2	3	143	volatile	6	20	3	vs	brown	green	brown	green	left	right	0.30000000000000004	0.7	2	10	0.6000000000000001	7.0	0	1	0.30000000000000004	0.7	2	10	0.6000000000000001	7.0	valid	0.3499318040012439	53248	0	1	2	53248	1	53248	1	53248	1	0.7	53248	green	brown	1	10	ml	2.7.3	lorasick	sub-01_ses-02_task-ml_proj-lorasick_2020-10-23-14-19-57.666927
143	1	2	3	144	volatile	6	20	4	vs	brown	green	brown	green	left	right	0.30000000000000004	0.7	10	2	3.0000000000000004	1.4	0	1	0.30000000000000004	0.7	10	2	3.0000000000000004	1.4	valid	0.5332108380025602	53248	0	1	2	51200	0	53248	1	51200	0	0.7	53248	green	brown	0	2	ml	2.7.3	lorasick	sub-01_ses-02_task-ml_proj-lorasick_2020-10-23-14-19-57.666927
144	1	2	3	145	volatile	6	20	5	vs	green	brown	brown	green	right	left	0.30000000000000004	0.7	6	2	1.8000000000000005	1.4	1	0	0.7	0.30000000000000004	2	6	1.4	1.8000000000000005	invalid	0.4665519730006054	51200	0	0	2	53248	0	51200	1	53248	0	0.7	51200	green	brown	0	0	ml	2.7.3	lorasick	sub-01_ses-02_task-ml_proj-lorasick_2020-10-23-14-19-57.666927
145	1	2	3	146	volatile	6	20	6	vs	brown	green	brown	green	left	right	0.30000000000000004	0.7	4	2	1.2000000000000002	1.4	0	1	0.30000000000000004	0.7	4	2	1.2000000000000002	1.4	valid	0.6331703579999157	51200	0	0	1	53248	0	53248	0	51200	1	0.7	53248	green	brown	0	0	ml	2.7.3	lorasick	sub-01_ses-02_task-ml_proj-lorasick_2020-10-23-14-19-57.666927
146	1	2	3	147	volatile	6	20	7	vs	brown	green	brown	green	left	right	0.30000000000000004	0.7	2	4	0.6000000000000001	2.8	1	0	0.30000000000000004	0.7	2	4	0.6000000000000001	2.8	invalid	0.5832041900030163	53248	0	1	2	53248	1	53248	1	53248	1	0.7	53248	green	brown	1	0	ml	2.7.3	lorasick	sub-01_ses-02_task-ml_proj-lorasick_2020-10-23-14-19-57.666927
147	1	2	3	148	volatile	6	20	8	vs	green	brown	brown	green	right	left	0.30000000000000004	0.7	2	6	0.6000000000000001	4.199999999999998	0	1	0.7	0.30000000000000004	6	2	4.199999999999998	0.6000000000000001	valid	0.4332238520000829	51200	0	0	2	51200	1	51200	1	51200	1	0.7	51200	green	brown	1	6	ml	2.7.3	lorasick	sub-01_ses-02_task-ml_proj-lorasick_2020-10-23-14-19-57.666927
148	1	2	3	149	volatile	6	20	9	vs	green	brown	brown	green	right	left	0.30000000000000004	0.7	6	4	1.8000000000000005	2.8	0	1	0.7	0.30000000000000004	4	6	2.8	1.8000000000000005	valid	0.6831574739990174	51200	0	0	2	51200	1	51200	1	53248	0	0.7	51200	green	brown	0	4	ml	2.7.3	lorasick	sub-01_ses-02_task-ml_proj-lorasick_2020-10-23-14-19-57.666927
149	1	2	3	150	volatile	6	20	10	vs	green	brown	brown	green	right	left	0.30000000000000004	0.7	4	2	1.2000000000000002	1.4	0	1	0.7	0.30000000000000004	2	4	1.4	1.2000000000000002	valid	0.4998747190002178	51200	0	0	2	51200	1	51200	1	53248	0	0.7	51200	green	brown	0	2	ml	2.7.3	lorasick	sub-01_ses-02_task-ml_proj-lorasick_2020-10-23-14-19-57.666927
150	1	2	4	151	volatile	6	20	11	vs	brown	green	brown	green	left	right	0.30000000000000004	0.7	6	6	1.8000000000000005	4.199999999999998	0	1	0.30000000000000004	0.7	6	6	1.8000000000000005	4.199999999999998	valid	0.5498697590010124	53248	0	1	2	53248	1	53248	1	53248	1	0.7	53248	green	brown	0	6	ml	2.7.3	lorasick	sub-01_ses-02_task-ml_proj-lorasick_2020-10-23-14-19-57.666927
151	1	2	4	152	volatile	6	20	12	vs	brown	green	brown	green	left	right	0.30000000000000004	0.7	4	6	1.2000000000000002	4.199999999999998	1	0	0.30000000000000004	0.7	4	6	1.2000000000000002	4.199999999999998	invalid	0.483226462998573	53248	0	1	2	53248	1	53248	1	53248	1	0.7	53248	green	brown	1	0	ml	2.7.3	lorasick	sub-01_ses-02_task-ml_proj-lorasick_2020-10-23-14-19-57.666927
152	1	2	4	153	volatile	6	20	13	vs	green	brown	brown	green	right	left	0.30000000000000004	0.7	10	2	3.0000000000000004	1.4	0	1	0.7	0.30000000000000004	2	10	1.4	3.0000000000000004	valid	0.983066651999252	51200	0	0	2	53248	0	51200	1	53248	0	0.7	51200	green	brown	0	2	ml	2.7.3	lorasick	sub-01_ses-02_task-ml_proj-lorasick_2020-10-23-14-19-57.666927
153	1	2	4	154	volatile	6	20	14	vs	brown	green	brown	green	left	right	0.30000000000000004	0.7	4	2	1.2000000000000002	1.4	1	0	0.30000000000000004	0.7	4	2	1.2000000000000002	1.4	invalid	0.3999175089993514	53248	0	1	2	53248	1	53248	1	51200	0	0.7	53248	green	brown	0	0	ml	2.7.3	lorasick	sub-01_ses-02_task-ml_proj-lorasick_2020-10-23-14-19-57.666927
154	1	2	4	155	volatile	6	20	15	vs	brown	green	brown	green	left	right	0.30000000000000004	0.7	2	6	0.6000000000000001	4.199999999999998	0	1	0.30000000000000004	0.7	2	6	0.6000000000000001	4.199999999999998	valid	0.4832259139984672	53248	0	1	2	53248	1	53248	1	53248	1	0.7	53248	green	brown	1	6	ml	2.7.3	lorasick	sub-01_ses-02_task-ml_proj-lorasick_2020-10-23-14-19-57.666927
155	1	2	4	156	volatile	6	20	16	vs	green	brown	brown	green	right	left	0.30000000000000004	0.7	2	10	0.6000000000000001	7.0	0	1	0.7	0.30000000000000004	10	2	7.0	0.6000000000000001	valid	0.499877402002312	51200	0	0	2	51200	1	51200	1	51200	1	0.7	51200	green	brown	1	10	ml	2.7.3	lorasick	sub-01_ses-02_task-ml_proj-lorasick_2020-10-23-14-19-57.666927
156	1	2	4	157	volatile	6	20	17	vs	green	brown	brown	green	right	left	0.30000000000000004	0.7	6	6	1.8000000000000005	4.199999999999998	0	1	0.7	0.30000000000000004	6	6	4.199999999999998	1.8000000000000005	valid	0.3999090349971084	51200	0	0	2	51200	1	51200	1	53248	0	0.7	51200	green	brown	1	6	ml	2.7.3	lorasick	sub-01_ses-02_task-ml_proj-lorasick_2020-10-23-14-19-57.666927
157	1	2	4	158	volatile	6	20	18	vs	green	brown	brown	green	right	left	0.30000000000000004	0.7	2	6	0.6000000000000001	4.199999999999998	1	0	0.7	0.30000000000000004	6	2	4.199999999999998	0.6000000000000001	invalid	0.3999068579978484	51200	0	0	2	51200	1	51200	1	51200	1	0.7	51200	green	brown	1	0	ml	2.7.3	lorasick	sub-01_ses-02_task-ml_proj-lorasick_2020-10-23-14-19-57.666927
158	1	2	4	159	volatile	6	20	19	vs	green	brown	brown	green	right	left	0.30000000000000004	0.7	4	6	1.2000000000000002	4.199999999999998	1	0	0.7	0.30000000000000004	6	4	4.199999999999998	1.2000000000000002	invalid	0.4665537149994634	51200	0	0	2	51200	1	51200	1	51200	1	0.7	51200	green	brown	1	0	ml	2.7.3	lorasick	sub-01_ses-02_task-ml_proj-lorasick_2020-10-23-14-19-57.666927
159	1	2	4	160	volatile	6	20	20	vs	brown	green	brown	green	left	right	0.30000000000000004	0.7	6	4	1.8000000000000005	2.8	0	1	0.30000000000000004	0.7	6	4	1.8000000000000005	2.8	valid	0.5831856660006451	51200	0	0	1	53248	0	53248	0	51200	1	0.7	53248	green	brown	0	0	ml	2.7.3	lorasick	sub-01_ses-02_task-ml_proj-lorasick_2020-10-23-14-19-57.666927
160	1	2	4	161	volatile	7	40	1	vs	green	brown	brown	green	right	left	0.7	0.30000000000000004	6	4	4.199999999999998	1.2000000000000002	1	0	0.30000000000000004	0.7	4	6	1.2000000000000002	4.199999999999998	valid	0.5165491399966413	53248	0	1	1	53248	1	53248	1	53248	1	0.7	53248	brown	green	1	6	ml	2.7.3	lorasick	sub-01_ses-02_task-ml_proj-lorasick_2020-10-23-14-19-57.666927
161	1	2	4	162	volatile	7	40	2	vs	brown	green	brown	green	left	right	0.7	0.30000000000000004	2	6	1.4	1.8000000000000005	1	0	0.7	0.30000000000000004	2	6	1.4	1.8000000000000005	valid	1.0996965839985933	51200	0	0	1	53248	0	51200	1	53248	0	0.7	51200	brown	green	0	2	ml	2.7.3	lorasick	sub-01_ses-02_task-ml_proj-lorasick_2020-10-23-14-19-57.666927
162	1	2	4	163	volatile	7	40	3	vs	brown	green	brown	green	left	right	0.7	0.30000000000000004	2	2	1.4	0.6000000000000001	0	1	0.7	0.30000000000000004	2	2	1.4	0.6000000000000001	invalid	0.4332345699986036	51200	0	0	1	51200	1	51200	1	53248	0	0.7	51200	brown	green	1	0	ml	2.7.3	lorasick	sub-01_ses-02_task-ml_proj-lorasick_2020-10-23-14-19-57.666927
163	1	2	4	164	volatile	7	40	4	vs	brown	green	brown	green	left	right	0.7	0.30000000000000004	6	6	4.199999999999998	1.8000000000000005	1	0	0.7	0.30000000000000004	6	6	4.199999999999998	1.8000000000000005	valid	0.4165736300019489	51200	0	0	1	51200	1	51200	1	53248	0	0.7	51200	brown	green	1	6	ml	2.7.3	lorasick	sub-01_ses-02_task-ml_proj-lorasick_2020-10-23-14-19-57.666927
164	1	2	4	165	volatile	7	40	5	vs	brown	green	brown	green	left	right	0.7	0.30000000000000004	10	2	7.0	0.6000000000000001	1	0	0.7	0.30000000000000004	10	2	7.0	0.6000000000000001	valid	0.4665542270013248	51200	0	0	1	51200	1	51200	1	51200	1	0.7	51200	brown	green	1	10	ml	2.7.3	lorasick	sub-01_ses-02_task-ml_proj-lorasick_2020-10-23-14-19-57.666927
165	1	2	4	166	volatile	7	40	6	vs	green	brown	brown	green	right	left	0.7	0.30000000000000004	2	4	1.4	1.2000000000000002	1	0	0.30000000000000004	0.7	4	2	1.2000000000000002	1.4	valid	0.566521870001452	51200	0	0	2	53248	0	53248	0	51200	1	0.7	53248	brown	green	0	0	ml	2.7.3	lorasick	sub-01_ses-02_task-ml_proj-lorasick_2020-10-23-14-19-57.666927
166	1	2	4	167	volatile	7	40	7	vs	brown	green	brown	green	left	right	0.7	0.30000000000000004	6	6	4.199999999999998	1.8000000000000005	0	1	0.7	0.30000000000000004	6	6	4.199999999999998	1.8000000000000005	invalid	0.4998777129985683	51200	0	0	1	51200	1	51200	1	53248	0	0.7	51200	brown	green	1	0	ml	2.7.3	lorasick	sub-01_ses-02_task-ml_proj-lorasick_2020-10-23-14-19-57.666927
167	1	2	4	168	volatile	7	40	8	vs	brown	green	brown	green	left	right	0.7	0.30000000000000004	4	6	2.8	1.8000000000000005	1	0	0.7	0.30000000000000004	4	6	2.8	1.8000000000000005	valid	0.59984779899969	51200	0	0	1	51200	1	51200	1	53248	0	0.7	51200	brown	green	0	4	ml	2.7.3	lorasick	sub-01_ses-02_task-ml_proj-lorasick_2020-10-23-14-19-57.666927
168	1	2	4	169	volatile	7	40	9	vs	green	brown	brown	green	right	left	0.7	0.30000000000000004	2	2	1.4	0.6000000000000001	1	0	0.30000000000000004	0.7	2	2	0.6000000000000001	1.4	valid	0.39991842599920346	53248	0	1	1	53248	1	53248	1	53248	1	0.7	53248	brown	green	0	2	ml	2.7.3	lorasick	sub-01_ses-02_task-ml_proj-lorasick_2020-10-23-14-19-57.666927
169	1	2	4	170	volatile	7	40	10	vs	green	brown	brown	green	right	left	0.7	0.30000000000000004	2	10	1.4	3.0000000000000004	0	1	0.30000000000000004	0.7	10	2	3.0000000000000004	1.4	invalid	0.599865371001215	53248	0	1	1	51200	0	53248	1	51200	0	0.7	53248	brown	green	0	0	ml	2.7.3	lorasick	sub-01_ses-02_task-ml_proj-lorasick_2020-10-23-14-19-57.666927
170	1	2	4	171	volatile	7	40	11	vs	brown	green	brown	green	left	right	0.7	0.30000000000000004	4	6	2.8	1.8000000000000005	0	1	0.7	0.30000000000000004	4	6	2.8	1.8000000000000005	invalid	0.5332097040009103	53248	0	1	2	51200	0	51200	0	53248	1	0.7	51200	brown	green	0	6	ml	2.7.3	lorasick	sub-01_ses-02_task-ml_proj-lorasick_2020-10-23-14-19-57.666927
171	1	2	4	172	volatile	7	40	12	vs	green	brown	brown	green	right	left	0.7	0.30000000000000004	6	4	4.199999999999998	1.2000000000000002	1	0	0.30000000000000004	0.7	4	6	1.2000000000000002	4.199999999999998	valid	0.516534626000066	51200	0	0	2	53248	0	53248	0	53248	0	0.7	53248	brown	green	1	0	ml	2.7.3	lorasick	sub-01_ses-02_task-ml_proj-lorasick_2020-10-23-14-19-57.666927
172	1	2	4	173	volatile	7	40	13	vs	brown	green	brown	green	left	right	0.7	0.30000000000000004	6	6	4.199999999999998	1.8000000000000005	1	0	0.7	0.30000000000000004	6	6	4.199999999999998	1.8000000000000005	valid	0.4499017240013927	53248	0	1	2	51200	0	51200	0	53248	1	0.7	51200	brown	green	1	0	ml	2.7.3	lorasick	sub-01_ses-02_task-ml_proj-lorasick_2020-10-23-14-19-57.666927
173	1	2	4	174	volatile	7	40	14	vs	green	brown	brown	green	right	left	0.7	0.30000000000000004	10	2	7.0	0.6000000000000001	0	1	0.30000000000000004	0.7	2	10	0.6000000000000001	7.0	invalid	0.5165507230012736	53248	0	1	1	53248	1	53248	1	53248	1	0.7	53248	brown	green	1	0	ml	2.7.3	lorasick	sub-01_ses-02_task-ml_proj-lorasick_2020-10-23-14-19-57.666927
174	1	2	4	175	volatile	7	40	15	vs	green	brown	brown	green	right	left	0.7	0.30000000000000004	4	6	2.8	1.8000000000000005	0	1	0.30000000000000004	0.7	6	4	1.8000000000000005	2.8	invalid	1.4995769779998227	51200	0	0	2	53248	0	53248	0	51200	1	0.7	53248	brown	green	0	6	ml	2.7.3	lorasick	sub-01_ses-02_task-ml_proj-lorasick_2020-10-23-14-19-57.666927
175	1	2	4	176	volatile	7	40	16	vs	green	brown	brown	green	right	left	0.7	0.30000000000000004	6	2	4.199999999999998	0.6000000000000001	1	0	0.30000000000000004	0.7	2	6	0.6000000000000001	4.199999999999998	valid	0.5665172209992306	51200	0	0	2	53248	0	53248	0	53248	0	0.7	53248	brown	green	1	0	ml	2.7.3	lorasick	sub-01_ses-02_task-ml_proj-lorasick_2020-10-23-14-19-57.666927
176	1	2	4	177	volatile	7	40	17	vs	green	brown	brown	green	right	left	0.7	0.30000000000000004	2	6	1.4	1.8000000000000005	1	0	0.30000000000000004	0.7	6	2	1.8000000000000005	1.4	valid	0.3832431429982535	51200	0	0	2	51200	1	53248	0	51200	1	0.7	53248	brown	green	0	0	ml	2.7.3	lorasick	sub-01_ses-02_task-ml_proj-lorasick_2020-10-23-14-19-57.666927
177	1	2	4	178	volatile	7	40	18	vs	green	brown	brown	green	right	left	0.7	0.30000000000000004	2	10	1.4	3.0000000000000004	1	0	0.30000000000000004	0.7	10	2	3.0000000000000004	1.4	valid	0.4498896400000376	51200	0	0	2	51200	1	53248	0	51200	1	0.7	53248	brown	green	0	0	ml	2.7.3	lorasick	sub-01_ses-02_task-ml_proj-lorasick_2020-10-23-14-19-57.666927
178	1	2	4	179	volatile	7	40	19	vs	brown	green	brown	green	left	right	0.7	0.30000000000000004	6	2	4.199999999999998	0.6000000000000001	1	0	0.7	0.30000000000000004	6	2	4.199999999999998	0.6000000000000001	valid	0.43322901499777794	51200	0	0	1	51200	1	51200	1	51200	1	0.7	51200	brown	green	1	6	ml	2.7.3	lorasick	sub-01_ses-02_task-ml_proj-lorasick_2020-10-23-14-19-57.666927
179	1	2	4	180	volatile	7	40	20	vs	green	brown	brown	green	right	left	0.7	0.30000000000000004	4	2	2.8	0.6000000000000001	0	1	0.30000000000000004	0.7	2	4	0.6000000000000001	2.8	invalid	0.3665957650009659	53248	0	1	1	53248	1	53248	1	53248	1	0.7	53248	brown	green	1	0	ml	2.7.3	lorasick	sub-01_ses-02_task-ml_proj-lorasick_2020-10-23-14-19-57.666927
180	1	2	4	181	volatile	7	40	21	vs	brown	green	brown	green	left	right	0.7	0.30000000000000004	2	4	1.4	1.2000000000000002	0	1	0.7	0.30000000000000004	2	4	1.4	1.2000000000000002	invalid	0.8664400589987054	51200	0	0	1	51200	1	51200	1	53248	0	0.7	51200	brown	green	0	0	ml	2.7.3	lorasick	sub-01_ses-02_task-ml_proj-lorasick_2020-10-23-14-19-57.666927
181	1	2	4	182	volatile	7	40	22	vs	brown	green	brown	green	left	right	0.7	0.30000000000000004	6	4	4.199999999999998	1.2000000000000002	1	0	0.7	0.30000000000000004	6	4	4.199999999999998	1.2000000000000002	valid	0.583196001000033	53248	0	1	2	51200	0	51200	0	51200	0	0.7	51200	brown	green	1	0	ml	2.7.3	lorasick	sub-01_ses-02_task-ml_proj-lorasick_2020-10-23-14-19-57.666927
182	1	2	4	183	volatile	7	40	23	vs	green	brown	brown	green	right	left	0.7	0.30000000000000004	2	4	1.4	1.2000000000000002	1	0	0.30000000000000004	0.7	4	2	1.2000000000000002	1.4	valid	0.5831841550025274	51200	0	0	2	53248	0	53248	0	51200	1	0.7	53248	brown	green	0	0	ml	2.7.3	lorasick	sub-01_ses-02_task-ml_proj-lorasick_2020-10-23-14-19-57.666927
183	1	2	4	184	volatile	7	40	24	vs	green	brown	brown	green	right	left	0.7	0.30000000000000004	2	4	1.4	1.2000000000000002	1	0	0.30000000000000004	0.7	4	2	1.2000000000000002	1.4	valid	0.4665649270027643	53248	0	1	1	53248	1	53248	1	51200	0	0.7	53248	brown	green	0	2	ml	2.7.3	lorasick	sub-01_ses-02_task-ml_proj-lorasick_2020-10-23-14-19-57.666927
184	1	2	4	185	volatile	7	40	25	vs	brown	green	brown	green	left	right	0.7	0.30000000000000004	6	4	4.199999999999998	1.2000000000000002	1	0	0.7	0.30000000000000004	6	4	4.199999999999998	1.2000000000000002	valid	0.3998992089982494	51200	0	0	1	51200	1	51200	1	51200	1	0.7	51200	brown	green	1	6	ml	2.7.3	lorasick	sub-01_ses-02_task-ml_proj-lorasick_2020-10-23-14-19-57.666927
185	1	2	4	186	volatile	7	40	26	vs	brown	green	brown	green	left	right	0.7	0.30000000000000004	6	2	4.199999999999998	0.6000000000000001	1	0	0.7	0.30000000000000004	6	2	4.199999999999998	0.6000000000000001	valid	0.3999058869994769	51200	0	0	1	51200	1	51200	1	51200	1	0.7	51200	brown	green	1	6	ml	2.7.3	lorasick	sub-01_ses-02_task-ml_proj-lorasick_2020-10-23-14-19-57.666927
186	1	2	4	187	volatile	7	40	27	vs	brown	green	brown	green	left	right	0.7	0.30000000000000004	2	6	1.4	1.8000000000000005	1	0	0.7	0.30000000000000004	2	6	1.4	1.8000000000000005	valid	0.4665661719991476	53248	0	1	2	53248	1	51200	0	53248	1	0.7	51200	brown	green	0	0	ml	2.7.3	lorasick	sub-01_ses-02_task-ml_proj-lorasick_2020-10-23-14-19-57.666927
187	1	2	4	188	volatile	7	40	28	vs	green	brown	brown	green	right	left	0.7	0.30000000000000004	2	4	1.4	1.2000000000000002	1	0	0.30000000000000004	0.7	4	2	1.2000000000000002	1.4	valid	0.4499014180000813	53248	0	1	1	53248	1	53248	1	51200	0	0.7	53248	brown	green	0	2	ml	2.7.3	lorasick	sub-01_ses-02_task-ml_proj-lorasick_2020-10-23-14-19-57.666927
188	1	2	4	189	volatile	7	40	29	vs	green	brown	brown	green	right	left	0.7	0.30000000000000004	10	2	7.0	0.6000000000000001	0	1	0.30000000000000004	0.7	2	10	0.6000000000000001	7.0	invalid	0.4832276399974944	53248	0	1	1	53248	1	53248	1	53248	1	0.7	53248	brown	green	1	0	ml	2.7.3	lorasick	sub-01_ses-02_task-ml_proj-lorasick_2020-10-23-14-19-57.666927
189	1	2	4	190	volatile	7	40	30	vs	brown	green	brown	green	left	right	0.7	0.30000000000000004	2	6	1.4	1.8000000000000005	1	0	0.7	0.30000000000000004	2	6	1.4	1.8000000000000005	valid	0.6498497840002528	53248	0	1	2	53248	1	51200	0	53248	1	0.7	51200	brown	green	0	0	ml	2.7.3	lorasick	sub-01_ses-02_task-ml_proj-lorasick_2020-10-23-14-19-57.666927
190	1	2	4	191	volatile	7	40	31	vs	green	brown	brown	green	right	left	0.7	0.30000000000000004	6	6	4.199999999999998	1.8000000000000005	1	0	0.30000000000000004	0.7	6	6	1.8000000000000005	4.199999999999998	valid	1.3996124759978557	53248	0	1	1	53248	1	53248	1	53248	1	0.7	53248	brown	green	0	6	ml	2.7.3	lorasick	sub-01_ses-02_task-ml_proj-lorasick_2020-10-23-14-19-57.666927
191	1	2	4	192	volatile	7	40	32	vs	brown	green	brown	green	left	right	0.7	0.30000000000000004	6	4	4.199999999999998	1.2000000000000002	0	1	0.7	0.30000000000000004	6	4	4.199999999999998	1.2000000000000002	invalid	0.4498851120006293	51200	0	0	1	51200	1	51200	1	51200	1	0.7	51200	brown	green	1	0	ml	2.7.3	lorasick	sub-01_ses-02_task-ml_proj-lorasick_2020-10-23-14-19-57.666927
192	1	2	4	193	volatile	7	40	33	vs	brown	green	brown	green	left	right	0.7	0.30000000000000004	2	10	1.4	3.0000000000000004	0	1	0.7	0.30000000000000004	2	10	1.4	3.0000000000000004	invalid	0.3832581189999473	53248	0	1	2	53248	1	51200	0	53248	1	0.7	51200	brown	green	0	10	ml	2.7.3	lorasick	sub-01_ses-02_task-ml_proj-lorasick_2020-10-23-14-19-57.666927
193	1	2	4	194	volatile	7	40	34	vs	brown	green	brown	green	left	right	0.7	0.30000000000000004	6	2	4.199999999999998	0.6000000000000001	1	0	0.7	0.30000000000000004	6	2	4.199999999999998	0.6000000000000001	valid	0.38325617400187184	53248	0	1	2	51200	0	51200	0	51200	0	0.7	51200	brown	green	1	0	ml	2.7.3	lorasick	sub-01_ses-02_task-ml_proj-lorasick_2020-10-23-14-19-57.666927
194	1	2	4	195	volatile	7	40	35	vs	green	brown	brown	green	right	left	0.7	0.30000000000000004	4	2	2.8	0.6000000000000001	1	0	0.30000000000000004	0.7	2	4	0.6000000000000001	2.8	valid	0.8664359519971185	51200	0	0	2	53248	0	53248	0	53248	0	0.7	53248	brown	green	1	0	ml	2.7.3	lorasick	sub-01_ses-02_task-ml_proj-lorasick_2020-10-23-14-19-57.666927
195	1	2	4	196	volatile	7	40	36	vs	green	brown	brown	green	right	left	0.7	0.30000000000000004	2	2	1.4	0.6000000000000001	0	1	0.30000000000000004	0.7	2	2	0.6000000000000001	1.4	invalid	0.4498932900023647	51200	0	0	2	53248	0	53248	0	53248	0	0.7	53248	brown	green	0	2	ml	2.7.3	lorasick	sub-01_ses-02_task-ml_proj-lorasick_2020-10-23-14-19-57.666927
196	1	2	4	197	volatile	7	40	37	vs	brown	green	brown	green	left	right	0.7	0.30000000000000004	2	4	1.4	1.2000000000000002	1	0	0.7	0.30000000000000004	2	4	1.4	1.2000000000000002	valid	0.5665420799996355	53248	0	1	2	51200	0	51200	0	53248	1	0.7	51200	brown	green	0	0	ml	2.7.3	lorasick	sub-01_ses-02_task-ml_proj-lorasick_2020-10-23-14-19-57.666927
197	1	2	4	198	volatile	7	40	38	vs	brown	green	brown	green	left	right	0.7	0.30000000000000004	2	10	1.4	3.0000000000000004	1	0	0.7	0.30000000000000004	2	10	1.4	3.0000000000000004	valid	0.3999181320032221	53248	0	1	2	53248	1	51200	0	53248	1	0.7	51200	brown	green	0	0	ml	2.7.3	lorasick	sub-01_ses-02_task-ml_proj-lorasick_2020-10-23-14-19-57.666927
198	1	2	4	199	volatile	7	40	39	vs	green	brown	brown	green	right	left	0.7	0.30000000000000004	2	10	1.4	3.0000000000000004	1	0	0.30000000000000004	0.7	10	2	3.0000000000000004	1.4	valid	0.5165543250004703	53248	0	1	1	51200	0	53248	1	51200	0	0.7	53248	brown	green	0	2	ml	2.7.3	lorasick	sub-01_ses-02_task-ml_proj-lorasick_2020-10-23-14-19-57.666927
199	1	2	4	200	volatile	7	40	40	vs	green	brown	brown	green	right	left	0.7	0.30000000000000004	2	2	1.4	0.6000000000000001	1	0	0.30000000000000004	0.7	2	2	0.6000000000000001	1.4	valid	0.8997571580002841	51200	0	0	2	53248	0	53248	0	53248	0	0.7	53248	brown	green	0	0	ml	2.7.3	lorasick	sub-01_ses-02_task-ml_proj-lorasick_2020-10-23-14-19-57.666927
200	1	2	5	201	stable	8	200	1	vs	green	brown	brown	green	right	left	0.30000000000000004	0.7	2	10	0.6000000000000001	7.0	0	1	0.7	0.30000000000000004	10	2	7.0	0.6000000000000001	valid	0.6664939969996341	51200	0	0	2	51200	1	51200	1	51200	1	0.7	51200	green	brown	1	10	ml	2.7.3	lorasick	sub-01_ses-02_task-ml_proj-lorasick_2020-10-23-14-19-57.666927
201	1	2	5	202	stable	8	200	2	vs	green	brown	brown	green	right	left	0.30000000000000004	0.7	6	2	1.8000000000000005	1.4	0	1	0.7	0.30000000000000004	2	6	1.4	1.8000000000000005	valid	0.5332099789993663	53248	0	1	1	53248	1	51200	0	53248	1	0.7	51200	green	brown	0	0	ml	2.7.3	lorasick	sub-01_ses-02_task-ml_proj-lorasick_2020-10-23-14-19-57.666927
202	1	2	5	203	stable	8	200	3	vs	green	brown	brown	green	right	left	0.30000000000000004	0.7	6	2	1.8000000000000005	1.4	0	1	0.7	0.30000000000000004	2	6	1.4	1.8000000000000005	valid	0.9830669240000134	51200	0	0	2	53248	0	51200	1	53248	0	0.7	51200	green	brown	0	2	ml	2.7.3	lorasick	sub-01_ses-02_task-ml_proj-lorasick_2020-10-23-14-19-57.666927
203	1	2	5	204	stable	8	200	4	vs	brown	green	brown	green	left	right	0.30000000000000004	0.7	6	4	1.8000000000000005	2.8	0	1	0.30000000000000004	0.7	6	4	1.8000000000000005	2.8	valid	0.3832548069985933	53248	0	1	2	53248	1	53248	1	51200	0	0.7	53248	green	brown	0	4	ml	2.7.3	lorasick	sub-01_ses-02_task-ml_proj-lorasick_2020-10-23-14-19-57.666927
204	1	2	5	205	stable	8	200	5	vs	brown	green	brown	green	left	right	0.30000000000000004	0.7	6	6	1.8000000000000005	4.199999999999998	0	1	0.30000000000000004	0.7	6	6	1.8000000000000005	4.199999999999998	valid	0.4165803670002788	53248	0	1	2	53248	1	53248	1	53248	1	0.7	53248	green	brown	0	6	ml	2.7.3	lorasick	sub-01_ses-02_task-ml_proj-lorasick_2020-10-23-14-19-57.666927
205	1	2	5	206	stable	8	200	6	vs	green	brown	brown	green	right	left	0.30000000000000004	0.7	2	2	0.6000000000000001	1.4	0	1	0.7	0.30000000000000004	2	2	1.4	0.6000000000000001	valid	0.4498942520003766	51200	0	0	2	51200	1	51200	1	53248	0	0.7	51200	green	brown	1	2	ml	2.7.3	lorasick	sub-01_ses-02_task-ml_proj-lorasick_2020-10-23-14-19-57.666927
206	1	2	5	207	stable	8	200	7	vs	brown	green	brown	green	left	right	0.30000000000000004	0.7	4	2	1.2000000000000002	1.4	0	1	0.30000000000000004	0.7	4	2	1.2000000000000002	1.4	valid	0.3999217439995846	53248	0	1	2	53248	1	53248	1	51200	0	0.7	53248	green	brown	0	2	ml	2.7.3	lorasick	sub-01_ses-02_task-ml_proj-lorasick_2020-10-23-14-19-57.666927
207	1	2	5	208	stable	8	200	8	vs	green	brown	brown	green	right	left	0.30000000000000004	0.7	6	4	1.8000000000000005	2.8	0	1	0.7	0.30000000000000004	4	6	2.8	1.8000000000000005	valid	0.3499227639986202	51200	0	0	2	51200	1	51200	1	53248	0	0.7	51200	green	brown	0	4	ml	2.7.3	lorasick	sub-01_ses-02_task-ml_proj-lorasick_2020-10-23-14-19-57.666927
208	1	2	5	209	stable	8	200	9	vs	brown	green	brown	green	left	right	0.30000000000000004	0.7	6	4	1.8000000000000005	2.8	1	0	0.30000000000000004	0.7	6	4	1.8000000000000005	2.8	invalid	0.3665935969984275	53248	0	1	2	53248	1	53248	1	51200	0	0.7	53248	green	brown	0	0	ml	2.7.3	lorasick	sub-01_ses-02_task-ml_proj-lorasick_2020-10-23-14-19-57.666927
209	1	2	5	210	stable	8	200	10	vs	green	brown	brown	green	right	left	0.30000000000000004	0.7	10	2	3.0000000000000004	1.4	1	0	0.7	0.30000000000000004	2	10	1.4	3.0000000000000004	invalid	0.4998700889991596	51200	0	0	2	53248	0	51200	1	53248	0	0.7	51200	green	brown	0	0	ml	2.7.3	lorasick	sub-01_ses-02_task-ml_proj-lorasick_2020-10-23-14-19-57.666927
210	1	2	5	211	stable	8	200	11	vs	green	brown	brown	green	right	left	0.30000000000000004	0.7	6	2	1.8000000000000005	1.4	1	0	0.7	0.30000000000000004	2	6	1.4	1.8000000000000005	invalid	0.6665032480013906	53248	0	1	1	53248	1	51200	0	53248	1	0.7	51200	green	brown	0	6	ml	2.7.3	lorasick	sub-01_ses-02_task-ml_proj-lorasick_2020-10-23-14-19-57.666927
211	1	2	5	212	stable	8	200	12	vs	brown	green	brown	green	left	right	0.30000000000000004	0.7	2	2	0.6000000000000001	1.4	1	0	0.30000000000000004	0.7	2	2	0.6000000000000001	1.4	invalid	0.3665860010005417	51200	0	0	1	53248	0	53248	0	53248	0	0.7	53248	green	brown	0	2	ml	2.7.3	lorasick	sub-01_ses-02_task-ml_proj-lorasick_2020-10-23-14-19-57.666927
212	1	2	5	213	stable	8	200	13	vs	green	brown	brown	green	right	left	0.30000000000000004	0.7	6	2	1.8000000000000005	1.4	1	0	0.7	0.30000000000000004	2	6	1.4	1.8000000000000005	invalid	0.3332784919984988	53248	0	1	1	53248	1	51200	0	53248	1	0.7	51200	green	brown	0	6	ml	2.7.3	lorasick	sub-01_ses-02_task-ml_proj-lorasick_2020-10-23-14-19-57.666927
213	1	2	5	214	stable	8	200	14	vs	brown	green	brown	green	left	right	0.30000000000000004	0.7	6	6	1.8000000000000005	4.199999999999998	0	1	0.30000000000000004	0.7	6	6	1.8000000000000005	4.199999999999998	valid	0.4832138310011942	51200	0	0	1	53248	0	53248	0	53248	0	0.7	53248	green	brown	0	0	ml	2.7.3	lorasick	sub-01_ses-02_task-ml_proj-lorasick_2020-10-23-14-19-57.666927
214	1	2	5	215	stable	8	200	15	vs	green	brown	brown	green	right	left	0.30000000000000004	0.7	2	4	0.6000000000000001	2.8	0	1	0.7	0.30000000000000004	4	2	2.8	0.6000000000000001	valid	0.4498922040002071	51200	0	0	2	51200	1	51200	1	51200	1	0.7	51200	green	brown	1	4	ml	2.7.3	lorasick	sub-01_ses-02_task-ml_proj-lorasick_2020-10-23-14-19-57.666927
215	1	2	5	216	stable	8	200	16	vs	brown	green	brown	green	left	right	0.30000000000000004	0.7	6	6	1.8000000000000005	4.199999999999998	1	0	0.30000000000000004	0.7	6	6	1.8000000000000005	4.199999999999998	invalid	1.216340045000834	53248	0	1	2	53248	1	53248	1	53248	1	0.7	53248	green	brown	0	0	ml	2.7.3	lorasick	sub-01_ses-02_task-ml_proj-lorasick_2020-10-23-14-19-57.666927
216	1	2	5	217	stable	8	200	17	vs	green	brown	brown	green	right	left	0.30000000000000004	0.7	6	4	1.8000000000000005	2.8	0	1	0.7	0.30000000000000004	4	6	2.8	1.8000000000000005	valid	0.983076244003314	53248	0	1	1	51200	0	51200	0	53248	1	0.7	51200	green	brown	0	0	ml	2.7.3	lorasick	sub-01_ses-02_task-ml_proj-lorasick_2020-10-23-14-19-57.666927
217	1	2	5	218	stable	8	200	18	vs	brown	green	brown	green	left	right	0.30000000000000004	0.7	10	2	3.0000000000000004	1.4	0	1	0.30000000000000004	0.7	10	2	3.0000000000000004	1.4	valid	0.7664651080012845	51200	0	0	1	51200	1	53248	0	51200	1	0.7	53248	green	brown	0	0	ml	2.7.3	lorasick	sub-01_ses-02_task-ml_proj-lorasick_2020-10-23-14-19-57.666927
218	1	2	5	219	stable	8	200	19	vs	brown	green	brown	green	left	right	0.30000000000000004	0.7	6	2	1.8000000000000005	1.4	0	1	0.30000000000000004	0.7	6	2	1.8000000000000005	1.4	valid	1.133033037000132	53248	0	1	2	51200	0	53248	1	51200	0	0.7	53248	green	brown	0	2	ml	2.7.3	lorasick	sub-01_ses-02_task-ml_proj-lorasick_2020-10-23-14-19-57.666927
219	1	2	5	220	stable	8	200	20	vs	green	brown	brown	green	right	left	0.30000000000000004	0.7	4	6	1.2000000000000002	4.199999999999998	1	0	0.7	0.30000000000000004	6	4	4.199999999999998	1.2000000000000002	invalid	1.33297956000024	53248	0	1	1	51200	0	51200	0	51200	0	0.7	51200	green	brown	1	4	ml	2.7.3	lorasick	sub-01_ses-02_task-ml_proj-lorasick_2020-10-23-14-19-57.666927
220	1	2	5	221	stable	8	200	21	vs	green	brown	brown	green	right	left	0.30000000000000004	0.7	4	2	1.2000000000000002	1.4	1	0	0.7	0.30000000000000004	2	4	1.4	1.2000000000000002	invalid	1.2329924180012313	51200	0	0	2	51200	1	51200	1	53248	0	0.7	51200	green	brown	0	0	ml	2.7.3	lorasick	sub-01_ses-02_task-ml_proj-lorasick_2020-10-23-14-19-57.666927
221	1	2	5	222	stable	8	200	22	vs	brown	green	brown	green	left	right	0.30000000000000004	0.7	6	4	1.8000000000000005	2.8	0	1	0.30000000000000004	0.7	6	4	1.8000000000000005	2.8	valid	0.43322897300095065	51200	0	0	1	53248	0	53248	0	51200	1	0.7	53248	green	brown	0	0	ml	2.7.3	lorasick	sub-01_ses-02_task-ml_proj-lorasick_2020-10-23-14-19-57.666927
222	1	2	5	223	stable	8	200	23	vs	green	brown	brown	green	right	left	0.30000000000000004	0.7	2	4	0.6000000000000001	2.8	0	1	0.7	0.30000000000000004	4	2	2.8	0.6000000000000001	valid	1.1163987640029518	53248	0	1	1	51200	0	51200	0	51200	0	0.7	51200	green	brown	1	0	ml	2.7.3	lorasick	sub-01_ses-02_task-ml_proj-lorasick_2020-10-23-14-19-57.666927
223	1	2	5	224	stable	8	200	24	vs	brown	green	brown	green	left	right	0.30000000000000004	0.7	2	6	0.6000000000000001	4.199999999999998	0	1	0.30000000000000004	0.7	2	6	0.6000000000000001	4.199999999999998	valid	0.3832567710014701	53248	0	1	2	53248	1	53248	1	53248	1	0.7	53248	green	brown	1	6	ml	2.7.3	lorasick	sub-01_ses-02_task-ml_proj-lorasick_2020-10-23-14-19-57.666927
224	1	2	5	225	stable	8	200	25	vs	brown	green	brown	green	left	right	0.30000000000000004	0.7	4	6	1.2000000000000002	4.199999999999998	0	1	0.30000000000000004	0.7	4	6	1.2000000000000002	4.199999999999998	valid	0.4332412600015232	53248	0	1	2	53248	1	53248	1	53248	1	0.7	53248	green	brown	1	6	ml	2.7.3	lorasick	sub-01_ses-02_task-ml_proj-lorasick_2020-10-23-14-19-57.666927
225	1	2	5	226	stable	8	200	26	vs	green	brown	brown	green	right	left	0.30000000000000004	0.7	4	2	1.2000000000000002	1.4	0	1	0.7	0.30000000000000004	2	4	1.4	1.2000000000000002	valid	0.5998476649983786	51200	0	0	2	51200	1	51200	1	53248	0	0.7	51200	green	brown	0	2	ml	2.7.3	lorasick	sub-01_ses-02_task-ml_proj-lorasick_2020-10-23-14-19-57.666927
226	1	2	5	227	stable	8	200	27	vs	brown	green	brown	green	left	right	0.30000000000000004	0.7	2	10	0.6000000000000001	7.0	1	0	0.30000000000000004	0.7	2	10	0.6000000000000001	7.0	invalid	0.8331224649991782	53248	0	1	2	53248	1	53248	1	53248	1	0.7	53248	green	brown	1	0	ml	2.7.3	lorasick	sub-01_ses-02_task-ml_proj-lorasick_2020-10-23-14-19-57.666927
227	1	2	5	228	stable	8	200	28	vs	brown	green	brown	green	left	right	0.30000000000000004	0.7	6	4	1.8000000000000005	2.8	0	1	0.30000000000000004	0.7	6	4	1.8000000000000005	2.8	valid	0.7498118340008659	53248	0	1	2	53248	1	53248	1	51200	0	0.7	53248	green	brown	0	4	ml	2.7.3	lorasick	sub-01_ses-02_task-ml_proj-lorasick_2020-10-23-14-19-57.666927
228	1	2	5	229	stable	8	200	29	vs	brown	green	brown	green	left	right	0.30000000000000004	0.7	10	2	3.0000000000000004	1.4	0	1	0.30000000000000004	0.7	10	2	3.0000000000000004	1.4	valid	1.4162716409991845	51200	0	0	1	51200	1	53248	0	51200	1	0.7	53248	green	brown	0	0	ml	2.7.3	lorasick	sub-01_ses-02_task-ml_proj-lorasick_2020-10-23-14-19-57.666927
229	1	2	5	230	stable	8	200	30	vs	green	brown	brown	green	right	left	0.30000000000000004	0.7	2	4	0.6000000000000001	2.8	0	1	0.7	0.30000000000000004	4	2	2.8	0.6000000000000001	valid	0.7664663850009674	51200	0	0	2	51200	1	51200	1	51200	1	0.7	51200	green	brown	1	4	ml	2.7.3	lorasick	sub-01_ses-02_task-ml_proj-lorasick_2020-10-23-14-19-57.666927
230	1	2	5	231	stable	8	200	31	vs	brown	green	brown	green	left	right	0.30000000000000004	0.7	4	2	1.2000000000000002	1.4	0	1	0.30000000000000004	0.7	4	2	1.2000000000000002	1.4	valid	0.6498493979997875	53248	0	1	2	53248	1	53248	1	51200	0	0.7	53248	green	brown	0	2	ml	2.7.3	lorasick	sub-01_ses-02_task-ml_proj-lorasick_2020-10-23-14-19-57.666927
231	1	2	5	232	stable	8	200	32	vs	green	brown	brown	green	right	left	0.30000000000000004	0.7	2	2	0.6000000000000001	1.4	1	0	0.7	0.30000000000000004	2	2	1.4	0.6000000000000001	invalid	0.7997815730013826	51200	0	0	2	51200	1	51200	1	53248	0	0.7	51200	green	brown	1	0	ml	2.7.3	lorasick	sub-01_ses-02_task-ml_proj-lorasick_2020-10-23-14-19-57.666927
232	1	2	5	233	stable	8	200	33	vs	green	brown	brown	green	right	left	0.30000000000000004	0.7	6	4	1.8000000000000005	2.8	0	1	0.7	0.30000000000000004	4	6	2.8	1.8000000000000005	valid	0.533199682002305	51200	0	0	2	51200	1	51200	1	53248	0	0.7	51200	green	brown	0	4	ml	2.7.3	lorasick	sub-01_ses-02_task-ml_proj-lorasick_2020-10-23-14-19-57.666927
233	1	2	5	234	stable	8	200	34	vs	brown	green	brown	green	left	right	0.30000000000000004	0.7	6	6	1.8000000000000005	4.199999999999998	0	1	0.30000000000000004	0.7	6	6	1.8000000000000005	4.199999999999998	valid	0.7498006169989822	51200	0	0	1	53248	0	53248	0	53248	0	0.7	53248	green	brown	0	0	ml	2.7.3	lorasick	sub-01_ses-02_task-ml_proj-lorasick_2020-10-23-14-19-57.666927
234	1	2	5	235	stable	8	200	35	vs	green	brown	brown	green	right	left	0.30000000000000004	0.7	2	4	0.6000000000000001	2.8	0	1	0.7	0.30000000000000004	4	2	2.8	0.6000000000000001	valid	0.5165431210007227	51200	0	0	2	51200	1	51200	1	51200	1	0.7	51200	green	brown	1	4	ml	2.7.3	lorasick	sub-01_ses-02_task-ml_proj-lorasick_2020-10-23-14-19-57.666927
235	1	2	5	236	stable	8	200	36	vs	green	brown	brown	green	right	left	0.30000000000000004	0.7	2	10	0.6000000000000001	7.0	0	1	0.7	0.30000000000000004	10	2	7.0	0.6000000000000001	valid	0.7831318909993571	53248	0	1	1	51200	0	51200	0	51200	0	0.7	51200	green	brown	1	0	ml	2.7.3	lorasick	sub-01_ses-02_task-ml_proj-lorasick_2020-10-23-14-19-57.666927
236	1	2	5	237	stable	8	200	37	vs	green	brown	brown	green	right	left	0.30000000000000004	0.7	2	4	0.6000000000000001	2.8	0	1	0.7	0.30000000000000004	4	2	2.8	0.6000000000000001	valid	0.5498616990007577	51200	0	0	2	51200	1	51200	1	51200	1	0.7	51200	green	brown	1	4	ml	2.7.3	lorasick	sub-01_ses-02_task-ml_proj-lorasick_2020-10-23-14-19-57.666927
237	1	2	5	238	stable	8	200	38	vs	green	brown	brown	green	right	left	0.30000000000000004	0.7	10	2	3.0000000000000004	1.4	0	1	0.7	0.30000000000000004	2	10	1.4	3.0000000000000004	valid	1.133034457001486	53248	0	1	1	53248	1	51200	0	53248	1	0.7	51200	green	brown	0	0	ml	2.7.3	lorasick	sub-01_ses-02_task-ml_proj-lorasick_2020-10-23-14-19-57.666927
238	1	2	5	239	stable	8	200	39	vs	green	brown	brown	green	right	left	0.30000000000000004	0.7	2	6	0.6000000000000001	4.199999999999998	0	1	0.7	0.30000000000000004	6	2	4.199999999999998	0.6000000000000001	valid	0.5831871270020201	51200	0	0	2	51200	1	51200	1	51200	1	0.7	51200	green	brown	1	6	ml	2.7.3	lorasick	sub-01_ses-02_task-ml_proj-lorasick_2020-10-23-14-19-57.666927
239	1	2	5	240	stable	8	200	40	vs	green	brown	brown	green	right	left	0.30000000000000004	0.7	2	2	0.6000000000000001	1.4	1	0	0.7	0.30000000000000004	2	2	1.4	0.6000000000000001	invalid	0.3832441699996707	51200	0	0	2	51200	1	51200	1	53248	0	0.7	51200	green	brown	1	0	ml	2.7.3	lorasick	sub-01_ses-02_task-ml_proj-lorasick_2020-10-23-14-19-57.666927
240	1	2	5	241	stable	8	200	41	vs	brown	green	brown	green	left	right	0.30000000000000004	0.7	10	2	3.0000000000000004	1.4	0	1	0.30000000000000004	0.7	10	2	3.0000000000000004	1.4	valid	0.5665381299986619	53248	0	1	2	51200	0	53248	1	51200	0	0.7	53248	green	brown	0	2	ml	2.7.3	lorasick	sub-01_ses-02_task-ml_proj-lorasick_2020-10-23-14-19-57.666927
241	1	2	5	242	stable	8	200	42	vs	brown	green	brown	green	left	right	0.30000000000000004	0.7	2	6	0.6000000000000001	4.199999999999998	1	0	0.30000000000000004	0.7	2	6	0.6000000000000001	4.199999999999998	invalid	0.4665730490014539	53248	0	1	2	53248	1	53248	1	53248	1	0.7	53248	green	brown	1	0	ml	2.7.3	lorasick	sub-01_ses-02_task-ml_proj-lorasick_2020-10-23-14-19-57.666927
242	1	2	5	243	stable	8	200	43	vs	brown	green	brown	green	left	right	0.30000000000000004	0.7	10	2	3.0000000000000004	1.4	0	1	0.30000000000000004	0.7	10	2	3.0000000000000004	1.4	valid	0.5165536730019085	53248	0	1	2	51200	0	53248	1	51200	0	0.7	53248	green	brown	0	2	ml	2.7.3	lorasick	sub-01_ses-02_task-ml_proj-lorasick_2020-10-23-14-19-57.666927
243	1	2	5	244	stable	8	200	44	vs	brown	green	brown	green	left	right	0.30000000000000004	0.7	2	6	0.6000000000000001	4.199999999999998	0	1	0.30000000000000004	0.7	2	6	0.6000000000000001	4.199999999999998	valid	0.3832578439978533	53248	0	1	2	53248	1	53248	1	53248	1	0.7	53248	green	brown	1	6	ml	2.7.3	lorasick	sub-01_ses-02_task-ml_proj-lorasick_2020-10-23-14-19-57.666927
244	1	2	5	245	stable	8	200	45	vs	brown	green	brown	green	left	right	0.30000000000000004	0.7	4	2	1.2000000000000002	1.4	0	1	0.30000000000000004	0.7	4	2	1.2000000000000002	1.4	valid	0.4998877559992252	53248	0	1	2	53248	1	53248	1	51200	0	0.7	53248	green	brown	0	2	ml	2.7.3	lorasick	sub-01_ses-02_task-ml_proj-lorasick_2020-10-23-14-19-57.666927
245	1	2	5	246	stable	8	200	46	vs	brown	green	brown	green	left	right	0.30000000000000004	0.7	2	2	0.6000000000000001	1.4	0	1	0.30000000000000004	0.7	2	2	0.6000000000000001	1.4	valid	0.4998878169972159	53248	0	1	2	53248	1	53248	1	53248	1	0.7	53248	green	brown	0	2	ml	2.7.3	lorasick	sub-01_ses-02_task-ml_proj-lorasick_2020-10-23-14-19-57.666927
246	1	2	5	247	stable	8	200	47	vs	brown	green	brown	green	left	right	0.30000000000000004	0.7	6	6	1.8000000000000005	4.199999999999998	0	1	0.30000000000000004	0.7	6	6	1.8000000000000005	4.199999999999998	valid	0.5498746220000612	53248	0	1	2	53248	1	53248	1	53248	1	0.7	53248	green	brown	0	6	ml	2.7.3	lorasick	sub-01_ses-02_task-ml_proj-lorasick_2020-10-23-14-19-57.666927
247	1	2	5	248	stable	8	200	48	vs	green	brown	brown	green	right	left	0.30000000000000004	0.7	10	2	3.0000000000000004	1.4	1	0	0.7	0.30000000000000004	2	10	1.4	3.0000000000000004	invalid	0.5498748630016053	53248	0	1	1	53248	1	51200	0	53248	1	0.7	51200	green	brown	0	10	ml	2.7.3	lorasick	sub-01_ses-02_task-ml_proj-lorasick_2020-10-23-14-19-57.666927
248	1	2	5	249	stable	8	200	49	vs	green	brown	brown	green	right	left	0.30000000000000004	0.7	10	2	3.0000000000000004	1.4	0	1	0.7	0.30000000000000004	2	10	1.4	3.0000000000000004	valid	0.6831601519988908	51200	0	0	2	53248	0	51200	1	53248	0	0.7	51200	green	brown	0	2	ml	2.7.3	lorasick	sub-01_ses-02_task-ml_proj-lorasick_2020-10-23-14-19-57.666927
249	1	2	5	250	stable	8	200	50	vs	brown	green	brown	green	left	right	0.30000000000000004	0.7	4	6	1.2000000000000002	4.199999999999998	1	0	0.30000000000000004	0.7	4	6	1.2000000000000002	4.199999999999998	invalid	0.44990264800071594	53248	0	1	2	53248	1	53248	1	53248	1	0.7	53248	green	brown	1	0	ml	2.7.3	lorasick	sub-01_ses-02_task-ml_proj-lorasick_2020-10-23-14-19-57.666927
250	1	2	6	251	stable	8	200	51	vs	brown	green	brown	green	left	right	0.30000000000000004	0.7	2	6	0.6000000000000001	4.199999999999998	1	0	0.30000000000000004	0.7	2	6	0.6000000000000001	4.199999999999998	invalid	0.9830779550029548	53248	0	1	2	53248	1	53248	1	53248	1	0.7	53248	green	brown	1	0	ml	2.7.3	lorasick	sub-01_ses-02_task-ml_proj-lorasick_2020-10-23-14-19-57.666927
251	1	2	6	252	stable	8	200	52	vs	green	brown	brown	green	right	left	0.30000000000000004	0.7	6	6	1.8000000000000005	4.199999999999998	0	1	0.7	0.30000000000000004	6	6	4.199999999999998	1.8000000000000005	valid	0.4832270629995037	53248	0	1	1	51200	0	51200	0	53248	1	0.7	51200	green	brown	1	0	ml	2.7.3	lorasick	sub-01_ses-02_task-ml_proj-lorasick_2020-10-23-14-19-57.666927
252	1	2	6	253	stable	8	200	53	vs	brown	green	brown	green	left	right	0.30000000000000004	0.7	4	2	1.2000000000000002	1.4	1	0	0.30000000000000004	0.7	4	2	1.2000000000000002	1.4	invalid	0.8497853730004863	53248	0	1	2	53248	1	53248	1	51200	0	0.7	53248	green	brown	0	0	ml	2.7.3	lorasick	sub-01_ses-02_task-ml_proj-lorasick_2020-10-23-14-19-57.666927
253	1	2	6	254	stable	8	200	54	vs	green	brown	brown	green	right	left	0.30000000000000004	0.7	10	2	3.0000000000000004	1.4	0	1	0.7	0.30000000000000004	2	10	1.4	3.0000000000000004	valid	0.3832543539974722	53248	0	1	1	53248	1	51200	0	53248	1	0.7	51200	green	brown	0	0	ml	2.7.3	lorasick	sub-01_ses-02_task-ml_proj-lorasick_2020-10-23-14-19-57.666927
254	1	2	6	255	stable	8	200	55	vs	brown	green	brown	green	left	right	0.30000000000000004	0.7	2	4	0.6000000000000001	2.8	1	0	0.30000000000000004	0.7	2	4	0.6000000000000001	2.8	invalid	0.5498725580000611	53248	0	1	2	53248	1	53248	1	53248	1	0.7	53248	green	brown	1	0	ml	2.7.3	lorasick	sub-01_ses-02_task-ml_proj-lorasick_2020-10-23-14-19-57.666927
255	1	2	6	256	stable	8	200	56	vs	green	brown	brown	green	right	left	0.30000000000000004	0.7	4	2	1.2000000000000002	1.4	0	1	0.7	0.30000000000000004	2	4	1.4	1.2000000000000002	valid	0.6664920639996126	51200	0	0	2	51200	1	51200	1	53248	0	0.7	51200	green	brown	0	2	ml	2.7.3	lorasick	sub-01_ses-02_task-ml_proj-lorasick_2020-10-23-14-19-57.666927
256	1	2	6	257	stable	8	200	57	vs	green	brown	brown	green	right	left	0.30000000000000004	0.7	4	2	1.2000000000000002	1.4	0	1	0.7	0.30000000000000004	2	4	1.4	1.2000000000000002	valid	0.6664936050001415	51200	0	0	2	51200	1	51200	1	53248	0	0.7	51200	green	brown	0	2	ml	2.7.3	lorasick	sub-01_ses-02_task-ml_proj-lorasick_2020-10-23-14-19-57.666927
257	1	2	6	258	stable	8	200	58	vs	brown	green	brown	green	left	right	0.30000000000000004	0.7	6	6	1.8000000000000005	4.199999999999998	1	0	0.30000000000000004	0.7	6	6	1.8000000000000005	4.199999999999998	invalid	0.6998278890023357	51200	0	0	1	53248	0	53248	0	53248	0	0.7	53248	green	brown	0	6	ml	2.7.3	lorasick	sub-01_ses-02_task-ml_proj-lorasick_2020-10-23-14-19-57.666927
258	1	2	6	259	stable	8	200	59	vs	brown	green	brown	green	left	right	0.30000000000000004	0.7	10	2	3.0000000000000004	1.4	1	0	0.30000000000000004	0.7	10	2	3.0000000000000004	1.4	invalid	0.8830984729975171	51200	0	0	1	51200	1	53248	0	51200	1	0.7	53248	green	brown	0	10	ml	2.7.3	lorasick	sub-01_ses-02_task-ml_proj-lorasick_2020-10-23-14-19-57.666927
259	1	2	6	260	stable	8	200	60	vs	green	brown	brown	green	right	left	0.30000000000000004	0.7	10	2	3.0000000000000004	1.4	0	1	0.7	0.30000000000000004	2	10	1.4	3.0000000000000004	valid	1.1996614769996086	51200	0	0	2	53248	0	51200	1	53248	0	0.7	51200	green	brown	0	2	ml	2.7.3	lorasick	sub-01_ses-02_task-ml_proj-lorasick_2020-10-23-14-19-57.666927
260	1	2	6	261	stable	8	200	61	vs	green	brown	brown	green	right	left	0.30000000000000004	0.7	2	2	0.6000000000000001	1.4	1	0	0.7	0.30000000000000004	2	2	1.4	0.6000000000000001	invalid	0.5665255389976664	51200	0	0	2	51200	1	51200	1	53248	0	0.7	51200	green	brown	1	0	ml	2.7.3	lorasick	sub-01_ses-02_task-ml_proj-lorasick_2020-10-23-14-19-57.666927
261	1	2	6	262	stable	8	200	62	vs	brown	green	brown	green	left	right	0.30000000000000004	0.7	4	2	1.2000000000000002	1.4	0	1	0.30000000000000004	0.7	4	2	1.2000000000000002	1.4	valid	0.4165803380019497	53248	0	1	2	53248	1	53248	1	51200	0	0.7	53248	green	brown	0	2	ml	2.7.3	lorasick	sub-01_ses-02_task-ml_proj-lorasick_2020-10-23-14-19-57.666927
262	1	2	6	263	stable	8	200	63	vs	green	brown	brown	green	right	left	0.30000000000000004	0.7	2	4	0.6000000000000001	2.8	0	1	0.7	0.30000000000000004	4	2	2.8	0.6000000000000001	valid	0.516538184001547	51200	0	0	2	51200	1	51200	1	51200	1	0.7	51200	green	brown	1	4	ml	2.7.3	lorasick	sub-01_ses-02_task-ml_proj-lorasick_2020-10-23-14-19-57.666927
263	1	2	6	264	stable	8	200	64	vs	brown	green	brown	green	left	right	0.30000000000000004	0.7	2	10	0.6000000000000001	7.0	0	1	0.30000000000000004	0.7	2	10	0.6000000000000001	7.0	valid	0.7997997099992062	53248	0	1	2	53248	1	53248	1	53248	1	0.7	53248	green	brown	1	10	ml	2.7.3	lorasick	sub-01_ses-02_task-ml_proj-lorasick_2020-10-23-14-19-57.666927
264	1	2	6	265	stable	8	200	65	vs	brown	green	brown	green	left	right	0.30000000000000004	0.7	4	2	1.2000000000000002	1.4	1	0	0.30000000000000004	0.7	4	2	1.2000000000000002	1.4	invalid	0.7498147070000414	53248	0	1	2	53248	1	53248	1	51200	0	0.7	53248	green	brown	0	0	ml	2.7.3	lorasick	sub-01_ses-02_task-ml_proj-lorasick_2020-10-23-14-19-57.666927
265	1	2	6	266	stable	8	200	66	vs	brown	green	brown	green	left	right	0.30000000000000004	0.7	2	4	0.6000000000000001	2.8	0	1	0.30000000000000004	0.7	2	4	0.6000000000000001	2.8	valid	0.4165856150029867	53248	0	1	2	53248	1	53248	1	53248	1	0.7	53248	green	brown	1	4	ml	2.7.3	lorasick	sub-01_ses-02_task-ml_proj-lorasick_2020-10-23-14-19-57.666927
266	1	2	6	267	stable	8	200	67	vs	brown	green	brown	green	left	right	0.30000000000000004	0.7	2	4	0.6000000000000001	2.8	1	0	0.30000000000000004	0.7	2	4	0.6000000000000001	2.8	invalid	0.3832586070020625	53248	0	1	2	53248	1	53248	1	53248	1	0.7	53248	green	brown	1	0	ml	2.7.3	lorasick	sub-01_ses-02_task-ml_proj-lorasick_2020-10-23-14-19-57.666927
267	1	2	6	268	stable	8	200	68	vs	brown	green	brown	green	left	right	0.30000000000000004	0.7	6	4	1.8000000000000005	2.8	0	1	0.30000000000000004	0.7	6	4	1.8000000000000005	2.8	valid	0.4165769059982267	53248	0	1	2	53248	1	53248	1	51200	0	0.7	53248	green	brown	0	4	ml	2.7.3	lorasick	sub-01_ses-02_task-ml_proj-lorasick_2020-10-23-14-19-57.666927
268	1	2	6	269	stable	8	200	69	vs	brown	green	brown	green	left	right	0.30000000000000004	0.7	2	6	0.6000000000000001	4.199999999999998	0	1	0.30000000000000004	0.7	2	6	0.6000000000000001	4.199999999999998	valid	0.31661545200040564	53248	0	1	2	53248	1	53248	1	53248	1	0.7	53248	green	brown	1	6	ml	2.7.3	lorasick	sub-01_ses-02_task-ml_proj-lorasick_2020-10-23-14-19-57.666927
269	1	2	6	270	stable	8	200	70	vs	green	brown	brown	green	right	left	0.30000000000000004	0.7	4	2	1.2000000000000002	1.4	1	0	0.7	0.30000000000000004	2	4	1.4	1.2000000000000002	invalid	0.6331691480008885	51200	0	0	2	51200	1	51200	1	53248	0	0.7	51200	green	brown	0	0	ml	2.7.3	lorasick	sub-01_ses-02_task-ml_proj-lorasick_2020-10-23-14-19-57.666927
270	1	2	6	271	stable	8	200	71	vs	green	brown	brown	green	right	left	0.30000000000000004	0.7	6	6	1.8000000000000005	4.199999999999998	1	0	0.7	0.30000000000000004	6	6	4.199999999999998	1.8000000000000005	invalid	0.39991921599721536	53248	0	1	1	51200	0	51200	0	53248	1	0.7	51200	green	brown	1	6	ml	2.7.3	lorasick	sub-01_ses-02_task-ml_proj-lorasick_2020-10-23-14-19-57.666927
271	1	2	6	272	stable	8	200	72	vs	brown	green	brown	green	left	right	0.30000000000000004	0.7	2	6	0.6000000000000001	4.199999999999998	0	1	0.30000000000000004	0.7	2	6	0.6000000000000001	4.199999999999998	valid	0.4665549829987867	51200	0	0	1	53248	0	53248	0	53248	0	0.7	53248	green	brown	1	0	ml	2.7.3	lorasick	sub-01_ses-02_task-ml_proj-lorasick_2020-10-23-14-19-57.666927
272	1	2	6	273	stable	8	200	73	vs	green	brown	brown	green	right	left	0.30000000000000004	0.7	10	2	3.0000000000000004	1.4	1	0	0.7	0.30000000000000004	2	10	1.4	3.0000000000000004	invalid	1.3662927919976935	51200	0	0	2	53248	0	51200	1	53248	0	0.7	51200	green	brown	0	0	ml	2.7.3	lorasick	sub-01_ses-02_task-ml_proj-lorasick_2020-10-23-14-19-57.666927
273	1	2	6	274	stable	8	200	74	vs	brown	green	brown	green	left	right	0.30000000000000004	0.7	6	2	1.8000000000000005	1.4	0	1	0.30000000000000004	0.7	6	2	1.8000000000000005	1.4	valid	0.4998829590003879	51200	0	0	1	51200	1	53248	0	51200	1	0.7	53248	green	brown	0	0	ml	2.7.3	lorasick	sub-01_ses-02_task-ml_proj-lorasick_2020-10-23-14-19-57.666927
274	1	2	6	275	stable	8	200	75	vs	brown	green	brown	green	left	right	0.30000000000000004	0.7	6	2	1.8000000000000005	1.4	0	1	0.30000000000000004	0.7	6	2	1.8000000000000005	1.4	valid	0.6331847559995367	53248	0	1	2	51200	0	53248	1	51200	0	0.7	53248	green	brown	0	2	ml	2.7.3	lorasick	sub-01_ses-02_task-ml_proj-lorasick_2020-10-23-14-19-57.666927
275	1	2	6	276	stable	8	200	76	vs	green	brown	brown	green	right	left	0.30000000000000004	0.7	2	4	0.6000000000000001	2.8	0	1	0.7	0.30000000000000004	4	2	2.8	0.6000000000000001	valid	0.5331943370001682	51200	0	0	2	51200	1	51200	1	51200	1	0.7	51200	green	brown	1	4	ml	2.7.3	lorasick	sub-01_ses-02_task-ml_proj-lorasick_2020-10-23-14-19-57.666927
276	1	2	6	277	stable	8	200	77	vs	green	brown	brown	green	right	left	0.30000000000000004	0.7	6	4	1.8000000000000005	2.8	1	0	0.7	0.30000000000000004	4	6	2.8	1.8000000000000005	invalid	1.0330545220022032	53248	0	1	1	51200	0	51200	0	53248	1	0.7	51200	green	brown	0	6	ml	2.7.3	lorasick	sub-01_ses-02_task-ml_proj-lorasick_2020-10-23-14-19-57.666927
277	1	2	6	278	stable	8	200	78	vs	brown	green	brown	green	left	right	0.30000000000000004	0.7	2	4	0.6000000000000001	2.8	1	0	0.30000000000000004	0.7	2	4	0.6000000000000001	2.8	invalid	0.4665656959987246	53248	0	1	2	53248	1	53248	1	53248	1	0.7	53248	green	brown	1	0	ml	2.7.3	lorasick	sub-01_ses-02_task-ml_proj-lorasick_2020-10-23-14-19-57.666927
278	1	2	6	279	stable	8	200	79	vs	green	brown	brown	green	right	left	0.30000000000000004	0.7	2	2	0.6000000000000001	1.4	0	1	0.7	0.30000000000000004	2	2	1.4	0.6000000000000001	valid	0.7664945020005689	51200	0	0	2	51200	1	51200	1	53248	0	0.7	51200	green	brown	1	2	ml	2.7.3	lorasick	sub-01_ses-02_task-ml_proj-lorasick_2020-10-23-14-19-57.666927
279	1	2	6	280	stable	8	200	80	vs	green	brown	brown	green	right	left	0.30000000000000004	0.7	6	2	1.8000000000000005	1.4	0	1	0.7	0.30000000000000004	2	6	1.4	1.8000000000000005	valid	0.5831842009974935	51200	0	0	2	53248	0	51200	1	53248	0	0.7	51200	green	brown	0	2	ml	2.7.3	lorasick	sub-01_ses-02_task-ml_proj-lorasick_2020-10-23-14-19-57.666927
280	1	2	6	281	stable	8	200	81	vs	green	brown	brown	green	right	left	0.30000000000000004	0.7	6	4	1.8000000000000005	2.8	0	1	0.7	0.30000000000000004	4	6	2.8	1.8000000000000005	valid	0.5998475540000072	51200	0	0	2	51200	1	51200	1	53248	0	0.7	51200	green	brown	0	4	ml	2.7.3	lorasick	sub-01_ses-02_task-ml_proj-lorasick_2020-10-23-14-19-57.666927
281	1	2	6	282	stable	8	200	82	vs	brown	green	brown	green	left	right	0.30000000000000004	0.7	6	4	1.8000000000000005	2.8	0	1	0.30000000000000004	0.7	6	4	1.8000000000000005	2.8	valid	0.8164486909990956	51200	0	0	1	53248	0	53248	0	51200	1	0.7	53248	green	brown	0	0	ml	2.7.3	lorasick	sub-01_ses-02_task-ml_proj-lorasick_2020-10-23-14-19-57.666927
282	1	2	6	283	stable	8	200	83	vs	brown	green	brown	green	left	right	0.30000000000000004	0.7	6	4	1.8000000000000005	2.8	0	1	0.30000000000000004	0.7	6	4	1.8000000000000005	2.8	valid	0.6831579850004346	51200	0	0	1	53248	0	53248	0	51200	1	0.7	53248	green	brown	0	0	ml	2.7.3	lorasick	sub-01_ses-02_task-ml_proj-lorasick_2020-10-23-14-19-57.666927
