Unnamed: 0	sub_id	ses_id	block_no	trial_no	phase_type	phase_no	phase_length	trialInPhase_no	phase_type_order	color_left	color_right	color1	color2	position1	position2	prob1	prob2	mag1	mag2	ev1	ev2	outcome1	outcome2	prob_left	prob_right	mag_left	mag_right	ev_left	ev_right	reward_validity	resp_time	resp_key	timeout	choice_side	choice	ev_corr_resp	ev_correct	prob_corr_resp	prob_correct	mag_corr_resp	mag_correct	high_prob	high_prob_side	high_prob_color	low_prob_color	no_brain	reward	name	version	proj_id	logFileID
0	5	1	1	1	volatile	1	20	1	vs	brown	green	brown	green	left	right	0.7	0.30000000000000004	2	6	1.4	1.8000000000000005	1	0	0.7	0.30000000000000004	2	6	1.4	1.8000000000000005	valid	0.9664231360002304	53248	0	1	2	53248	1	51200	0	53248	1	0.7	51200	brown	green	0	0	ml	2.7.3	lorasick	sub-05_ses-01_task-ml_proj-lorasick_2020-12-01-14-17-37.181235
1	5	1	1	2	volatile	1	20	2	vs	brown	green	brown	green	left	right	0.7	0.30000000000000004	6	6	4.199999999999998	1.8000000000000005	1	0	0.7	0.30000000000000004	6	6	4.199999999999998	1.8000000000000005	valid	0.499911314000201	51200	0	0	1	51200	1	51200	1	53248	0	0.7	51200	brown	green	1	6	ml	2.7.3	lorasick	sub-05_ses-01_task-ml_proj-lorasick_2020-12-01-14-17-37.181235
2	5	1	1	3	volatile	1	20	3	vs	green	brown	brown	green	right	left	0.7	0.30000000000000004	10	2	7.0	0.6000000000000001	1	0	0.30000000000000004	0.7	2	10	0.6000000000000001	7.0	valid	0.4665695330004382	53248	0	1	1	53248	1	53248	1	53248	1	0.7	53248	brown	green	1	10	ml	2.7.3	lorasick	sub-05_ses-01_task-ml_proj-lorasick_2020-12-01-14-17-37.181235
3	5	1	1	4	volatile	1	20	4	vs	brown	green	brown	green	left	right	0.7	0.30000000000000004	2	4	1.4	1.2000000000000002	0	1	0.7	0.30000000000000004	2	4	1.4	1.2000000000000002	invalid	0.4332351949997246	51200	0	0	1	51200	1	51200	1	53248	0	0.7	51200	brown	green	0	0	ml	2.7.3	lorasick	sub-05_ses-01_task-ml_proj-lorasick_2020-12-01-14-17-37.181235
4	5	1	1	5	volatile	1	20	5	vs	green	brown	brown	green	right	left	0.7	0.30000000000000004	4	6	2.8	1.8000000000000005	1	0	0.30000000000000004	0.7	6	4	1.8000000000000005	2.8	valid	0.4665772799999104	53248	0	1	1	53248	1	53248	1	51200	0	0.7	53248	brown	green	0	4	ml	2.7.3	lorasick	sub-05_ses-01_task-ml_proj-lorasick_2020-12-01-14-17-37.181235
5	5	1	1	6	volatile	1	20	6	vs	green	brown	brown	green	right	left	0.7	0.30000000000000004	6	6	4.199999999999998	1.8000000000000005	0	1	0.30000000000000004	0.7	6	6	1.8000000000000005	4.199999999999998	invalid	0.4499108210002305	53248	0	1	1	53248	1	53248	1	53248	1	0.7	53248	brown	green	0	0	ml	2.7.3	lorasick	sub-05_ses-01_task-ml_proj-lorasick_2020-12-01-14-17-37.181235
6	5	1	1	7	volatile	1	20	7	vs	brown	green	brown	green	left	right	0.7	0.30000000000000004	2	6	1.4	1.8000000000000005	1	0	0.7	0.30000000000000004	2	6	1.4	1.8000000000000005	valid	0.4998832870005572	51200	0	0	1	53248	0	51200	1	53248	0	0.7	51200	brown	green	0	2	ml	2.7.3	lorasick	sub-05_ses-01_task-ml_proj-lorasick_2020-12-01-14-17-37.181235
7	5	1	1	8	volatile	1	20	8	vs	green	brown	brown	green	right	left	0.7	0.30000000000000004	2	2	1.4	0.6000000000000001	1	0	0.30000000000000004	0.7	2	2	0.6000000000000001	1.4	valid	0.4499083980008436	53248	0	1	1	53248	1	53248	1	53248	1	0.7	53248	brown	green	0	2	ml	2.7.3	lorasick	sub-05_ses-01_task-ml_proj-lorasick_2020-12-01-14-17-37.181235
8	5	1	1	9	volatile	1	20	9	vs	green	brown	brown	green	right	left	0.7	0.30000000000000004	6	4	4.199999999999998	1.2000000000000002	1	0	0.30000000000000004	0.7	4	6	1.2000000000000002	4.199999999999998	valid	0.4499063190014567	53248	0	1	1	53248	1	53248	1	53248	1	0.7	53248	brown	green	1	6	ml	2.7.3	lorasick	sub-05_ses-01_task-ml_proj-lorasick_2020-12-01-14-17-37.181235
9	5	1	1	10	volatile	1	20	10	vs	brown	green	brown	green	left	right	0.7	0.30000000000000004	2	10	1.4	3.0000000000000004	0	1	0.7	0.30000000000000004	2	10	1.4	3.0000000000000004	invalid	0.4998825589973421	51200	0	0	1	53248	0	51200	1	53248	0	0.7	51200	brown	green	0	0	ml	2.7.3	lorasick	sub-05_ses-01_task-ml_proj-lorasick_2020-12-01-14-17-37.181235
10	5	1	1	11	volatile	1	20	11	vs	brown	green	brown	green	left	right	0.7	0.30000000000000004	6	2	4.199999999999998	0.6000000000000001	1	0	0.7	0.30000000000000004	6	2	4.199999999999998	0.6000000000000001	valid	0.7664706959985779	51200	0	0	1	51200	1	51200	1	51200	1	0.7	51200	brown	green	1	6	ml	2.7.3	lorasick	sub-05_ses-01_task-ml_proj-lorasick_2020-12-01-14-17-37.181235
11	5	1	1	12	volatile	1	20	12	vs	brown	green	brown	green	left	right	0.7	0.30000000000000004	10	2	7.0	0.6000000000000001	0	1	0.7	0.30000000000000004	10	2	7.0	0.6000000000000001	invalid	0.5831971959996736	51200	0	0	1	51200	1	51200	1	51200	1	0.7	51200	brown	green	1	0	ml	2.7.3	lorasick	sub-05_ses-01_task-ml_proj-lorasick_2020-12-01-14-17-37.181235
12	5	1	1	13	volatile	1	20	13	vs	brown	green	brown	green	left	right	0.7	0.30000000000000004	4	2	2.8	0.6000000000000001	1	0	0.7	0.30000000000000004	4	2	2.8	0.6000000000000001	valid	0.5332257840018428	53248	0	1	2	51200	0	51200	0	51200	0	0.7	51200	brown	green	1	0	ml	2.7.3	lorasick	sub-05_ses-01_task-ml_proj-lorasick_2020-12-01-14-17-37.181235
13	5	1	1	14	volatile	1	20	14	vs	brown	green	brown	green	left	right	0.7	0.30000000000000004	6	2	4.199999999999998	0.6000000000000001	1	0	0.7	0.30000000000000004	6	2	4.199999999999998	0.6000000000000001	valid	0.4165737860021181	51200	0	0	1	51200	1	51200	1	51200	1	0.7	51200	brown	green	1	6	ml	2.7.3	lorasick	sub-05_ses-01_task-ml_proj-lorasick_2020-12-01-14-17-37.181235
14	5	1	1	15	volatile	1	20	15	vs	green	brown	brown	green	right	left	0.7	0.30000000000000004	4	6	2.8	1.8000000000000005	1	0	0.30000000000000004	0.7	6	4	1.8000000000000005	2.8	valid	0.566540793999593	53248	0	1	1	53248	1	53248	1	51200	0	0.7	53248	brown	green	0	4	ml	2.7.3	lorasick	sub-05_ses-01_task-ml_proj-lorasick_2020-12-01-14-17-37.181235
15	5	1	1	16	volatile	1	20	16	vs	green	brown	brown	green	right	left	0.7	0.30000000000000004	2	4	1.4	1.2000000000000002	0	1	0.30000000000000004	0.7	4	2	1.2000000000000002	1.4	invalid	0.4998908589986968	53248	0	1	1	53248	1	53248	1	51200	0	0.7	53248	brown	green	0	0	ml	2.7.3	lorasick	sub-05_ses-01_task-ml_proj-lorasick_2020-12-01-14-17-37.181235
16	5	1	1	17	volatile	1	20	17	vs	green	brown	brown	green	right	left	0.7	0.30000000000000004	2	2	1.4	0.6000000000000001	1	0	0.30000000000000004	0.7	2	2	0.6000000000000001	1.4	valid	0.483228686000075	53248	0	1	1	53248	1	53248	1	53248	1	0.7	53248	brown	green	0	2	ml	2.7.3	lorasick	sub-05_ses-01_task-ml_proj-lorasick_2020-12-01-14-17-37.181235
17	5	1	1	18	volatile	1	20	18	vs	brown	green	brown	green	left	right	0.7	0.30000000000000004	10	2	7.0	0.6000000000000001	1	0	0.7	0.30000000000000004	10	2	7.0	0.6000000000000001	valid	0.466557746000035	51200	0	0	1	51200	1	51200	1	51200	1	0.7	51200	brown	green	1	10	ml	2.7.3	lorasick	sub-05_ses-01_task-ml_proj-lorasick_2020-12-01-14-17-37.181235
18	5	1	1	19	volatile	1	20	19	vs	green	brown	brown	green	right	left	0.7	0.30000000000000004	6	4	4.199999999999998	1.2000000000000002	1	0	0.30000000000000004	0.7	4	6	1.2000000000000002	4.199999999999998	valid	0.4165824409974448	53248	0	1	1	53248	1	53248	1	53248	1	0.7	53248	brown	green	1	6	ml	2.7.3	lorasick	sub-05_ses-01_task-ml_proj-lorasick_2020-12-01-14-17-37.181235
19	5	1	1	20	volatile	1	20	20	vs	green	brown	brown	green	right	left	0.7	0.30000000000000004	4	2	2.8	0.6000000000000001	0	1	0.30000000000000004	0.7	2	4	0.6000000000000001	2.8	invalid	0.5832001470007526	53248	0	1	1	53248	1	53248	1	53248	1	0.7	53248	brown	green	1	0	ml	2.7.3	lorasick	sub-05_ses-01_task-ml_proj-lorasick_2020-12-01-14-17-37.181235
20	5	1	1	21	volatile	2	40	1	vs	brown	green	brown	green	left	right	0.30000000000000004	0.7	6	4	1.8000000000000005	2.8	0	1	0.30000000000000004	0.7	6	4	1.8000000000000005	2.8	valid	0.4498962440011383	51200	0	0	1	53248	0	53248	0	51200	1	0.7	53248	green	brown	0	0	ml	2.7.3	lorasick	sub-05_ses-01_task-ml_proj-lorasick_2020-12-01-14-17-37.181235
21	5	1	1	22	volatile	2	40	2	vs	brown	green	brown	green	left	right	0.30000000000000004	0.7	4	2	1.2000000000000002	1.4	0	1	0.30000000000000004	0.7	4	2	1.2000000000000002	1.4	valid	0.6331901520024985	53248	0	1	2	53248	1	53248	1	51200	0	0.7	53248	green	brown	0	2	ml	2.7.3	lorasick	sub-05_ses-01_task-ml_proj-lorasick_2020-12-01-14-17-37.181235
22	5	1	1	23	volatile	2	40	3	vs	green	brown	brown	green	right	left	0.30000000000000004	0.7	4	6	1.2000000000000002	4.199999999999998	0	1	0.7	0.30000000000000004	6	4	4.199999999999998	1.2000000000000002	valid	0.4332360259977577	51200	0	0	2	51200	1	51200	1	51200	1	0.7	51200	green	brown	1	6	ml	2.7.3	lorasick	sub-05_ses-01_task-ml_proj-lorasick_2020-12-01-14-17-37.181235
23	5	1	1	24	volatile	2	40	4	vs	brown	green	brown	green	left	right	0.30000000000000004	0.7	2	2	0.6000000000000001	1.4	0	1	0.30000000000000004	0.7	2	2	0.6000000000000001	1.4	valid	0.3999204190004093	53248	0	1	2	53248	1	53248	1	53248	1	0.7	53248	green	brown	0	2	ml	2.7.3	lorasick	sub-05_ses-01_task-ml_proj-lorasick_2020-12-01-14-17-37.181235
24	5	1	1	25	volatile	2	40	5	vs	brown	green	brown	green	left	right	0.30000000000000004	0.7	6	6	1.8000000000000005	4.199999999999998	0	1	0.30000000000000004	0.7	6	6	1.8000000000000005	4.199999999999998	valid	0.516554557998461	53248	0	1	2	53248	1	53248	1	53248	1	0.7	53248	green	brown	0	6	ml	2.7.3	lorasick	sub-05_ses-01_task-ml_proj-lorasick_2020-12-01-14-17-37.181235
25	5	1	1	26	volatile	2	40	6	vs	green	brown	brown	green	right	left	0.30000000000000004	0.7	4	2	1.2000000000000002	1.4	0	1	0.7	0.30000000000000004	2	4	1.4	1.2000000000000002	valid	0.5498666960011178	51200	0	0	2	51200	1	51200	1	53248	0	0.7	51200	green	brown	0	2	ml	2.7.3	lorasick	sub-05_ses-01_task-ml_proj-lorasick_2020-12-01-14-17-37.181235
26	5	1	1	27	volatile	2	40	7	vs	brown	green	brown	green	left	right	0.30000000000000004	0.7	10	2	3.0000000000000004	1.4	0	1	0.30000000000000004	0.7	10	2	3.0000000000000004	1.4	valid	0.48323101799906	53248	0	1	2	51200	0	53248	1	51200	0	0.7	53248	green	brown	0	2	ml	2.7.3	lorasick	sub-05_ses-01_task-ml_proj-lorasick_2020-12-01-14-17-37.181235
27	5	1	1	28	volatile	2	40	8	vs	green	brown	brown	green	right	left	0.30000000000000004	0.7	2	10	0.6000000000000001	7.0	0	1	0.7	0.30000000000000004	10	2	7.0	0.6000000000000001	valid	0.4165808619982272	51200	0	0	2	51200	1	51200	1	51200	1	0.7	51200	green	brown	1	10	ml	2.7.3	lorasick	sub-05_ses-01_task-ml_proj-lorasick_2020-12-01-14-17-37.181235
28	5	1	1	29	volatile	2	40	9	vs	green	brown	brown	green	right	left	0.30000000000000004	0.7	4	2	1.2000000000000002	1.4	0	1	0.7	0.30000000000000004	2	4	1.4	1.2000000000000002	valid	0.4832191170025908	51200	0	0	2	51200	1	51200	1	53248	0	0.7	51200	green	brown	0	2	ml	2.7.3	lorasick	sub-05_ses-01_task-ml_proj-lorasick_2020-12-01-14-17-37.181235
29	5	1	1	30	volatile	2	40	10	vs	brown	green	brown	green	left	right	0.30000000000000004	0.7	2	4	0.6000000000000001	2.8	0	1	0.30000000000000004	0.7	2	4	0.6000000000000001	2.8	valid	0.4832262990021263	53248	0	1	2	53248	1	53248	1	53248	1	0.7	53248	green	brown	1	4	ml	2.7.3	lorasick	sub-05_ses-01_task-ml_proj-lorasick_2020-12-01-14-17-37.181235
30	5	1	1	31	volatile	2	40	11	vs	brown	green	brown	green	left	right	0.30000000000000004	0.7	6	2	1.8000000000000005	1.4	0	1	0.30000000000000004	0.7	6	2	1.8000000000000005	1.4	valid	0.6498504339979263	53248	0	1	2	51200	0	53248	1	51200	0	0.7	53248	green	brown	0	2	ml	2.7.3	lorasick	sub-05_ses-01_task-ml_proj-lorasick_2020-12-01-14-17-37.181235
31	5	1	1	32	volatile	2	40	12	vs	green	brown	brown	green	right	left	0.30000000000000004	0.7	6	6	1.8000000000000005	4.199999999999998	0	1	0.7	0.30000000000000004	6	6	4.199999999999998	1.8000000000000005	valid	0.4665595629994641	51200	0	0	2	51200	1	51200	1	53248	0	0.7	51200	green	brown	1	6	ml	2.7.3	lorasick	sub-05_ses-01_task-ml_proj-lorasick_2020-12-01-14-17-37.181235
32	5	1	1	33	volatile	2	40	13	vs	green	brown	brown	green	right	left	0.30000000000000004	0.7	6	2	1.8000000000000005	1.4	0	1	0.7	0.30000000000000004	2	6	1.4	1.8000000000000005	valid	0.4165760420000879	51200	0	0	2	53248	0	51200	1	53248	0	0.7	51200	green	brown	0	2	ml	2.7.3	lorasick	sub-05_ses-01_task-ml_proj-lorasick_2020-12-01-14-17-37.181235
33	5	1	1	34	volatile	2	40	14	vs	green	brown	brown	green	right	left	0.30000000000000004	0.7	2	10	0.6000000000000001	7.0	0	1	0.7	0.30000000000000004	10	2	7.0	0.6000000000000001	valid	0.5165405879997707	51200	0	0	2	51200	1	51200	1	51200	1	0.7	51200	green	brown	1	10	ml	2.7.3	lorasick	sub-05_ses-01_task-ml_proj-lorasick_2020-12-01-14-17-37.181235
34	5	1	1	35	volatile	2	40	15	vs	brown	green	brown	green	left	right	0.30000000000000004	0.7	2	2	0.6000000000000001	1.4	0	1	0.30000000000000004	0.7	2	2	0.6000000000000001	1.4	valid	0.6331890120018215	53248	0	1	2	53248	1	53248	1	53248	1	0.7	53248	green	brown	0	2	ml	2.7.3	lorasick	sub-05_ses-01_task-ml_proj-lorasick_2020-12-01-14-17-37.181235
35	5	1	1	36	volatile	2	40	16	vs	green	brown	brown	green	right	left	0.30000000000000004	0.7	6	4	1.8000000000000005	2.8	0	1	0.7	0.30000000000000004	4	6	2.8	1.8000000000000005	valid	0.6331792470009532	51200	0	0	2	51200	1	51200	1	53248	0	0.7	51200	green	brown	0	4	ml	2.7.3	lorasick	sub-05_ses-01_task-ml_proj-lorasick_2020-12-01-14-17-37.181235
36	5	1	1	37	volatile	2	40	17	vs	green	brown	brown	green	right	left	0.30000000000000004	0.7	2	4	0.6000000000000001	2.8	1	0	0.7	0.30000000000000004	4	2	2.8	0.6000000000000001	invalid	0.4165735690003203	51200	0	0	2	51200	1	51200	1	51200	1	0.7	51200	green	brown	1	0	ml	2.7.3	lorasick	sub-05_ses-01_task-ml_proj-lorasick_2020-12-01-14-17-37.181235
37	5	1	1	38	volatile	2	40	18	vs	brown	green	brown	green	left	right	0.30000000000000004	0.7	2	6	0.6000000000000001	4.199999999999998	1	0	0.30000000000000004	0.7	2	6	0.6000000000000001	4.199999999999998	invalid	0.699840719000349	53248	0	1	2	53248	1	53248	1	53248	1	0.7	53248	green	brown	1	0	ml	2.7.3	lorasick	sub-05_ses-01_task-ml_proj-lorasick_2020-12-01-14-17-37.181235
38	5	1	1	39	volatile	2	40	19	vs	brown	green	brown	green	left	right	0.30000000000000004	0.7	6	2	1.8000000000000005	1.4	1	0	0.30000000000000004	0.7	6	2	1.8000000000000005	1.4	invalid	0.3832477710020612	51200	0	0	1	51200	1	53248	0	51200	1	0.7	53248	green	brown	0	6	ml	2.7.3	lorasick	sub-05_ses-01_task-ml_proj-lorasick_2020-12-01-14-17-37.181235
39	5	1	1	40	volatile	2	40	20	vs	brown	green	brown	green	left	right	0.30000000000000004	0.7	6	4	1.8000000000000005	2.8	1	0	0.30000000000000004	0.7	6	4	1.8000000000000005	2.8	invalid	0.38324985800136346	51200	0	0	1	53248	0	53248	0	51200	1	0.7	53248	green	brown	0	6	ml	2.7.3	lorasick	sub-05_ses-01_task-ml_proj-lorasick_2020-12-01-14-17-37.181235
40	5	1	1	41	volatile	2	40	21	vs	green	brown	brown	green	right	left	0.30000000000000004	0.7	4	2	1.2000000000000002	1.4	1	0	0.7	0.30000000000000004	2	4	1.4	1.2000000000000002	invalid	0.3665985329971591	53248	0	1	1	51200	0	51200	0	53248	1	0.7	51200	green	brown	0	4	ml	2.7.3	lorasick	sub-05_ses-01_task-ml_proj-lorasick_2020-12-01-14-17-37.181235
41	5	1	1	42	volatile	2	40	22	vs	green	brown	brown	green	right	left	0.30000000000000004	0.7	6	2	1.8000000000000005	1.4	0	1	0.7	0.30000000000000004	2	6	1.4	1.8000000000000005	valid	0.3999287499973434	53248	0	1	1	53248	1	51200	0	53248	1	0.7	51200	green	brown	0	0	ml	2.7.3	lorasick	sub-05_ses-01_task-ml_proj-lorasick_2020-12-01-14-17-37.181235
42	5	1	1	43	volatile	2	40	23	vs	brown	green	brown	green	left	right	0.30000000000000004	0.7	6	2	1.8000000000000005	1.4	1	0	0.30000000000000004	0.7	6	2	1.8000000000000005	1.4	invalid	0.5498708560007799	51200	0	0	1	51200	1	53248	0	51200	1	0.7	53248	green	brown	0	6	ml	2.7.3	lorasick	sub-05_ses-01_task-ml_proj-lorasick_2020-12-01-14-17-37.181235
43	5	1	1	44	volatile	2	40	24	vs	brown	green	brown	green	left	right	0.30000000000000004	0.7	6	6	1.8000000000000005	4.199999999999998	0	1	0.30000000000000004	0.7	6	6	1.8000000000000005	4.199999999999998	valid	0.3832503329977044	51200	0	0	1	53248	0	53248	0	53248	0	0.7	53248	green	brown	0	0	ml	2.7.3	lorasick	sub-05_ses-01_task-ml_proj-lorasick_2020-12-01-14-17-37.181235
44	5	1	1	45	volatile	2	40	25	vs	green	brown	brown	green	right	left	0.30000000000000004	0.7	2	4	0.6000000000000001	2.8	1	0	0.7	0.30000000000000004	4	2	2.8	0.6000000000000001	invalid	0.3665990949994011	53248	0	1	1	51200	0	51200	0	51200	0	0.7	51200	green	brown	1	2	ml	2.7.3	lorasick	sub-05_ses-01_task-ml_proj-lorasick_2020-12-01-14-17-37.181235
45	5	1	1	46	volatile	2	40	26	vs	green	brown	brown	green	right	left	0.30000000000000004	0.7	6	6	1.8000000000000005	4.199999999999998	0	1	0.7	0.30000000000000004	6	6	4.199999999999998	1.8000000000000005	valid	0.4332504289995995	53248	0	1	1	51200	0	51200	0	53248	1	0.7	51200	green	brown	1	0	ml	2.7.3	lorasick	sub-05_ses-01_task-ml_proj-lorasick_2020-12-01-14-17-37.181235
46	5	1	1	47	volatile	2	40	27	vs	brown	green	brown	green	left	right	0.30000000000000004	0.7	2	2	0.6000000000000001	1.4	0	1	0.30000000000000004	0.7	2	2	0.6000000000000001	1.4	valid	0.4332336699990265	51200	0	0	1	53248	0	53248	0	53248	0	0.7	53248	green	brown	0	0	ml	2.7.3	lorasick	sub-05_ses-01_task-ml_proj-lorasick_2020-12-01-14-17-37.181235
47	5	1	1	48	volatile	2	40	28	vs	green	brown	brown	green	right	left	0.30000000000000004	0.7	2	2	0.6000000000000001	1.4	0	1	0.7	0.30000000000000004	2	2	1.4	0.6000000000000001	valid	0.3999093510028615	51200	0	0	2	51200	1	51200	1	53248	0	0.7	51200	green	brown	1	2	ml	2.7.3	lorasick	sub-05_ses-01_task-ml_proj-lorasick_2020-12-01-14-17-37.181235
48	5	1	1	49	volatile	2	40	29	vs	brown	green	brown	green	left	right	0.30000000000000004	0.7	4	6	1.2000000000000002	4.199999999999998	0	1	0.30000000000000004	0.7	4	6	1.2000000000000002	4.199999999999998	valid	0.3332784600024752	53248	0	1	2	53248	1	53248	1	53248	1	0.7	53248	green	brown	1	6	ml	2.7.3	lorasick	sub-05_ses-01_task-ml_proj-lorasick_2020-12-01-14-17-37.181235
49	5	1	1	50	volatile	2	40	30	vs	brown	green	brown	green	left	right	0.30000000000000004	0.7	2	10	0.6000000000000001	7.0	1	0	0.30000000000000004	0.7	2	10	0.6000000000000001	7.0	invalid	0.3999264039994159	53248	0	1	2	53248	1	53248	1	53248	1	0.7	53248	green	brown	1	0	ml	2.7.3	lorasick	sub-05_ses-01_task-ml_proj-lorasick_2020-12-01-14-17-37.181235
50	5	1	2	51	volatile	2	40	31	vs	green	brown	brown	green	right	left	0.30000000000000004	0.7	4	6	1.2000000000000002	4.199999999999998	1	0	0.7	0.30000000000000004	6	4	4.199999999999998	1.2000000000000002	invalid	0.583184266997705	51200	0	0	2	51200	1	51200	1	51200	1	0.7	51200	green	brown	1	0	ml	2.7.3	lorasick	sub-05_ses-01_task-ml_proj-lorasick_2020-12-01-14-17-37.181235
51	5	1	2	52	volatile	2	40	32	vs	brown	green	brown	green	left	right	0.30000000000000004	0.7	4	2	1.2000000000000002	1.4	1	0	0.30000000000000004	0.7	4	2	1.2000000000000002	1.4	invalid	0.36657895000098506	51200	0	0	1	53248	0	53248	0	51200	1	0.7	53248	green	brown	0	4	ml	2.7.3	lorasick	sub-05_ses-01_task-ml_proj-lorasick_2020-12-01-14-17-37.181235
52	5	1	2	53	volatile	2	40	33	vs	green	brown	brown	green	right	left	0.30000000000000004	0.7	6	4	1.8000000000000005	2.8	0	1	0.7	0.30000000000000004	4	6	2.8	1.8000000000000005	valid	0.4165847630029021	53248	0	1	1	51200	0	51200	0	53248	1	0.7	51200	green	brown	0	0	ml	2.7.3	lorasick	sub-05_ses-01_task-ml_proj-lorasick_2020-12-01-14-17-37.181235
53	5	1	2	54	volatile	2	40	34	vs	green	brown	brown	green	right	left	0.30000000000000004	0.7	6	2	1.8000000000000005	1.4	1	0	0.7	0.30000000000000004	2	6	1.4	1.8000000000000005	invalid	0.3332729290013958	53248	0	1	1	53248	1	51200	0	53248	1	0.7	51200	green	brown	0	6	ml	2.7.3	lorasick	sub-05_ses-01_task-ml_proj-lorasick_2020-12-01-14-17-37.181235
54	5	1	2	55	volatile	2	40	35	vs	brown	green	brown	green	left	right	0.30000000000000004	0.7	4	6	1.2000000000000002	4.199999999999998	0	1	0.30000000000000004	0.7	4	6	1.2000000000000002	4.199999999999998	valid	0.36658815100236103	51200	0	0	1	53248	0	53248	0	53248	0	0.7	53248	green	brown	1	0	ml	2.7.3	lorasick	sub-05_ses-01_task-ml_proj-lorasick_2020-12-01-14-17-37.181235
55	5	1	2	56	volatile	2	40	36	vs	green	brown	brown	green	right	left	0.30000000000000004	0.7	10	2	3.0000000000000004	1.4	0	1	0.7	0.30000000000000004	2	10	1.4	3.0000000000000004	valid	0.3499254909984302	51200	0	0	2	53248	0	51200	1	53248	0	0.7	51200	green	brown	0	2	ml	2.7.3	lorasick	sub-05_ses-01_task-ml_proj-lorasick_2020-12-01-14-17-37.181235
56	5	1	2	57	volatile	2	40	37	vs	green	brown	brown	green	right	left	0.30000000000000004	0.7	2	6	0.6000000000000001	4.199999999999998	0	1	0.7	0.30000000000000004	6	2	4.199999999999998	0.6000000000000001	valid	0.39991199499854707	51200	0	0	2	51200	1	51200	1	51200	1	0.7	51200	green	brown	1	6	ml	2.7.3	lorasick	sub-05_ses-01_task-ml_proj-lorasick_2020-12-01-14-17-37.181235
57	5	1	2	58	volatile	2	40	38	vs	brown	green	brown	green	left	right	0.30000000000000004	0.7	10	2	3.0000000000000004	1.4	0	1	0.30000000000000004	0.7	10	2	3.0000000000000004	1.4	valid	0.4332464430008258	53248	0	1	2	51200	0	53248	1	51200	0	0.7	53248	green	brown	0	2	ml	2.7.3	lorasick	sub-05_ses-01_task-ml_proj-lorasick_2020-12-01-14-17-37.181235
58	5	1	2	59	volatile	2	40	39	vs	brown	green	brown	green	left	right	0.30000000000000004	0.7	2	10	0.6000000000000001	7.0	0	1	0.30000000000000004	0.7	2	10	0.6000000000000001	7.0	valid	0.4332467409985839	53248	0	1	2	53248	1	53248	1	53248	1	0.7	53248	green	brown	1	10	ml	2.7.3	lorasick	sub-05_ses-01_task-ml_proj-lorasick_2020-12-01-14-17-37.181235
59	5	1	2	60	volatile	2	40	40	vs	green	brown	brown	green	right	left	0.30000000000000004	0.7	10	2	3.0000000000000004	1.4	1	0	0.7	0.30000000000000004	2	10	1.4	3.0000000000000004	invalid	0.4165738129995589	51200	0	0	2	53248	0	51200	1	53248	0	0.7	51200	green	brown	0	0	ml	2.7.3	lorasick	sub-05_ses-01_task-ml_proj-lorasick_2020-12-01-14-17-37.181235
60	5	1	2	61	volatile	3	20	1	vs	green	brown	brown	green	right	left	0.7	0.30000000000000004	10	2	7.0	0.6000000000000001	1	0	0.30000000000000004	0.7	2	10	0.6000000000000001	7.0	valid	0.4665578519998234	51200	0	0	2	53248	0	53248	0	53248	0	0.7	53248	brown	green	1	0	ml	2.7.3	lorasick	sub-05_ses-01_task-ml_proj-lorasick_2020-12-01-14-17-37.181235
61	5	1	2	62	volatile	3	20	2	vs	brown	green	brown	green	left	right	0.7	0.30000000000000004	2	6	1.4	1.8000000000000005	0	1	0.7	0.30000000000000004	2	6	1.4	1.8000000000000005	invalid	0.4832051650009817	51200	0	0	1	53248	0	51200	1	53248	0	0.7	51200	brown	green	0	0	ml	2.7.3	lorasick	sub-05_ses-01_task-ml_proj-lorasick_2020-12-01-14-17-37.181235
62	5	1	2	63	volatile	3	20	3	vs	brown	green	brown	green	left	right	0.7	0.30000000000000004	6	2	4.199999999999998	0.6000000000000001	0	1	0.7	0.30000000000000004	6	2	4.199999999999998	0.6000000000000001	invalid	0.5332158009987324	53248	0	1	2	51200	0	51200	0	51200	0	0.7	51200	brown	green	1	2	ml	2.7.3	lorasick	sub-05_ses-01_task-ml_proj-lorasick_2020-12-01-14-17-37.181235
63	5	1	2	64	volatile	3	20	4	vs	brown	green	brown	green	left	right	0.7	0.30000000000000004	6	6	4.199999999999998	1.8000000000000005	1	0	0.7	0.30000000000000004	6	6	4.199999999999998	1.8000000000000005	valid	0.4499095549981576	53248	0	1	2	51200	0	51200	0	53248	1	0.7	51200	brown	green	1	0	ml	2.7.3	lorasick	sub-05_ses-01_task-ml_proj-lorasick_2020-12-01-14-17-37.181235
64	5	1	2	65	volatile	3	20	5	vs	brown	green	brown	green	left	right	0.7	0.30000000000000004	4	2	2.8	0.6000000000000001	1	0	0.7	0.30000000000000004	4	2	2.8	0.6000000000000001	valid	0.4665706269988732	53248	0	1	2	51200	0	51200	0	51200	0	0.7	51200	brown	green	1	0	ml	2.7.3	lorasick	sub-05_ses-01_task-ml_proj-lorasick_2020-12-01-14-17-37.181235
65	5	1	2	66	volatile	3	20	6	vs	green	brown	brown	green	right	left	0.7	0.30000000000000004	2	4	1.4	1.2000000000000002	0	1	0.30000000000000004	0.7	4	2	1.2000000000000002	1.4	invalid	0.5498797250002099	53248	0	1	1	53248	1	53248	1	51200	0	0.7	53248	brown	green	0	0	ml	2.7.3	lorasick	sub-05_ses-01_task-ml_proj-lorasick_2020-12-01-14-17-37.181235
66	5	1	2	67	volatile	3	20	7	vs	brown	green	brown	green	left	right	0.7	0.30000000000000004	2	4	1.4	1.2000000000000002	1	0	0.7	0.30000000000000004	2	4	1.4	1.2000000000000002	valid	0.41658331099824863	53248	0	1	2	51200	0	51200	0	53248	1	0.7	51200	brown	green	0	0	ml	2.7.3	lorasick	sub-05_ses-01_task-ml_proj-lorasick_2020-12-01-14-17-37.181235
67	5	1	2	68	volatile	3	20	8	vs	brown	green	brown	green	left	right	0.7	0.30000000000000004	10	2	7.0	0.6000000000000001	1	0	0.7	0.30000000000000004	10	2	7.0	0.6000000000000001	valid	0.4998778039989702	51200	0	0	1	51200	1	51200	1	51200	1	0.7	51200	brown	green	1	10	ml	2.7.3	lorasick	sub-05_ses-01_task-ml_proj-lorasick_2020-12-01-14-17-37.181235
68	5	1	2	69	volatile	3	20	9	vs	green	brown	brown	green	right	left	0.7	0.30000000000000004	6	2	4.199999999999998	0.6000000000000001	0	1	0.30000000000000004	0.7	2	6	0.6000000000000001	4.199999999999998	invalid	0.3999272490000294	53248	0	1	1	53248	1	53248	1	53248	1	0.7	53248	brown	green	1	0	ml	2.7.3	lorasick	sub-05_ses-01_task-ml_proj-lorasick_2020-12-01-14-17-37.181235
69	5	1	2	70	volatile	3	20	10	vs	brown	green	brown	green	left	right	0.7	0.30000000000000004	6	2	4.199999999999998	0.6000000000000001	1	0	0.7	0.30000000000000004	6	2	4.199999999999998	0.6000000000000001	valid	0.4665694809991692	53248	0	1	2	51200	0	51200	0	51200	0	0.7	51200	brown	green	1	0	ml	2.7.3	lorasick	sub-05_ses-01_task-ml_proj-lorasick_2020-12-01-14-17-37.181235
70	5	1	2	71	volatile	3	20	11	vs	green	brown	brown	green	right	left	0.7	0.30000000000000004	6	4	4.199999999999998	1.2000000000000002	1	0	0.30000000000000004	0.7	4	6	1.2000000000000002	4.199999999999998	valid	1.4829259309990448	51200	0	0	2	53248	0	53248	0	53248	0	0.7	53248	brown	green	1	0	ml	2.7.3	lorasick	sub-05_ses-01_task-ml_proj-lorasick_2020-12-01-14-17-37.181235
71	5	1	2	72	volatile	3	20	12	vs	brown	green	brown	green	left	right	0.7	0.30000000000000004	4	6	2.8	1.8000000000000005	1	0	0.7	0.30000000000000004	4	6	2.8	1.8000000000000005	valid	0.7498240050008462	53248	0	1	2	51200	0	51200	0	53248	1	0.7	51200	brown	green	0	0	ml	2.7.3	lorasick	sub-05_ses-01_task-ml_proj-lorasick_2020-12-01-14-17-37.181235
72	5	1	2	73	volatile	3	20	13	vs	green	brown	brown	green	right	left	0.7	0.30000000000000004	2	10	1.4	3.0000000000000004	1	0	0.30000000000000004	0.7	10	2	3.0000000000000004	1.4	valid	0.5165539560002799	53248	0	1	1	51200	0	53248	1	51200	0	0.7	53248	brown	green	0	2	ml	2.7.3	lorasick	sub-05_ses-01_task-ml_proj-lorasick_2020-12-01-14-17-37.181235
73	5	1	2	74	volatile	3	20	14	vs	green	brown	brown	green	right	left	0.7	0.30000000000000004	2	2	1.4	0.6000000000000001	1	0	0.30000000000000004	0.7	2	2	0.6000000000000001	1.4	valid	0.4998925109975971	53248	0	1	1	53248	1	53248	1	53248	1	0.7	53248	brown	green	0	2	ml	2.7.3	lorasick	sub-05_ses-01_task-ml_proj-lorasick_2020-12-01-14-17-37.181235
74	5	1	2	75	volatile	3	20	15	vs	brown	green	brown	green	left	right	0.7	0.30000000000000004	6	4	4.199999999999998	1.2000000000000002	1	0	0.7	0.30000000000000004	6	4	4.199999999999998	1.2000000000000002	valid	0.5332044630013115	51200	0	0	1	51200	1	51200	1	51200	1	0.7	51200	brown	green	1	6	ml	2.7.3	lorasick	sub-05_ses-01_task-ml_proj-lorasick_2020-12-01-14-17-37.181235
75	5	1	2	76	volatile	3	20	16	vs	brown	green	brown	green	left	right	0.7	0.30000000000000004	2	2	1.4	0.6000000000000001	0	1	0.7	0.30000000000000004	2	2	1.4	0.6000000000000001	invalid	0.4998803609996685	51200	0	0	1	51200	1	51200	1	53248	0	0.7	51200	brown	green	1	0	ml	2.7.3	lorasick	sub-05_ses-01_task-ml_proj-lorasick_2020-12-01-14-17-37.181235
76	5	1	2	77	volatile	3	20	17	vs	green	brown	brown	green	right	left	0.7	0.30000000000000004	4	6	2.8	1.8000000000000005	1	0	0.30000000000000004	0.7	6	4	1.8000000000000005	2.8	valid	0.416585541999666	53248	0	1	1	53248	1	53248	1	51200	0	0.7	53248	brown	green	0	4	ml	2.7.3	lorasick	sub-05_ses-01_task-ml_proj-lorasick_2020-12-01-14-17-37.181235
77	5	1	2	78	volatile	3	20	18	vs	green	brown	brown	green	right	left	0.7	0.30000000000000004	10	2	7.0	0.6000000000000001	1	0	0.30000000000000004	0.7	2	10	0.6000000000000001	7.0	valid	0.4165835750027327	53248	0	1	1	53248	1	53248	1	53248	1	0.7	53248	brown	green	1	10	ml	2.7.3	lorasick	sub-05_ses-01_task-ml_proj-lorasick_2020-12-01-14-17-37.181235
78	5	1	2	79	volatile	3	20	19	vs	green	brown	brown	green	right	left	0.7	0.30000000000000004	4	2	2.8	0.6000000000000001	0	1	0.30000000000000004	0.7	2	4	0.6000000000000001	2.8	invalid	0.3999253929978295	53248	0	1	1	53248	1	53248	1	53248	1	0.7	53248	brown	green	1	0	ml	2.7.3	lorasick	sub-05_ses-01_task-ml_proj-lorasick_2020-12-01-14-17-37.181235
79	5	1	2	80	volatile	3	20	20	vs	green	brown	brown	green	right	left	0.7	0.30000000000000004	6	6	4.199999999999998	1.8000000000000005	1	0	0.30000000000000004	0.7	6	6	1.8000000000000005	4.199999999999998	valid	0.3665941899998871	53248	0	1	1	53248	1	53248	1	53248	1	0.7	53248	brown	green	0	6	ml	2.7.3	lorasick	sub-05_ses-01_task-ml_proj-lorasick_2020-12-01-14-17-37.181235
80	5	1	2	81	volatile	4	20	1	vs	green	brown	brown	green	right	left	0.30000000000000004	0.7	2	2	0.6000000000000001	1.4	0	1	0.7	0.30000000000000004	2	2	1.4	0.6000000000000001	valid	0.3832587959986995	53248	0	1	1	51200	0	51200	0	53248	1	0.7	51200	green	brown	1	0	ml	2.7.3	lorasick	sub-05_ses-01_task-ml_proj-lorasick_2020-12-01-14-17-37.181235
81	5	1	2	82	volatile	4	20	2	vs	green	brown	brown	green	right	left	0.30000000000000004	0.7	2	10	0.6000000000000001	7.0	0	1	0.7	0.30000000000000004	10	2	7.0	0.6000000000000001	valid	0.5165552010003012	53248	0	1	1	51200	0	51200	0	51200	0	0.7	51200	green	brown	1	0	ml	2.7.3	lorasick	sub-05_ses-01_task-ml_proj-lorasick_2020-12-01-14-17-37.181235
82	5	1	2	83	volatile	4	20	3	vs	green	brown	brown	green	right	left	0.30000000000000004	0.7	6	2	1.8000000000000005	1.4	1	0	0.7	0.30000000000000004	2	6	1.4	1.8000000000000005	invalid	0.4332428980014811	53248	0	1	1	53248	1	51200	0	53248	1	0.7	51200	green	brown	0	6	ml	2.7.3	lorasick	sub-05_ses-01_task-ml_proj-lorasick_2020-12-01-14-17-37.181235
83	5	1	2	84	volatile	4	20	4	vs	green	brown	brown	green	right	left	0.30000000000000004	0.7	6	6	1.8000000000000005	4.199999999999998	0	1	0.7	0.30000000000000004	6	6	4.199999999999998	1.8000000000000005	valid	0.4832301090027613	53248	0	1	1	51200	0	51200	0	53248	1	0.7	51200	green	brown	1	0	ml	2.7.3	lorasick	sub-05_ses-01_task-ml_proj-lorasick_2020-12-01-14-17-37.181235
84	5	1	2	85	volatile	4	20	5	vs	brown	green	brown	green	left	right	0.30000000000000004	0.7	6	4	1.8000000000000005	2.8	0	1	0.30000000000000004	0.7	6	4	1.8000000000000005	2.8	valid	0.4665714660004596	53248	0	1	2	53248	1	53248	1	51200	0	0.7	53248	green	brown	0	4	ml	2.7.3	lorasick	sub-05_ses-01_task-ml_proj-lorasick_2020-12-01-14-17-37.181235
85	5	1	2	86	volatile	4	20	6	vs	brown	green	brown	green	left	right	0.30000000000000004	0.7	4	6	1.2000000000000002	4.199999999999998	1	0	0.30000000000000004	0.7	4	6	1.2000000000000002	4.199999999999998	invalid	0.4665690300025744	53248	0	1	2	53248	1	53248	1	53248	1	0.7	53248	green	brown	1	0	ml	2.7.3	lorasick	sub-05_ses-01_task-ml_proj-lorasick_2020-12-01-14-17-37.181235
86	5	1	2	87	volatile	4	20	7	vs	brown	green	brown	green	left	right	0.30000000000000004	0.7	6	6	1.8000000000000005	4.199999999999998	0	1	0.30000000000000004	0.7	6	6	1.8000000000000005	4.199999999999998	valid	0.43324566800220055	53248	0	1	2	53248	1	53248	1	53248	1	0.7	53248	green	brown	0	6	ml	2.7.3	lorasick	sub-05_ses-01_task-ml_proj-lorasick_2020-12-01-14-17-37.181235
87	5	1	2	88	volatile	4	20	8	vs	green	brown	brown	green	right	left	0.30000000000000004	0.7	10	2	3.0000000000000004	1.4	0	1	0.7	0.30000000000000004	2	10	1.4	3.0000000000000004	valid	0.6165153140027542	51200	0	0	2	53248	0	51200	1	53248	0	0.7	51200	green	brown	0	2	ml	2.7.3	lorasick	sub-05_ses-01_task-ml_proj-lorasick_2020-12-01-14-17-37.181235
88	5	1	2	89	volatile	4	20	9	vs	brown	green	brown	green	left	right	0.30000000000000004	0.7	2	2	0.6000000000000001	1.4	0	1	0.30000000000000004	0.7	2	2	0.6000000000000001	1.4	valid	0.4165832600010617	53248	0	1	2	53248	1	53248	1	53248	1	0.7	53248	green	brown	0	2	ml	2.7.3	lorasick	sub-05_ses-01_task-ml_proj-lorasick_2020-12-01-14-17-37.181235
89	5	1	2	90	volatile	4	20	10	vs	green	brown	brown	green	right	left	0.30000000000000004	0.7	2	4	0.6000000000000001	2.8	1	0	0.7	0.30000000000000004	4	2	2.8	0.6000000000000001	invalid	0.4498959709999326	51200	0	0	2	51200	1	51200	1	51200	1	0.7	51200	green	brown	1	0	ml	2.7.3	lorasick	sub-05_ses-01_task-ml_proj-lorasick_2020-12-01-14-17-37.181235
90	5	1	2	91	volatile	4	20	11	vs	brown	green	brown	green	left	right	0.30000000000000004	0.7	6	2	1.8000000000000005	1.4	0	1	0.30000000000000004	0.7	6	2	1.8000000000000005	1.4	valid	0.5165506720004487	53248	0	1	2	51200	0	53248	1	51200	0	0.7	53248	green	brown	0	2	ml	2.7.3	lorasick	sub-05_ses-01_task-ml_proj-lorasick_2020-12-01-14-17-37.181235
91	5	1	2	92	volatile	4	20	12	vs	green	brown	brown	green	right	left	0.30000000000000004	0.7	2	4	0.6000000000000001	2.8	0	1	0.7	0.30000000000000004	4	2	2.8	0.6000000000000001	valid	0.4165758550007013	51200	0	0	2	51200	1	51200	1	51200	1	0.7	51200	green	brown	1	4	ml	2.7.3	lorasick	sub-05_ses-01_task-ml_proj-lorasick_2020-12-01-14-17-37.181235
92	5	1	2	93	volatile	4	20	13	vs	brown	green	brown	green	left	right	0.30000000000000004	0.7	2	4	0.6000000000000001	2.8	0	1	0.30000000000000004	0.7	2	4	0.6000000000000001	2.8	valid	0.4665530720012612	53248	0	1	2	53248	1	53248	1	53248	1	0.7	53248	green	brown	1	4	ml	2.7.3	lorasick	sub-05_ses-01_task-ml_proj-lorasick_2020-12-01-14-17-37.181235
93	5	1	2	94	volatile	4	20	14	vs	green	brown	brown	green	right	left	0.30000000000000004	0.7	6	4	1.8000000000000005	2.8	0	1	0.7	0.30000000000000004	4	6	2.8	1.8000000000000005	valid	0.5332064930007618	51200	0	0	2	51200	1	51200	1	53248	0	0.7	51200	green	brown	0	4	ml	2.7.3	lorasick	sub-05_ses-01_task-ml_proj-lorasick_2020-12-01-14-17-37.181235
94	5	1	2	95	volatile	4	20	15	vs	brown	green	brown	green	left	right	0.30000000000000004	0.7	6	2	1.8000000000000005	1.4	0	1	0.30000000000000004	0.7	6	2	1.8000000000000005	1.4	valid	0.516554335001274	53248	0	1	2	51200	0	53248	1	51200	0	0.7	53248	green	brown	0	2	ml	2.7.3	lorasick	sub-05_ses-01_task-ml_proj-lorasick_2020-12-01-14-17-37.181235
95	5	1	2	96	volatile	4	20	16	vs	brown	green	brown	green	left	right	0.30000000000000004	0.7	2	4	0.6000000000000001	2.8	1	0	0.30000000000000004	0.7	2	4	0.6000000000000001	2.8	invalid	0.4165909469993494	53248	0	1	2	53248	1	53248	1	53248	1	0.7	53248	green	brown	1	0	ml	2.7.3	lorasick	sub-05_ses-01_task-ml_proj-lorasick_2020-12-01-14-17-37.181235
96	5	1	2	97	volatile	4	20	17	vs	green	brown	brown	green	right	left	0.30000000000000004	0.7	2	10	0.6000000000000001	7.0	1	0	0.7	0.30000000000000004	10	2	7.0	0.6000000000000001	invalid	0.483220304002316	51200	0	0	2	51200	1	51200	1	51200	1	0.7	51200	green	brown	1	0	ml	2.7.3	lorasick	sub-05_ses-01_task-ml_proj-lorasick_2020-12-01-14-17-37.181235
97	5	1	2	98	volatile	4	20	18	vs	brown	green	brown	green	left	right	0.30000000000000004	0.7	2	10	0.6000000000000001	7.0	0	1	0.30000000000000004	0.7	2	10	0.6000000000000001	7.0	valid	0.6331788470015454	51200	0	0	1	53248	0	53248	0	53248	0	0.7	53248	green	brown	1	0	ml	2.7.3	lorasick	sub-05_ses-01_task-ml_proj-lorasick_2020-12-01-14-17-37.181235
98	5	1	2	99	volatile	4	20	19	vs	brown	green	brown	green	left	right	0.30000000000000004	0.7	6	4	1.8000000000000005	2.8	1	0	0.30000000000000004	0.7	6	4	1.8000000000000005	2.8	invalid	0.4332336519983073	51200	0	0	1	53248	0	53248	0	51200	1	0.7	53248	green	brown	0	6	ml	2.7.3	lorasick	sub-05_ses-01_task-ml_proj-lorasick_2020-12-01-14-17-37.181235
99	5	1	2	100	volatile	4	20	20	vs	green	brown	brown	green	right	left	0.30000000000000004	0.7	6	2	1.8000000000000005	1.4	0	1	0.7	0.30000000000000004	2	6	1.4	1.8000000000000005	valid	0.4499044510012027	53248	0	1	1	53248	1	51200	0	53248	1	0.7	51200	green	brown	0	0	ml	2.7.3	lorasick	sub-05_ses-01_task-ml_proj-lorasick_2020-12-01-14-17-37.181235
100	5	1	3	101	volatile	5	40	1	vs	brown	green	brown	green	left	right	0.7	0.30000000000000004	2	10	1.4	3.0000000000000004	1	0	0.7	0.30000000000000004	2	10	1.4	3.0000000000000004	valid	0.6665137499985576	53248	0	1	2	53248	1	51200	0	53248	1	0.7	51200	brown	green	0	0	ml	2.7.3	lorasick	sub-05_ses-01_task-ml_proj-lorasick_2020-12-01-14-17-37.181235
101	5	1	3	102	volatile	5	40	2	vs	brown	green	brown	green	left	right	0.7	0.30000000000000004	6	2	4.199999999999998	0.6000000000000001	1	0	0.7	0.30000000000000004	6	2	4.199999999999998	0.6000000000000001	valid	0.4998809950011491	51200	0	0	1	51200	1	51200	1	51200	1	0.7	51200	brown	green	1	6	ml	2.7.3	lorasick	sub-05_ses-01_task-ml_proj-lorasick_2020-12-01-14-17-37.181235
102	5	1	3	103	volatile	5	40	3	vs	green	brown	brown	green	right	left	0.7	0.30000000000000004	2	2	1.4	0.6000000000000001	1	0	0.30000000000000004	0.7	2	2	0.6000000000000001	1.4	valid	0.4332427320005081	53248	0	1	1	53248	1	53248	1	53248	1	0.7	53248	brown	green	0	2	ml	2.7.3	lorasick	sub-05_ses-01_task-ml_proj-lorasick_2020-12-01-14-17-37.181235
103	5	1	3	104	volatile	5	40	4	vs	brown	green	brown	green	left	right	0.7	0.30000000000000004	6	6	4.199999999999998	1.8000000000000005	0	1	0.7	0.30000000000000004	6	6	4.199999999999998	1.8000000000000005	invalid	0.4832211469984031	51200	0	0	1	51200	1	51200	1	53248	0	0.7	51200	brown	green	1	0	ml	2.7.3	lorasick	sub-05_ses-01_task-ml_proj-lorasick_2020-12-01-14-17-37.181235
104	5	1	3	105	volatile	5	40	5	vs	brown	green	brown	green	left	right	0.7	0.30000000000000004	6	6	4.199999999999998	1.8000000000000005	1	0	0.7	0.30000000000000004	6	6	4.199999999999998	1.8000000000000005	valid	0.5165461100004904	51200	0	0	1	51200	1	51200	1	53248	0	0.7	51200	brown	green	1	6	ml	2.7.3	lorasick	sub-05_ses-01_task-ml_proj-lorasick_2020-12-01-14-17-37.181235
105	5	1	3	106	volatile	5	40	6	vs	brown	green	brown	green	left	right	0.7	0.30000000000000004	6	4	4.199999999999998	1.2000000000000002	1	0	0.7	0.30000000000000004	6	4	4.199999999999998	1.2000000000000002	valid	0.4998805830000492	51200	0	0	1	51200	1	51200	1	51200	1	0.7	51200	brown	green	1	6	ml	2.7.3	lorasick	sub-05_ses-01_task-ml_proj-lorasick_2020-12-01-14-17-37.181235
106	5	1	3	107	volatile	5	40	7	vs	green	brown	brown	green	right	left	0.7	0.30000000000000004	2	2	1.4	0.6000000000000001	1	0	0.30000000000000004	0.7	2	2	0.6000000000000001	1.4	valid	0.3832597430009628	53248	0	1	1	53248	1	53248	1	53248	1	0.7	53248	brown	green	0	2	ml	2.7.3	lorasick	sub-05_ses-01_task-ml_proj-lorasick_2020-12-01-14-17-37.181235
107	5	1	3	108	volatile	5	40	8	vs	brown	green	brown	green	left	right	0.7	0.30000000000000004	10	2	7.0	0.6000000000000001	0	1	0.7	0.30000000000000004	10	2	7.0	0.6000000000000001	invalid	0.483218969002337	51200	0	0	1	51200	1	51200	1	51200	1	0.7	51200	brown	green	1	0	ml	2.7.3	lorasick	sub-05_ses-01_task-ml_proj-lorasick_2020-12-01-14-17-37.181235
108	5	1	3	109	volatile	5	40	9	vs	brown	green	brown	green	left	right	0.7	0.30000000000000004	2	10	1.4	3.0000000000000004	1	0	0.7	0.30000000000000004	2	10	1.4	3.0000000000000004	valid	0.6498388159998285	51200	0	0	1	53248	0	51200	1	53248	0	0.7	51200	brown	green	0	2	ml	2.7.3	lorasick	sub-05_ses-01_task-ml_proj-lorasick_2020-12-01-14-17-37.181235
109	5	1	3	110	volatile	5	40	10	vs	brown	green	brown	green	left	right	0.7	0.30000000000000004	4	2	2.8	0.6000000000000001	1	0	0.7	0.30000000000000004	4	2	2.8	0.6000000000000001	valid	0.4165822680006386	51200	0	0	1	51200	1	51200	1	51200	1	0.7	51200	brown	green	1	4	ml	2.7.3	lorasick	sub-05_ses-01_task-ml_proj-lorasick_2020-12-01-14-17-37.181235
110	5	1	3	111	volatile	5	40	11	vs	green	brown	brown	green	right	left	0.7	0.30000000000000004	4	2	2.8	0.6000000000000001	1	0	0.30000000000000004	0.7	2	4	0.6000000000000001	2.8	valid	0.3999229000000923	53248	0	1	1	53248	1	53248	1	53248	1	0.7	53248	brown	green	1	4	ml	2.7.3	lorasick	sub-05_ses-01_task-ml_proj-lorasick_2020-12-01-14-17-37.181235
111	5	1	3	112	volatile	5	40	12	vs	green	brown	brown	green	right	left	0.7	0.30000000000000004	2	10	1.4	3.0000000000000004	0	1	0.30000000000000004	0.7	10	2	3.0000000000000004	1.4	invalid	0.3999126290000277	53248	0	1	1	51200	0	53248	1	51200	0	0.7	53248	brown	green	0	0	ml	2.7.3	lorasick	sub-05_ses-01_task-ml_proj-lorasick_2020-12-01-14-17-37.181235
112	5	1	3	113	volatile	5	40	13	vs	brown	green	brown	green	left	right	0.7	0.30000000000000004	4	6	2.8	1.8000000000000005	1	0	0.7	0.30000000000000004	4	6	2.8	1.8000000000000005	valid	0.4332458749995567	53248	0	1	2	51200	0	51200	0	53248	1	0.7	51200	brown	green	0	0	ml	2.7.3	lorasick	sub-05_ses-01_task-ml_proj-lorasick_2020-12-01-14-17-37.181235
113	5	1	3	114	volatile	5	40	14	vs	green	brown	brown	green	right	left	0.7	0.30000000000000004	6	6	4.199999999999998	1.8000000000000005	1	0	0.30000000000000004	0.7	6	6	1.8000000000000005	4.199999999999998	valid	0.3832502040022519	51200	0	0	2	53248	0	53248	0	53248	0	0.7	53248	brown	green	0	0	ml	2.7.3	lorasick	sub-05_ses-01_task-ml_proj-lorasick_2020-12-01-14-17-37.181235
114	5	1	3	115	volatile	5	40	15	vs	brown	green	brown	green	left	right	0.7	0.30000000000000004	6	6	4.199999999999998	1.8000000000000005	0	1	0.7	0.30000000000000004	6	6	4.199999999999998	1.8000000000000005	invalid	0.4332326869989629	51200	0	0	1	51200	1	51200	1	53248	0	0.7	51200	brown	green	1	0	ml	2.7.3	lorasick	sub-05_ses-01_task-ml_proj-lorasick_2020-12-01-14-17-37.181235
115	5	1	3	116	volatile	5	40	16	vs	green	brown	brown	green	right	left	0.7	0.30000000000000004	2	4	1.4	1.2000000000000002	0	1	0.30000000000000004	0.7	4	2	1.2000000000000002	1.4	invalid	0.4499061509995954	53248	0	1	1	53248	1	53248	1	51200	0	0.7	53248	brown	green	0	0	ml	2.7.3	lorasick	sub-05_ses-01_task-ml_proj-lorasick_2020-12-01-14-17-37.181235
116	5	1	3	117	volatile	5	40	17	vs	brown	green	brown	green	left	right	0.7	0.30000000000000004	2	10	1.4	3.0000000000000004	1	0	0.7	0.30000000000000004	2	10	1.4	3.0000000000000004	valid	0.4165835430030711	53248	0	1	2	53248	1	51200	0	53248	1	0.7	51200	brown	green	0	0	ml	2.7.3	lorasick	sub-05_ses-01_task-ml_proj-lorasick_2020-12-01-14-17-37.181235
117	5	1	3	118	volatile	5	40	18	vs	green	brown	brown	green	right	left	0.7	0.30000000000000004	4	6	2.8	1.8000000000000005	1	0	0.30000000000000004	0.7	6	4	1.8000000000000005	2.8	valid	0.5998539620013617	51200	0	0	2	53248	0	53248	0	51200	1	0.7	53248	brown	green	0	0	ml	2.7.3	lorasick	sub-05_ses-01_task-ml_proj-lorasick_2020-12-01-14-17-37.181235
118	5	1	3	119	volatile	5	40	19	vs	brown	green	brown	green	left	right	0.7	0.30000000000000004	2	4	1.4	1.2000000000000002	1	0	0.7	0.30000000000000004	2	4	1.4	1.2000000000000002	valid	0.4165694190014619	51200	0	0	1	51200	1	51200	1	53248	0	0.7	51200	brown	green	0	2	ml	2.7.3	lorasick	sub-05_ses-01_task-ml_proj-lorasick_2020-12-01-14-17-37.181235
119	5	1	3	120	volatile	5	40	20	vs	green	brown	brown	green	right	left	0.7	0.30000000000000004	6	4	4.199999999999998	1.2000000000000002	1	0	0.30000000000000004	0.7	4	6	1.2000000000000002	4.199999999999998	valid	0.3832668979994196	53248	0	1	1	53248	1	53248	1	53248	1	0.7	53248	brown	green	1	6	ml	2.7.3	lorasick	sub-05_ses-01_task-ml_proj-lorasick_2020-12-01-14-17-37.181235
120	5	1	3	121	volatile	5	40	21	vs	green	brown	brown	green	right	left	0.7	0.30000000000000004	4	2	2.8	0.6000000000000001	1	0	0.30000000000000004	0.7	2	4	0.6000000000000001	2.8	valid	1.0997175500015146	53248	0	1	1	53248	1	53248	1	53248	1	0.7	53248	brown	green	1	4	ml	2.7.3	lorasick	sub-05_ses-01_task-ml_proj-lorasick_2020-12-01-14-17-37.181235
121	5	1	3	122	volatile	5	40	22	vs	green	brown	brown	green	right	left	0.7	0.30000000000000004	2	2	1.4	0.6000000000000001	0	1	0.30000000000000004	0.7	2	2	0.6000000000000001	1.4	invalid	0.5665331159980269	53248	0	1	1	53248	1	53248	1	53248	1	0.7	53248	brown	green	0	0	ml	2.7.3	lorasick	sub-05_ses-01_task-ml_proj-lorasick_2020-12-01-14-17-37.181235
122	5	1	3	123	volatile	5	40	23	vs	brown	green	brown	green	left	right	0.7	0.30000000000000004	4	6	2.8	1.8000000000000005	0	1	0.7	0.30000000000000004	4	6	2.8	1.8000000000000005	invalid	0.4665632710020873	51200	0	0	1	51200	1	51200	1	53248	0	0.7	51200	brown	green	0	0	ml	2.7.3	lorasick	sub-05_ses-01_task-ml_proj-lorasick_2020-12-01-14-17-37.181235
123	5	1	3	124	volatile	5	40	24	vs	green	brown	brown	green	right	left	0.7	0.30000000000000004	2	10	1.4	3.0000000000000004	0	1	0.30000000000000004	0.7	10	2	3.0000000000000004	1.4	invalid	0.3832648200004769	51200	0	0	2	51200	1	53248	0	51200	1	0.7	53248	brown	green	0	10	ml	2.7.3	lorasick	sub-05_ses-01_task-ml_proj-lorasick_2020-12-01-14-17-37.181235
124	5	1	3	125	volatile	5	40	25	vs	brown	green	brown	green	left	right	0.7	0.30000000000000004	4	6	2.8	1.8000000000000005	1	0	0.7	0.30000000000000004	4	6	2.8	1.8000000000000005	valid	0.41658372600068105	53248	0	1	2	51200	0	51200	0	53248	1	0.7	51200	brown	green	0	0	ml	2.7.3	lorasick	sub-05_ses-01_task-ml_proj-lorasick_2020-12-01-14-17-37.181235
125	5	1	3	126	volatile	5	40	26	vs	brown	green	brown	green	left	right	0.7	0.30000000000000004	6	2	4.199999999999998	0.6000000000000001	1	0	0.7	0.30000000000000004	6	2	4.199999999999998	0.6000000000000001	valid	1.3329779420018897	53248	0	1	2	51200	0	51200	0	51200	0	0.7	51200	brown	green	1	0	ml	2.7.3	lorasick	sub-05_ses-01_task-ml_proj-lorasick_2020-12-01-14-17-37.181235
126	5	1	3	127	volatile	5	40	27	vs	green	brown	brown	green	right	left	0.7	0.30000000000000004	6	2	4.199999999999998	0.6000000000000001	1	0	0.30000000000000004	0.7	2	6	0.6000000000000001	4.199999999999998	valid	0.7831446829986817	53248	0	1	1	53248	1	53248	1	53248	1	0.7	53248	brown	green	1	6	ml	2.7.3	lorasick	sub-05_ses-01_task-ml_proj-lorasick_2020-12-01-14-17-37.181235
127	5	1	3	128	volatile	5	40	28	vs	green	brown	brown	green	right	left	0.7	0.30000000000000004	2	6	1.4	1.8000000000000005	1	0	0.30000000000000004	0.7	6	2	1.8000000000000005	1.4	valid	0.8664478430000601	53248	0	1	1	51200	0	53248	1	51200	0	0.7	53248	brown	green	0	2	ml	2.7.3	lorasick	sub-05_ses-01_task-ml_proj-lorasick_2020-12-01-14-17-37.181235
128	5	1	3	129	volatile	5	40	29	vs	brown	green	brown	green	left	right	0.7	0.30000000000000004	4	2	2.8	0.6000000000000001	0	1	0.7	0.30000000000000004	4	2	2.8	0.6000000000000001	invalid	0.6165176510003221	51200	0	0	1	51200	1	51200	1	51200	1	0.7	51200	brown	green	1	0	ml	2.7.3	lorasick	sub-05_ses-01_task-ml_proj-lorasick_2020-12-01-14-17-37.181235
129	5	1	3	130	volatile	5	40	30	vs	brown	green	brown	green	left	right	0.7	0.30000000000000004	2	2	1.4	0.6000000000000001	1	0	0.7	0.30000000000000004	2	2	1.4	0.6000000000000001	valid	0.5332069229989429	51200	0	0	1	51200	1	51200	1	53248	0	0.7	51200	brown	green	1	2	ml	2.7.3	lorasick	sub-05_ses-01_task-ml_proj-lorasick_2020-12-01-14-17-37.181235
130	5	1	3	131	volatile	5	40	31	vs	green	brown	brown	green	right	left	0.7	0.30000000000000004	4	2	2.8	0.6000000000000001	0	1	0.30000000000000004	0.7	2	4	0.6000000000000001	2.8	invalid	0.4998962249992474	53248	0	1	1	53248	1	53248	1	53248	1	0.7	53248	brown	green	1	0	ml	2.7.3	lorasick	sub-05_ses-01_task-ml_proj-lorasick_2020-12-01-14-17-37.181235
131	5	1	3	132	volatile	5	40	32	vs	brown	green	brown	green	left	right	0.7	0.30000000000000004	2	6	1.4	1.8000000000000005	1	0	0.7	0.30000000000000004	2	6	1.4	1.8000000000000005	valid	0.34992630000124336	51200	0	0	1	53248	0	51200	1	53248	0	0.7	51200	brown	green	0	2	ml	2.7.3	lorasick	sub-05_ses-01_task-ml_proj-lorasick_2020-12-01-14-17-37.181235
132	5	1	3	133	volatile	5	40	33	vs	green	brown	brown	green	right	left	0.7	0.30000000000000004	2	4	1.4	1.2000000000000002	1	0	0.30000000000000004	0.7	4	2	1.2000000000000002	1.4	valid	0.4832239380011743	53248	0	1	1	53248	1	53248	1	51200	0	0.7	53248	brown	green	0	2	ml	2.7.3	lorasick	sub-05_ses-01_task-ml_proj-lorasick_2020-12-01-14-17-37.181235
133	5	1	3	134	volatile	5	40	34	vs	green	brown	brown	green	right	left	0.7	0.30000000000000004	6	2	4.199999999999998	0.6000000000000001	1	0	0.30000000000000004	0.7	2	6	0.6000000000000001	4.199999999999998	valid	0.4665697519994865	53248	0	1	1	53248	1	53248	1	53248	1	0.7	53248	brown	green	1	6	ml	2.7.3	lorasick	sub-05_ses-01_task-ml_proj-lorasick_2020-12-01-14-17-37.181235
134	5	1	3	135	volatile	5	40	35	vs	brown	green	brown	green	left	right	0.7	0.30000000000000004	6	4	4.199999999999998	1.2000000000000002	1	0	0.7	0.30000000000000004	6	4	4.199999999999998	1.2000000000000002	valid	0.43323828400025377	51200	0	0	1	51200	1	51200	1	51200	1	0.7	51200	brown	green	1	6	ml	2.7.3	lorasick	sub-05_ses-01_task-ml_proj-lorasick_2020-12-01-14-17-37.181235
135	5	1	3	136	volatile	5	40	36	vs	brown	green	brown	green	left	right	0.7	0.30000000000000004	2	6	1.4	1.8000000000000005	0	1	0.7	0.30000000000000004	2	6	1.4	1.8000000000000005	invalid	1.0330656030018872	51200	0	0	1	53248	0	51200	1	53248	0	0.7	51200	brown	green	0	0	ml	2.7.3	lorasick	sub-05_ses-01_task-ml_proj-lorasick_2020-12-01-14-17-37.181235
136	5	1	3	137	volatile	5	40	37	vs	green	brown	brown	green	right	left	0.7	0.30000000000000004	4	6	2.8	1.8000000000000005	0	1	0.30000000000000004	0.7	6	4	1.8000000000000005	2.8	invalid	0.8831143770003109	53248	0	1	1	53248	1	53248	1	51200	0	0.7	53248	brown	green	0	0	ml	2.7.3	lorasick	sub-05_ses-01_task-ml_proj-lorasick_2020-12-01-14-17-37.181235
137	5	1	3	138	volatile	5	40	38	vs	green	brown	brown	green	right	left	0.7	0.30000000000000004	2	6	1.4	1.8000000000000005	1	0	0.30000000000000004	0.7	6	2	1.8000000000000005	1.4	valid	0.7997972369994386	51200	0	0	2	51200	1	53248	0	51200	1	0.7	53248	brown	green	0	0	ml	2.7.3	lorasick	sub-05_ses-01_task-ml_proj-lorasick_2020-12-01-14-17-37.181235
138	5	1	3	139	volatile	5	40	39	vs	green	brown	brown	green	right	left	0.7	0.30000000000000004	10	2	7.0	0.6000000000000001	1	0	0.30000000000000004	0.7	2	10	0.6000000000000001	7.0	valid	0.6498627309993026	53248	0	1	1	53248	1	53248	1	53248	1	0.7	53248	brown	green	1	10	ml	2.7.3	lorasick	sub-05_ses-01_task-ml_proj-lorasick_2020-12-01-14-17-37.181235
139	5	1	3	140	volatile	5	40	40	vs	green	brown	brown	green	right	left	0.7	0.30000000000000004	2	10	1.4	3.0000000000000004	1	0	0.30000000000000004	0.7	10	2	3.0000000000000004	1.4	valid	0.6998308149995864	53248	0	1	1	51200	0	53248	1	51200	0	0.7	53248	brown	green	0	2	ml	2.7.3	lorasick	sub-05_ses-01_task-ml_proj-lorasick_2020-12-01-14-17-37.181235
140	5	1	3	141	volatile	6	20	1	vs	brown	green	brown	green	left	right	0.30000000000000004	0.7	2	10	0.6000000000000001	7.0	1	0	0.30000000000000004	0.7	2	10	0.6000000000000001	7.0	invalid	0.6331790580006782	51200	0	0	1	53248	0	53248	0	53248	0	0.7	53248	green	brown	1	2	ml	2.7.3	lorasick	sub-05_ses-01_task-ml_proj-lorasick_2020-12-01-14-17-37.181235
141	5	1	3	142	volatile	6	20	2	vs	brown	green	brown	green	left	right	0.30000000000000004	0.7	2	6	0.6000000000000001	4.199999999999998	0	1	0.30000000000000004	0.7	2	6	0.6000000000000001	4.199999999999998	valid	0.6165126529995177	51200	0	0	1	53248	0	53248	0	53248	0	0.7	53248	green	brown	1	0	ml	2.7.3	lorasick	sub-05_ses-01_task-ml_proj-lorasick_2020-12-01-14-17-37.181235
142	5	1	3	143	volatile	6	20	3	vs	green	brown	brown	green	right	left	0.30000000000000004	0.7	2	2	0.6000000000000001	1.4	1	0	0.7	0.30000000000000004	2	2	1.4	0.6000000000000001	invalid	0.4832196780007507	51200	0	0	2	51200	1	51200	1	53248	0	0.7	51200	green	brown	1	0	ml	2.7.3	lorasick	sub-05_ses-01_task-ml_proj-lorasick_2020-12-01-14-17-37.181235
143	5	1	3	144	volatile	6	20	4	vs	brown	green	brown	green	left	right	0.30000000000000004	0.7	6	4	1.8000000000000005	2.8	0	1	0.30000000000000004	0.7	6	4	1.8000000000000005	2.8	valid	0.4499194950003584	53248	0	1	2	53248	1	53248	1	51200	0	0.7	53248	green	brown	0	4	ml	2.7.3	lorasick	sub-05_ses-01_task-ml_proj-lorasick_2020-12-01-14-17-37.181235
144	5	1	3	145	volatile	6	20	5	vs	green	brown	brown	green	right	left	0.30000000000000004	0.7	2	2	0.6000000000000001	1.4	0	1	0.7	0.30000000000000004	2	2	1.4	0.6000000000000001	valid	0.4998831519988016	51200	0	0	2	51200	1	51200	1	53248	0	0.7	51200	green	brown	1	2	ml	2.7.3	lorasick	sub-05_ses-01_task-ml_proj-lorasick_2020-12-01-14-17-37.181235
145	5	1	3	146	volatile	6	20	6	vs	green	brown	brown	green	right	left	0.30000000000000004	0.7	6	4	1.8000000000000005	2.8	0	1	0.7	0.30000000000000004	4	6	2.8	1.8000000000000005	valid	0.4665596560007543	51200	0	0	2	51200	1	51200	1	53248	0	0.7	51200	green	brown	0	4	ml	2.7.3	lorasick	sub-05_ses-01_task-ml_proj-lorasick_2020-12-01-14-17-37.181235
146	5	1	3	147	volatile	6	20	7	vs	brown	green	brown	green	left	right	0.30000000000000004	0.7	10	2	3.0000000000000004	1.4	0	1	0.30000000000000004	0.7	10	2	3.0000000000000004	1.4	valid	0.5665397750017291	53248	0	1	2	51200	0	53248	1	51200	0	0.7	53248	green	brown	0	2	ml	2.7.3	lorasick	sub-05_ses-01_task-ml_proj-lorasick_2020-12-01-14-17-37.181235
147	5	1	3	148	volatile	6	20	8	vs	green	brown	brown	green	right	left	0.30000000000000004	0.7	6	6	1.8000000000000005	4.199999999999998	0	1	0.7	0.30000000000000004	6	6	4.199999999999998	1.8000000000000005	valid	0.4332353700010572	51200	0	0	2	51200	1	51200	1	53248	0	0.7	51200	green	brown	1	6	ml	2.7.3	lorasick	sub-05_ses-01_task-ml_proj-lorasick_2020-12-01-14-17-37.181235
148	5	1	3	149	volatile	6	20	9	vs	green	brown	brown	green	right	left	0.30000000000000004	0.7	6	4	1.8000000000000005	2.8	0	1	0.7	0.30000000000000004	4	6	2.8	1.8000000000000005	valid	1.0664021890006552	53248	0	1	1	51200	0	51200	0	53248	1	0.7	51200	green	brown	0	0	ml	2.7.3	lorasick	sub-05_ses-01_task-ml_proj-lorasick_2020-12-01-14-17-37.181235
149	5	1	3	150	volatile	6	20	10	vs	brown	green	brown	green	left	right	0.30000000000000004	0.7	6	2	1.8000000000000005	1.4	0	1	0.30000000000000004	0.7	6	2	1.8000000000000005	1.4	valid	0.4332435560027079	53248	0	1	2	51200	0	53248	1	51200	0	0.7	53248	green	brown	0	2	ml	2.7.3	lorasick	sub-05_ses-01_task-ml_proj-lorasick_2020-12-01-14-17-37.181235
150	5	1	4	151	volatile	6	20	11	vs	brown	green	brown	green	left	right	0.30000000000000004	0.7	10	2	3.0000000000000004	1.4	0	1	0.30000000000000004	0.7	10	2	3.0000000000000004	1.4	valid	0.6831684979988495	51200	0	0	1	51200	1	53248	0	51200	1	0.7	53248	green	brown	0	0	ml	2.7.3	lorasick	sub-05_ses-01_task-ml_proj-lorasick_2020-12-01-14-17-37.181235
151	5	1	4	152	volatile	6	20	12	vs	green	brown	brown	green	right	left	0.30000000000000004	0.7	4	6	1.2000000000000002	4.199999999999998	1	0	0.7	0.30000000000000004	6	4	4.199999999999998	1.2000000000000002	invalid	0.3999045359996671	51200	0	0	2	51200	1	51200	1	51200	1	0.7	51200	green	brown	1	0	ml	2.7.3	lorasick	sub-05_ses-01_task-ml_proj-lorasick_2020-12-01-14-17-37.181235
152	5	1	4	153	volatile	6	20	13	vs	brown	green	brown	green	left	right	0.30000000000000004	0.7	6	6	1.8000000000000005	4.199999999999998	0	1	0.30000000000000004	0.7	6	6	1.8000000000000005	4.199999999999998	valid	0.4499121509979887	53248	0	1	2	53248	1	53248	1	53248	1	0.7	53248	green	brown	0	6	ml	2.7.3	lorasick	sub-05_ses-01_task-ml_proj-lorasick_2020-12-01-14-17-37.181235
153	5	1	4	154	volatile	6	20	14	vs	green	brown	brown	green	right	left	0.30000000000000004	0.7	2	4	0.6000000000000001	2.8	0	1	0.7	0.30000000000000004	4	2	2.8	0.6000000000000001	valid	0.3166011459979927	51200	0	0	2	51200	1	51200	1	51200	1	0.7	51200	green	brown	1	4	ml	2.7.3	lorasick	sub-05_ses-01_task-ml_proj-lorasick_2020-12-01-14-17-37.181235
154	5	1	4	155	volatile	6	20	15	vs	green	brown	brown	green	right	left	0.30000000000000004	0.7	2	6	0.6000000000000001	4.199999999999998	0	1	0.7	0.30000000000000004	6	2	4.199999999999998	0.6000000000000001	valid	0.499894905002293	53248	0	1	1	51200	0	51200	0	51200	0	0.7	51200	green	brown	1	0	ml	2.7.3	lorasick	sub-05_ses-01_task-ml_proj-lorasick_2020-12-01-14-17-37.181235
155	5	1	4	156	volatile	6	20	16	vs	brown	green	brown	green	left	right	0.30000000000000004	0.7	2	6	0.6000000000000001	4.199999999999998	0	1	0.30000000000000004	0.7	2	6	0.6000000000000001	4.199999999999998	valid	0.44991027399737504	53248	0	1	2	53248	1	53248	1	53248	1	0.7	53248	green	brown	1	6	ml	2.7.3	lorasick	sub-05_ses-01_task-ml_proj-lorasick_2020-12-01-14-17-37.181235
156	5	1	4	157	volatile	6	20	17	vs	green	brown	brown	green	right	left	0.30000000000000004	0.7	4	2	1.2000000000000002	1.4	0	1	0.7	0.30000000000000004	2	4	1.4	1.2000000000000002	valid	0.5165465129975928	51200	0	0	2	51200	1	51200	1	53248	0	0.7	51200	green	brown	0	2	ml	2.7.3	lorasick	sub-05_ses-01_task-ml_proj-lorasick_2020-12-01-14-17-37.181235
157	5	1	4	158	volatile	6	20	18	vs	brown	green	brown	green	left	right	0.30000000000000004	0.7	2	4	0.6000000000000001	2.8	1	0	0.30000000000000004	0.7	2	4	0.6000000000000001	2.8	invalid	0.5832042070032912	53248	0	1	2	53248	1	53248	1	53248	1	0.7	53248	green	brown	1	0	ml	2.7.3	lorasick	sub-05_ses-01_task-ml_proj-lorasick_2020-12-01-14-17-37.181235
158	5	1	4	159	volatile	6	20	19	vs	brown	green	brown	green	left	right	0.30000000000000004	0.7	4	2	1.2000000000000002	1.4	1	0	0.30000000000000004	0.7	4	2	1.2000000000000002	1.4	invalid	0.6665128800013917	53248	0	1	2	53248	1	53248	1	51200	0	0.7	53248	green	brown	0	0	ml	2.7.3	lorasick	sub-05_ses-01_task-ml_proj-lorasick_2020-12-01-14-17-37.181235
159	5	1	4	160	volatile	6	20	20	vs	green	brown	brown	green	right	left	0.30000000000000004	0.7	10	2	3.0000000000000004	1.4	1	0	0.7	0.30000000000000004	2	10	1.4	3.0000000000000004	invalid	0.4832324700000754	53248	0	1	1	53248	1	51200	0	53248	1	0.7	51200	green	brown	0	10	ml	2.7.3	lorasick	sub-05_ses-01_task-ml_proj-lorasick_2020-12-01-14-17-37.181235
160	5	1	4	161	volatile	7	40	1	vs	brown	green	brown	green	left	right	0.7	0.30000000000000004	4	6	2.8	1.8000000000000005	1	0	0.7	0.30000000000000004	4	6	2.8	1.8000000000000005	valid	0.4332411770010367	51200	0	0	1	51200	1	51200	1	53248	0	0.7	51200	brown	green	0	4	ml	2.7.3	lorasick	sub-05_ses-01_task-ml_proj-lorasick_2020-12-01-14-17-37.181235
161	5	1	4	162	volatile	7	40	2	vs	green	brown	brown	green	right	left	0.7	0.30000000000000004	4	6	2.8	1.8000000000000005	1	0	0.30000000000000004	0.7	6	4	1.8000000000000005	2.8	valid	0.4665705010011152	53248	0	1	1	53248	1	53248	1	51200	0	0.7	53248	brown	green	0	4	ml	2.7.3	lorasick	sub-05_ses-01_task-ml_proj-lorasick_2020-12-01-14-17-37.181235
162	5	1	4	163	volatile	7	40	3	vs	brown	green	brown	green	left	right	0.7	0.30000000000000004	6	6	4.199999999999998	1.8000000000000005	1	0	0.7	0.30000000000000004	6	6	4.199999999999998	1.8000000000000005	valid	0.3665873240024666	51200	0	0	1	51200	1	51200	1	53248	0	0.7	51200	brown	green	1	6	ml	2.7.3	lorasick	sub-05_ses-01_task-ml_proj-lorasick_2020-12-01-14-17-37.181235
163	5	1	4	164	volatile	7	40	4	vs	green	brown	brown	green	right	left	0.7	0.30000000000000004	2	4	1.4	1.2000000000000002	1	0	0.30000000000000004	0.7	4	2	1.2000000000000002	1.4	valid	0.43324724600097403	53248	0	1	1	53248	1	53248	1	51200	0	0.7	53248	brown	green	0	2	ml	2.7.3	lorasick	sub-05_ses-01_task-ml_proj-lorasick_2020-12-01-14-17-37.181235
164	5	1	4	165	volatile	7	40	5	vs	brown	green	brown	green	left	right	0.7	0.30000000000000004	2	4	1.4	1.2000000000000002	1	0	0.7	0.30000000000000004	2	4	1.4	1.2000000000000002	valid	0.4998811180012126	51200	0	0	1	51200	1	51200	1	53248	0	0.7	51200	brown	green	0	2	ml	2.7.3	lorasick	sub-05_ses-01_task-ml_proj-lorasick_2020-12-01-14-17-37.181235
165	5	1	4	166	volatile	7	40	6	vs	green	brown	brown	green	right	left	0.7	0.30000000000000004	4	2	2.8	0.6000000000000001	1	0	0.30000000000000004	0.7	2	4	0.6000000000000001	2.8	valid	0.4832314209998003	53248	0	1	1	53248	1	53248	1	53248	1	0.7	53248	brown	green	1	4	ml	2.7.3	lorasick	sub-05_ses-01_task-ml_proj-lorasick_2020-12-01-14-17-37.181235
166	5	1	4	167	volatile	7	40	7	vs	brown	green	brown	green	left	right	0.7	0.30000000000000004	6	4	4.199999999999998	1.2000000000000002	1	0	0.7	0.30000000000000004	6	4	4.199999999999998	1.2000000000000002	valid	0.3999083620001329	51200	0	0	1	51200	1	51200	1	51200	1	0.7	51200	brown	green	1	6	ml	2.7.3	lorasick	sub-05_ses-01_task-ml_proj-lorasick_2020-12-01-14-17-37.181235
167	5	1	4	168	volatile	7	40	8	vs	green	brown	brown	green	right	left	0.7	0.30000000000000004	2	6	1.4	1.8000000000000005	0	1	0.30000000000000004	0.7	6	2	1.8000000000000005	1.4	invalid	0.4332477210009529	53248	0	1	1	51200	0	53248	1	51200	0	0.7	53248	brown	green	0	0	ml	2.7.3	lorasick	sub-05_ses-01_task-ml_proj-lorasick_2020-12-01-14-17-37.181235
168	5	1	4	169	volatile	7	40	9	vs	brown	green	brown	green	left	right	0.7	0.30000000000000004	2	4	1.4	1.2000000000000002	0	1	0.7	0.30000000000000004	2	4	1.4	1.2000000000000002	invalid	0.5332033589984349	51200	0	0	1	51200	1	51200	1	53248	0	0.7	51200	brown	green	0	0	ml	2.7.3	lorasick	sub-05_ses-01_task-ml_proj-lorasick_2020-12-01-14-17-37.181235
169	5	1	4	170	volatile	7	40	10	vs	green	brown	brown	green	right	left	0.7	0.30000000000000004	2	2	1.4	0.6000000000000001	1	0	0.30000000000000004	0.7	2	2	0.6000000000000001	1.4	valid	0.7664689819976047	51200	0	0	2	53248	0	53248	0	53248	0	0.7	53248	brown	green	0	0	ml	2.7.3	lorasick	sub-05_ses-01_task-ml_proj-lorasick_2020-12-01-14-17-37.181235
170	5	1	4	171	volatile	7	40	11	vs	green	brown	brown	green	right	left	0.7	0.30000000000000004	6	6	4.199999999999998	1.8000000000000005	0	1	0.30000000000000004	0.7	6	6	1.8000000000000005	4.199999999999998	invalid	0.5998628710003686	53248	0	1	1	53248	1	53248	1	53248	1	0.7	53248	brown	green	0	0	ml	2.7.3	lorasick	sub-05_ses-01_task-ml_proj-lorasick_2020-12-01-14-17-37.181235
171	5	1	4	172	volatile	7	40	12	vs	brown	green	brown	green	left	right	0.7	0.30000000000000004	2	6	1.4	1.8000000000000005	1	0	0.7	0.30000000000000004	2	6	1.4	1.8000000000000005	valid	0.4665703749997192	53248	0	1	2	53248	1	51200	0	53248	1	0.7	51200	brown	green	0	0	ml	2.7.3	lorasick	sub-05_ses-01_task-ml_proj-lorasick_2020-12-01-14-17-37.181235
172	5	1	4	173	volatile	7	40	13	vs	brown	green	brown	green	left	right	0.7	0.30000000000000004	4	2	2.8	0.6000000000000001	0	1	0.7	0.30000000000000004	4	2	2.8	0.6000000000000001	invalid	0.3832522129996505	51200	0	0	1	51200	1	51200	1	51200	1	0.7	51200	brown	green	1	0	ml	2.7.3	lorasick	sub-05_ses-01_task-ml_proj-lorasick_2020-12-01-14-17-37.181235
173	5	1	4	174	volatile	7	40	14	vs	brown	green	brown	green	left	right	0.7	0.30000000000000004	6	6	4.199999999999998	1.8000000000000005	0	1	0.7	0.30000000000000004	6	6	4.199999999999998	1.8000000000000005	invalid	0.3832530340005178	51200	0	0	1	51200	1	51200	1	53248	0	0.7	51200	brown	green	1	0	ml	2.7.3	lorasick	sub-05_ses-01_task-ml_proj-lorasick_2020-12-01-14-17-37.181235
174	5	1	4	175	volatile	7	40	15	vs	green	brown	brown	green	right	left	0.7	0.30000000000000004	4	2	2.8	0.6000000000000001	1	0	0.30000000000000004	0.7	2	4	0.6000000000000001	2.8	valid	0.4998827480012551	51200	0	0	2	53248	0	53248	0	53248	0	0.7	53248	brown	green	1	0	ml	2.7.3	lorasick	sub-05_ses-01_task-ml_proj-lorasick_2020-12-01-14-17-37.181235
175	5	1	4	176	volatile	7	40	16	vs	green	brown	brown	green	right	left	0.7	0.30000000000000004	2	6	1.4	1.8000000000000005	1	0	0.30000000000000004	0.7	6	2	1.8000000000000005	1.4	valid	0.3832473439979367	51200	0	0	2	51200	1	53248	0	51200	1	0.7	53248	brown	green	0	0	ml	2.7.3	lorasick	sub-05_ses-01_task-ml_proj-lorasick_2020-12-01-14-17-37.181235
176	5	1	4	177	volatile	7	40	17	vs	green	brown	brown	green	right	left	0.7	0.30000000000000004	6	6	4.199999999999998	1.8000000000000005	1	0	0.30000000000000004	0.7	6	6	1.8000000000000005	4.199999999999998	valid	0.6331803389984998	53248	0	1	1	53248	1	53248	1	53248	1	0.7	53248	brown	green	0	6	ml	2.7.3	lorasick	sub-05_ses-01_task-ml_proj-lorasick_2020-12-01-14-17-37.181235
177	5	1	4	178	volatile	7	40	18	vs	brown	green	brown	green	left	right	0.7	0.30000000000000004	6	2	4.199999999999998	0.6000000000000001	1	0	0.7	0.30000000000000004	6	2	4.199999999999998	0.6000000000000001	valid	0.4498973390000174	51200	0	0	1	51200	1	51200	1	51200	1	0.7	51200	brown	green	1	6	ml	2.7.3	lorasick	sub-05_ses-01_task-ml_proj-lorasick_2020-12-01-14-17-37.181235
178	5	1	4	179	volatile	7	40	19	vs	brown	green	brown	green	left	right	0.7	0.30000000000000004	6	4	4.199999999999998	1.2000000000000002	1	0	0.7	0.30000000000000004	6	4	4.199999999999998	1.2000000000000002	valid	0.4165739390009549	51200	0	0	1	51200	1	51200	1	51200	1	0.7	51200	brown	green	1	6	ml	2.7.3	lorasick	sub-05_ses-01_task-ml_proj-lorasick_2020-12-01-14-17-37.181235
179	5	1	4	180	volatile	7	40	20	vs	green	brown	brown	green	right	left	0.7	0.30000000000000004	2	6	1.4	1.8000000000000005	1	0	0.30000000000000004	0.7	6	2	1.8000000000000005	1.4	valid	0.4499122140005056	53248	0	1	1	51200	0	53248	1	51200	0	0.7	53248	brown	green	0	2	ml	2.7.3	lorasick	sub-05_ses-01_task-ml_proj-lorasick_2020-12-01-14-17-37.181235
180	5	1	4	181	volatile	7	40	21	vs	brown	green	brown	green	left	right	0.7	0.30000000000000004	6	4	4.199999999999998	1.2000000000000002	1	0	0.7	0.30000000000000004	6	4	4.199999999999998	1.2000000000000002	valid	0.4832196639981703	51200	0	0	1	51200	1	51200	1	51200	1	0.7	51200	brown	green	1	6	ml	2.7.3	lorasick	sub-05_ses-01_task-ml_proj-lorasick_2020-12-01-14-17-37.181235
181	5	1	4	182	volatile	7	40	22	vs	brown	green	brown	green	left	right	0.7	0.30000000000000004	10	2	7.0	0.6000000000000001	1	0	0.7	0.30000000000000004	10	2	7.0	0.6000000000000001	valid	0.5165426530002151	51200	0	0	1	51200	1	51200	1	51200	1	0.7	51200	brown	green	1	10	ml	2.7.3	lorasick	sub-05_ses-01_task-ml_proj-lorasick_2020-12-01-14-17-37.181235
182	5	1	4	183	volatile	7	40	23	vs	green	brown	brown	green	right	left	0.7	0.30000000000000004	2	10	1.4	3.0000000000000004	1	0	0.30000000000000004	0.7	10	2	3.0000000000000004	1.4	valid	0.5831924779995461	51200	0	0	2	51200	1	53248	0	51200	1	0.7	53248	brown	green	0	0	ml	2.7.3	lorasick	sub-05_ses-01_task-ml_proj-lorasick_2020-12-01-14-17-37.181235
183	5	1	4	184	volatile	7	40	24	vs	green	brown	brown	green	right	left	0.7	0.30000000000000004	2	4	1.4	1.2000000000000002	1	0	0.30000000000000004	0.7	4	2	1.2000000000000002	1.4	valid	0.38326488899838296	53248	0	1	1	53248	1	53248	1	51200	0	0.7	53248	brown	green	0	2	ml	2.7.3	lorasick	sub-05_ses-01_task-ml_proj-lorasick_2020-12-01-14-17-37.181235
184	5	1	4	185	volatile	7	40	25	vs	brown	green	brown	green	left	right	0.7	0.30000000000000004	2	10	1.4	3.0000000000000004	1	0	0.7	0.30000000000000004	2	10	1.4	3.0000000000000004	valid	0.4499001229996793	51200	0	0	1	53248	0	51200	1	53248	0	0.7	51200	brown	green	0	2	ml	2.7.3	lorasick	sub-05_ses-01_task-ml_proj-lorasick_2020-12-01-14-17-37.181235
185	5	1	4	186	volatile	7	40	26	vs	brown	green	brown	green	left	right	0.7	0.30000000000000004	2	10	1.4	3.0000000000000004	1	0	0.7	0.30000000000000004	2	10	1.4	3.0000000000000004	valid	0.4332322780028335	51200	0	0	1	53248	0	51200	1	53248	0	0.7	51200	brown	green	0	2	ml	2.7.3	lorasick	sub-05_ses-01_task-ml_proj-lorasick_2020-12-01-14-17-37.181235
186	5	1	4	187	volatile	7	40	27	vs	green	brown	brown	green	right	left	0.7	0.30000000000000004	2	2	1.4	0.6000000000000001	1	0	0.30000000000000004	0.7	2	2	0.6000000000000001	1.4	valid	0.44991843300158507	53248	0	1	1	53248	1	53248	1	53248	1	0.7	53248	brown	green	0	2	ml	2.7.3	lorasick	sub-05_ses-01_task-ml_proj-lorasick_2020-12-01-14-17-37.181235
187	5	1	4	188	volatile	7	40	28	vs	green	brown	brown	green	right	left	0.7	0.30000000000000004	6	4	4.199999999999998	1.2000000000000002	0	1	0.30000000000000004	0.7	4	6	1.2000000000000002	4.199999999999998	invalid	0.4665689819994441	53248	0	1	1	53248	1	53248	1	53248	1	0.7	53248	brown	green	1	0	ml	2.7.3	lorasick	sub-05_ses-01_task-ml_proj-lorasick_2020-12-01-14-17-37.181235
188	5	1	4	189	volatile	7	40	29	vs	green	brown	brown	green	right	left	0.7	0.30000000000000004	2	10	1.4	3.0000000000000004	1	0	0.30000000000000004	0.7	10	2	3.0000000000000004	1.4	valid	0.5665393810013484	53248	0	1	1	51200	0	53248	1	51200	0	0.7	53248	brown	green	0	2	ml	2.7.3	lorasick	sub-05_ses-01_task-ml_proj-lorasick_2020-12-01-14-17-37.181235
189	5	1	4	190	volatile	7	40	30	vs	green	brown	brown	green	right	left	0.7	0.30000000000000004	6	4	4.199999999999998	1.2000000000000002	0	1	0.30000000000000004	0.7	4	6	1.2000000000000002	4.199999999999998	invalid	0.4998914579991833	53248	0	1	1	53248	1	53248	1	53248	1	0.7	53248	brown	green	1	0	ml	2.7.3	lorasick	sub-05_ses-01_task-ml_proj-lorasick_2020-12-01-14-17-37.181235
190	5	1	4	191	volatile	7	40	31	vs	brown	green	brown	green	left	right	0.7	0.30000000000000004	2	6	1.4	1.8000000000000005	0	1	0.7	0.30000000000000004	2	6	1.4	1.8000000000000005	invalid	0.4499005260004196	51200	0	0	1	53248	0	51200	1	53248	0	0.7	51200	brown	green	0	0	ml	2.7.3	lorasick	sub-05_ses-01_task-ml_proj-lorasick_2020-12-01-14-17-37.181235
191	5	1	4	192	volatile	7	40	32	vs	brown	green	brown	green	left	right	0.7	0.30000000000000004	2	10	1.4	3.0000000000000004	0	1	0.7	0.30000000000000004	2	10	1.4	3.0000000000000004	invalid	0.5665541330017732	53248	0	1	2	53248	1	51200	0	53248	1	0.7	51200	brown	green	0	10	ml	2.7.3	lorasick	sub-05_ses-01_task-ml_proj-lorasick_2020-12-01-14-17-37.181235
192	5	1	4	193	volatile	7	40	33	vs	brown	green	brown	green	left	right	0.7	0.30000000000000004	2	10	1.4	3.0000000000000004	1	0	0.7	0.30000000000000004	2	10	1.4	3.0000000000000004	valid	0.4332447839988163	53248	0	1	2	53248	1	51200	0	53248	1	0.7	51200	brown	green	0	0	ml	2.7.3	lorasick	sub-05_ses-01_task-ml_proj-lorasick_2020-12-01-14-17-37.181235
193	5	1	4	194	volatile	7	40	34	vs	green	brown	brown	green	right	left	0.7	0.30000000000000004	6	2	4.199999999999998	0.6000000000000001	0	1	0.30000000000000004	0.7	2	6	0.6000000000000001	4.199999999999998	invalid	0.4165771330008283	51200	0	0	2	53248	0	53248	0	53248	0	0.7	53248	brown	green	1	2	ml	2.7.3	lorasick	sub-05_ses-01_task-ml_proj-lorasick_2020-12-01-14-17-37.181235
194	5	1	4	195	volatile	7	40	35	vs	brown	green	brown	green	left	right	0.7	0.30000000000000004	2	2	1.4	0.6000000000000001	1	0	0.7	0.30000000000000004	2	2	1.4	0.6000000000000001	valid	0.7498174009997456	53248	0	1	2	51200	0	51200	0	53248	1	0.7	51200	brown	green	1	0	ml	2.7.3	lorasick	sub-05_ses-01_task-ml_proj-lorasick_2020-12-01-14-17-37.181235
195	5	1	4	196	volatile	7	40	36	vs	brown	green	brown	green	left	right	0.7	0.30000000000000004	2	6	1.4	1.8000000000000005	1	0	0.7	0.30000000000000004	2	6	1.4	1.8000000000000005	valid	1.0997100189997582	53248	0	1	2	53248	1	51200	0	53248	1	0.7	51200	brown	green	0	0	ml	2.7.3	lorasick	sub-05_ses-01_task-ml_proj-lorasick_2020-12-01-14-17-37.181235
196	5	1	4	197	volatile	7	40	37	vs	brown	green	brown	green	left	right	0.7	0.30000000000000004	4	2	2.8	0.6000000000000001	0	1	0.7	0.30000000000000004	4	2	2.8	0.6000000000000001	invalid	0.5332043779999367	51200	0	0	1	51200	1	51200	1	51200	1	0.7	51200	brown	green	1	0	ml	2.7.3	lorasick	sub-05_ses-01_task-ml_proj-lorasick_2020-12-01-14-17-37.181235
197	5	1	4	198	volatile	7	40	38	vs	green	brown	brown	green	right	left	0.7	0.30000000000000004	2	2	1.4	0.6000000000000001	1	0	0.30000000000000004	0.7	2	2	0.6000000000000001	1.4	valid	1.5329174969992891	51200	0	0	2	53248	0	53248	0	53248	0	0.7	53248	brown	green	0	0	ml	2.7.3	lorasick	sub-05_ses-01_task-ml_proj-lorasick_2020-12-01-14-17-37.181235
198	5	1	4	199	volatile	7	40	39	vs	green	brown	brown	green	right	left	0.7	0.30000000000000004	6	4	4.199999999999998	1.2000000000000002	1	0	0.30000000000000004	0.7	4	6	1.2000000000000002	4.199999999999998	valid	0.7664674449988524	51200	0	0	2	53248	0	53248	0	53248	0	0.7	53248	brown	green	1	0	ml	2.7.3	lorasick	sub-05_ses-01_task-ml_proj-lorasick_2020-12-01-14-17-37.181235
199	5	1	4	200	volatile	7	40	40	vs	green	brown	brown	green	right	left	0.7	0.30000000000000004	2	10	1.4	3.0000000000000004	0	1	0.30000000000000004	0.7	10	2	3.0000000000000004	1.4	invalid	0.966413090001879	51200	0	0	2	51200	1	53248	0	51200	1	0.7	53248	brown	green	0	10	ml	2.7.3	lorasick	sub-05_ses-01_task-ml_proj-lorasick_2020-12-01-14-17-37.181235
200	5	1	5	201	stable	8	200	1	vs	green	brown	brown	green	right	left	0.30000000000000004	0.7	4	2	1.2000000000000002	1.4	1	0	0.7	0.30000000000000004	2	4	1.4	1.2000000000000002	invalid	0.7831478260013682	53248	0	1	1	51200	0	51200	0	53248	1	0.7	51200	green	brown	0	4	ml	2.7.3	lorasick	sub-05_ses-01_task-ml_proj-lorasick_2020-12-01-14-17-37.181235
201	5	1	5	202	stable	8	200	2	vs	brown	green	brown	green	left	right	0.30000000000000004	0.7	4	6	1.2000000000000002	4.199999999999998	1	0	0.30000000000000004	0.7	4	6	1.2000000000000002	4.199999999999998	invalid	0.4998766669996258	51200	0	0	1	53248	0	53248	0	53248	0	0.7	53248	green	brown	1	4	ml	2.7.3	lorasick	sub-05_ses-01_task-ml_proj-lorasick_2020-12-01-14-17-37.181235
202	5	1	5	203	stable	8	200	3	vs	green	brown	brown	green	right	left	0.30000000000000004	0.7	2	10	0.6000000000000001	7.0	1	0	0.7	0.30000000000000004	10	2	7.0	0.6000000000000001	invalid	0.46658121400105296	53248	0	1	1	51200	0	51200	0	51200	0	0.7	51200	green	brown	1	2	ml	2.7.3	lorasick	sub-05_ses-01_task-ml_proj-lorasick_2020-12-01-14-17-37.181235
203	5	1	5	204	stable	8	200	4	vs	brown	green	brown	green	left	right	0.30000000000000004	0.7	6	2	1.8000000000000005	1.4	0	1	0.30000000000000004	0.7	6	2	1.8000000000000005	1.4	valid	0.3999078589986311	51200	0	0	1	51200	1	53248	0	51200	1	0.7	53248	green	brown	0	0	ml	2.7.3	lorasick	sub-05_ses-01_task-ml_proj-lorasick_2020-12-01-14-17-37.181235
204	5	1	5	205	stable	8	200	5	vs	green	brown	brown	green	right	left	0.30000000000000004	0.7	2	2	0.6000000000000001	1.4	0	1	0.7	0.30000000000000004	2	2	1.4	0.6000000000000001	valid	0.3999233690010442	53248	0	1	1	51200	0	51200	0	53248	1	0.7	51200	green	brown	1	0	ml	2.7.3	lorasick	sub-05_ses-01_task-ml_proj-lorasick_2020-12-01-14-17-37.181235
205	5	1	5	206	stable	8	200	6	vs	green	brown	brown	green	right	left	0.30000000000000004	0.7	2	6	0.6000000000000001	4.199999999999998	0	1	0.7	0.30000000000000004	6	2	4.199999999999998	0.6000000000000001	valid	0.3499292790002073	51200	0	0	2	51200	1	51200	1	51200	1	0.7	51200	green	brown	1	6	ml	2.7.3	lorasick	sub-05_ses-01_task-ml_proj-lorasick_2020-12-01-14-17-37.181235
206	5	1	5	207	stable	8	200	7	vs	brown	green	brown	green	left	right	0.30000000000000004	0.7	6	6	1.8000000000000005	4.199999999999998	1	0	0.30000000000000004	0.7	6	6	1.8000000000000005	4.199999999999998	invalid	0.5832022130016412	53248	0	1	2	53248	1	53248	1	53248	1	0.7	53248	green	brown	0	0	ml	2.7.3	lorasick	sub-05_ses-01_task-ml_proj-lorasick_2020-12-01-14-17-37.181235
207	5	1	5	208	stable	8	200	8	vs	green	brown	brown	green	right	left	0.30000000000000004	0.7	6	4	1.8000000000000005	2.8	0	1	0.7	0.30000000000000004	4	6	2.8	1.8000000000000005	valid	0.3999145600027987	51200	0	0	2	51200	1	51200	1	53248	0	0.7	51200	green	brown	0	4	ml	2.7.3	lorasick	sub-05_ses-01_task-ml_proj-lorasick_2020-12-01-14-17-37.181235
208	5	1	5	209	stable	8	200	9	vs	green	brown	brown	green	right	left	0.30000000000000004	0.7	6	2	1.8000000000000005	1.4	0	1	0.7	0.30000000000000004	2	6	1.4	1.8000000000000005	valid	0.5498671469977126	51200	0	0	2	53248	0	51200	1	53248	0	0.7	51200	green	brown	0	2	ml	2.7.3	lorasick	sub-05_ses-01_task-ml_proj-lorasick_2020-12-01-14-17-37.181235
209	5	1	5	210	stable	8	200	10	vs	brown	green	brown	green	left	right	0.30000000000000004	0.7	2	2	0.6000000000000001	1.4	0	1	0.30000000000000004	0.7	2	2	0.6000000000000001	1.4	valid	0.9497714310018636	53248	0	1	2	53248	1	53248	1	53248	1	0.7	53248	green	brown	0	2	ml	2.7.3	lorasick	sub-05_ses-01_task-ml_proj-lorasick_2020-12-01-14-17-37.181235
210	5	1	5	211	stable	8	200	11	vs	green	brown	brown	green	right	left	0.30000000000000004	0.7	2	4	0.6000000000000001	2.8	0	1	0.7	0.30000000000000004	4	2	2.8	0.6000000000000001	valid	0.5332030440004019	51200	0	0	2	51200	1	51200	1	51200	1	0.7	51200	green	brown	1	4	ml	2.7.3	lorasick	sub-05_ses-01_task-ml_proj-lorasick_2020-12-01-14-17-37.181235
211	5	1	5	212	stable	8	200	12	vs	green	brown	brown	green	right	left	0.30000000000000004	0.7	6	4	1.8000000000000005	2.8	1	0	0.7	0.30000000000000004	4	6	2.8	1.8000000000000005	invalid	0.5998599740014471	51200	0	0	2	51200	1	51200	1	53248	0	0.7	51200	green	brown	0	0	ml	2.7.3	lorasick	sub-05_ses-01_task-ml_proj-lorasick_2020-12-01-14-17-37.181235
212	5	1	5	213	stable	8	200	13	vs	brown	green	brown	green	left	right	0.30000000000000004	0.7	6	2	1.8000000000000005	1.4	0	1	0.30000000000000004	0.7	6	2	1.8000000000000005	1.4	valid	0.399922427997808	53248	0	1	2	51200	0	53248	1	51200	0	0.7	53248	green	brown	0	2	ml	2.7.3	lorasick	sub-05_ses-01_task-ml_proj-lorasick_2020-12-01-14-17-37.181235
213	5	1	5	214	stable	8	200	14	vs	brown	green	brown	green	left	right	0.30000000000000004	0.7	6	2	1.8000000000000005	1.4	0	1	0.30000000000000004	0.7	6	2	1.8000000000000005	1.4	valid	0.4665701400008402	53248	0	1	2	51200	0	53248	1	51200	0	0.7	53248	green	brown	0	2	ml	2.7.3	lorasick	sub-05_ses-01_task-ml_proj-lorasick_2020-12-01-14-17-37.181235
214	5	1	5	215	stable	8	200	15	vs	green	brown	brown	green	right	left	0.30000000000000004	0.7	2	2	0.6000000000000001	1.4	0	1	0.7	0.30000000000000004	2	2	1.4	0.6000000000000001	valid	0.3999060490023112	51200	0	0	2	51200	1	51200	1	53248	0	0.7	51200	green	brown	1	2	ml	2.7.3	lorasick	sub-05_ses-01_task-ml_proj-lorasick_2020-12-01-14-17-37.181235
215	5	1	5	216	stable	8	200	16	vs	brown	green	brown	green	left	right	0.30000000000000004	0.7	2	4	0.6000000000000001	2.8	0	1	0.30000000000000004	0.7	2	4	0.6000000000000001	2.8	valid	0.5498872889984341	53248	0	1	2	53248	1	53248	1	53248	1	0.7	53248	green	brown	1	4	ml	2.7.3	lorasick	sub-05_ses-01_task-ml_proj-lorasick_2020-12-01-14-17-37.181235
216	5	1	5	217	stable	8	200	17	vs	green	brown	brown	green	right	left	0.30000000000000004	0.7	4	2	1.2000000000000002	1.4	0	1	0.7	0.30000000000000004	2	4	1.4	1.2000000000000002	valid	0.4998855279991403	51200	0	0	2	51200	1	51200	1	53248	0	0.7	51200	green	brown	0	2	ml	2.7.3	lorasick	sub-05_ses-01_task-ml_proj-lorasick_2020-12-01-14-17-37.181235
217	5	1	5	218	stable	8	200	18	vs	brown	green	brown	green	left	right	0.30000000000000004	0.7	2	4	0.6000000000000001	2.8	0	1	0.30000000000000004	0.7	2	4	0.6000000000000001	2.8	valid	0.4665683329985768	53248	0	1	2	53248	1	53248	1	53248	1	0.7	53248	green	brown	1	4	ml	2.7.3	lorasick	sub-05_ses-01_task-ml_proj-lorasick_2020-12-01-14-17-37.181235
218	5	1	5	219	stable	8	200	19	vs	green	brown	brown	green	right	left	0.30000000000000004	0.7	2	4	0.6000000000000001	2.8	0	1	0.7	0.30000000000000004	4	2	2.8	0.6000000000000001	valid	0.4665576439983852	51200	0	0	2	51200	1	51200	1	51200	1	0.7	51200	green	brown	1	4	ml	2.7.3	lorasick	sub-05_ses-01_task-ml_proj-lorasick_2020-12-01-14-17-37.181235
219	5	1	5	220	stable	8	200	20	vs	green	brown	brown	green	right	left	0.30000000000000004	0.7	2	10	0.6000000000000001	7.0	0	1	0.7	0.30000000000000004	10	2	7.0	0.6000000000000001	valid	0.916419983997912	51200	0	0	2	51200	1	51200	1	51200	1	0.7	51200	green	brown	1	10	ml	2.7.3	lorasick	sub-05_ses-01_task-ml_proj-lorasick_2020-12-01-14-17-37.181235
220	5	1	5	221	stable	8	200	21	vs	brown	green	brown	green	left	right	0.30000000000000004	0.7	6	4	1.8000000000000005	2.8	0	1	0.30000000000000004	0.7	6	4	1.8000000000000005	2.8	valid	0.6331872830014618	53248	0	1	2	53248	1	53248	1	51200	0	0.7	53248	green	brown	0	4	ml	2.7.3	lorasick	sub-05_ses-01_task-ml_proj-lorasick_2020-12-01-14-17-37.181235
221	5	1	5	222	stable	8	200	22	vs	green	brown	brown	green	right	left	0.30000000000000004	0.7	2	4	0.6000000000000001	2.8	0	1	0.7	0.30000000000000004	4	2	2.8	0.6000000000000001	valid	0.4165727760009759	51200	0	0	2	51200	1	51200	1	51200	1	0.7	51200	green	brown	1	4	ml	2.7.3	lorasick	sub-05_ses-01_task-ml_proj-lorasick_2020-12-01-14-17-37.181235
222	5	1	5	223	stable	8	200	23	vs	brown	green	brown	green	left	right	0.30000000000000004	0.7	2	6	0.6000000000000001	4.199999999999998	1	0	0.30000000000000004	0.7	2	6	0.6000000000000001	4.199999999999998	invalid	0.8331190280005103	53248	0	1	2	53248	1	53248	1	53248	1	0.7	53248	green	brown	1	0	ml	2.7.3	lorasick	sub-05_ses-01_task-ml_proj-lorasick_2020-12-01-14-17-37.181235
223	5	1	5	224	stable	8	200	24	vs	brown	green	brown	green	left	right	0.30000000000000004	0.7	2	10	0.6000000000000001	7.0	0	1	0.30000000000000004	0.7	2	10	0.6000000000000001	7.0	valid	0.5498770750018593	53248	0	1	2	53248	1	53248	1	53248	1	0.7	53248	green	brown	1	10	ml	2.7.3	lorasick	sub-05_ses-01_task-ml_proj-lorasick_2020-12-01-14-17-37.181235
224	5	1	5	225	stable	8	200	25	vs	green	brown	brown	green	right	left	0.30000000000000004	0.7	2	4	0.6000000000000001	2.8	0	1	0.7	0.30000000000000004	4	2	2.8	0.6000000000000001	valid	0.4332368379982654	51200	0	0	2	51200	1	51200	1	51200	1	0.7	51200	green	brown	1	4	ml	2.7.3	lorasick	sub-05_ses-01_task-ml_proj-lorasick_2020-12-01-14-17-37.181235
225	5	1	5	226	stable	8	200	26	vs	brown	green	brown	green	left	right	0.30000000000000004	0.7	4	2	1.2000000000000002	1.4	0	1	0.30000000000000004	0.7	4	2	1.2000000000000002	1.4	valid	0.4332348399984767	51200	0	0	1	53248	0	53248	0	51200	1	0.7	53248	green	brown	0	0	ml	2.7.3	lorasick	sub-05_ses-01_task-ml_proj-lorasick_2020-12-01-14-17-37.181235
226	5	1	5	227	stable	8	200	27	vs	brown	green	brown	green	left	right	0.30000000000000004	0.7	2	6	0.6000000000000001	4.199999999999998	1	0	0.30000000000000004	0.7	2	6	0.6000000000000001	4.199999999999998	invalid	0.4499099669992575	53248	0	1	2	53248	1	53248	1	53248	1	0.7	53248	green	brown	1	0	ml	2.7.3	lorasick	sub-05_ses-01_task-ml_proj-lorasick_2020-12-01-14-17-37.181235
227	5	1	5	228	stable	8	200	28	vs	green	brown	brown	green	right	left	0.30000000000000004	0.7	2	10	0.6000000000000001	7.0	0	1	0.7	0.30000000000000004	10	2	7.0	0.6000000000000001	valid	0.8164566469968122	51200	0	0	2	51200	1	51200	1	51200	1	0.7	51200	green	brown	1	10	ml	2.7.3	lorasick	sub-05_ses-01_task-ml_proj-lorasick_2020-12-01-14-17-37.181235
228	5	1	5	229	stable	8	200	29	vs	brown	green	brown	green	left	right	0.30000000000000004	0.7	6	4	1.8000000000000005	2.8	1	0	0.30000000000000004	0.7	6	4	1.8000000000000005	2.8	invalid	0.4499072159997013	53248	0	1	2	53248	1	53248	1	51200	0	0.7	53248	green	brown	0	0	ml	2.7.3	lorasick	sub-05_ses-01_task-ml_proj-lorasick_2020-12-01-14-17-37.181235
229	5	1	5	230	stable	8	200	30	vs	brown	green	brown	green	left	right	0.30000000000000004	0.7	4	6	1.2000000000000002	4.199999999999998	1	0	0.30000000000000004	0.7	4	6	1.2000000000000002	4.199999999999998	invalid	0.4665698130011151	53248	0	1	2	53248	1	53248	1	53248	1	0.7	53248	green	brown	1	0	ml	2.7.3	lorasick	sub-05_ses-01_task-ml_proj-lorasick_2020-12-01-14-17-37.181235
230	5	1	5	231	stable	8	200	31	vs	brown	green	brown	green	left	right	0.30000000000000004	0.7	2	10	0.6000000000000001	7.0	0	1	0.30000000000000004	0.7	2	10	0.6000000000000001	7.0	valid	0.4332456280026236	53248	0	1	2	53248	1	53248	1	53248	1	0.7	53248	green	brown	1	10	ml	2.7.3	lorasick	sub-05_ses-01_task-ml_proj-lorasick_2020-12-01-14-17-37.181235
231	5	1	5	232	stable	8	200	32	vs	brown	green	brown	green	left	right	0.30000000000000004	0.7	2	10	0.6000000000000001	7.0	1	0	0.30000000000000004	0.7	2	10	0.6000000000000001	7.0	invalid	0.4332455830008257	53248	0	1	2	53248	1	53248	1	53248	1	0.7	53248	green	brown	1	0	ml	2.7.3	lorasick	sub-05_ses-01_task-ml_proj-lorasick_2020-12-01-14-17-37.181235
232	5	1	5	233	stable	8	200	33	vs	green	brown	brown	green	right	left	0.30000000000000004	0.7	2	2	0.6000000000000001	1.4	1	0	0.7	0.30000000000000004	2	2	1.4	0.6000000000000001	invalid	0.383258139998361	51200	0	0	2	51200	1	51200	1	53248	0	0.7	51200	green	brown	1	0	ml	2.7.3	lorasick	sub-05_ses-01_task-ml_proj-lorasick_2020-12-01-14-17-37.181235
233	5	1	5	234	stable	8	200	34	vs	green	brown	brown	green	right	left	0.30000000000000004	0.7	2	2	0.6000000000000001	1.4	0	1	0.7	0.30000000000000004	2	2	1.4	0.6000000000000001	valid	0.6831741030000558	53248	0	1	1	51200	0	51200	0	53248	1	0.7	51200	green	brown	1	0	ml	2.7.3	lorasick	sub-05_ses-01_task-ml_proj-lorasick_2020-12-01-14-17-37.181235
234	5	1	5	235	stable	8	200	35	vs	green	brown	brown	green	right	left	0.30000000000000004	0.7	2	4	0.6000000000000001	2.8	0	1	0.7	0.30000000000000004	4	2	2.8	0.6000000000000001	valid	0.4332350659969961	51200	0	0	2	51200	1	51200	1	51200	1	0.7	51200	green	brown	1	4	ml	2.7.3	lorasick	sub-05_ses-01_task-ml_proj-lorasick_2020-12-01-14-17-37.181235
235	5	1	5	236	stable	8	200	36	vs	brown	green	brown	green	left	right	0.30000000000000004	0.7	2	4	0.6000000000000001	2.8	0	1	0.30000000000000004	0.7	2	4	0.6000000000000001	2.8	valid	0.3999189909991401	53248	0	1	2	53248	1	53248	1	53248	1	0.7	53248	green	brown	1	4	ml	2.7.3	lorasick	sub-05_ses-01_task-ml_proj-lorasick_2020-12-01-14-17-37.181235
236	5	1	5	237	stable	8	200	37	vs	green	brown	brown	green	right	left	0.30000000000000004	0.7	2	2	0.6000000000000001	1.4	0	1	0.7	0.30000000000000004	2	2	1.4	0.6000000000000001	valid	0.5165446870014421	51200	0	0	2	51200	1	51200	1	53248	0	0.7	51200	green	brown	1	2	ml	2.7.3	lorasick	sub-05_ses-01_task-ml_proj-lorasick_2020-12-01-14-17-37.181235
237	5	1	5	238	stable	8	200	38	vs	green	brown	brown	green	right	left	0.30000000000000004	0.7	10	2	3.0000000000000004	1.4	0	1	0.7	0.30000000000000004	2	10	1.4	3.0000000000000004	valid	0.8164567790008732	51200	0	0	2	53248	0	51200	1	53248	0	0.7	51200	green	brown	0	2	ml	2.7.3	lorasick	sub-05_ses-01_task-ml_proj-lorasick_2020-12-01-14-17-37.181235
238	5	1	5	239	stable	8	200	39	vs	brown	green	brown	green	left	right	0.30000000000000004	0.7	4	6	1.2000000000000002	4.199999999999998	0	1	0.30000000000000004	0.7	4	6	1.2000000000000002	4.199999999999998	valid	0.5165514410000469	51200	0	0	1	53248	0	53248	0	53248	0	0.7	53248	green	brown	1	0	ml	2.7.3	lorasick	sub-05_ses-01_task-ml_proj-lorasick_2020-12-01-14-17-37.181235
239	5	1	5	240	stable	8	200	40	vs	green	brown	brown	green	right	left	0.30000000000000004	0.7	2	6	0.6000000000000001	4.199999999999998	0	1	0.7	0.30000000000000004	6	2	4.199999999999998	0.6000000000000001	valid	0.3999102919988218	51200	0	0	2	51200	1	51200	1	51200	1	0.7	51200	green	brown	1	6	ml	2.7.3	lorasick	sub-05_ses-01_task-ml_proj-lorasick_2020-12-01-14-17-37.181235
240	5	1	5	241	stable	8	200	41	vs	brown	green	brown	green	left	right	0.30000000000000004	0.7	6	6	1.8000000000000005	4.199999999999998	0	1	0.30000000000000004	0.7	6	6	1.8000000000000005	4.199999999999998	valid	1.1830304069990234	53248	0	1	2	53248	1	53248	1	53248	1	0.7	53248	green	brown	0	6	ml	2.7.3	lorasick	sub-05_ses-01_task-ml_proj-lorasick_2020-12-01-14-17-37.181235
241	5	1	5	242	stable	8	200	42	vs	green	brown	brown	green	right	left	0.30000000000000004	0.7	2	2	0.6000000000000001	1.4	0	1	0.7	0.30000000000000004	2	2	1.4	0.6000000000000001	valid	0.5165417490024993	51200	0	0	2	51200	1	51200	1	53248	0	0.7	51200	green	brown	1	2	ml	2.7.3	lorasick	sub-05_ses-01_task-ml_proj-lorasick_2020-12-01-14-17-37.181235
242	5	1	5	243	stable	8	200	43	vs	green	brown	brown	green	right	left	0.30000000000000004	0.7	4	6	1.2000000000000002	4.199999999999998	1	0	0.7	0.30000000000000004	6	4	4.199999999999998	1.2000000000000002	invalid	0.7664793299991288	51200	0	0	2	51200	1	51200	1	51200	1	0.7	51200	green	brown	1	0	ml	2.7.3	lorasick	sub-05_ses-01_task-ml_proj-lorasick_2020-12-01-14-17-37.181235
243	5	1	5	244	stable	8	200	44	vs	green	brown	brown	green	right	left	0.30000000000000004	0.7	2	2	0.6000000000000001	1.4	0	1	0.7	0.30000000000000004	2	2	1.4	0.6000000000000001	valid	0.6165249290024803	53248	0	1	1	51200	0	51200	0	53248	1	0.7	51200	green	brown	1	0	ml	2.7.3	lorasick	sub-05_ses-01_task-ml_proj-lorasick_2020-12-01-14-17-37.181235
244	5	1	5	245	stable	8	200	45	vs	green	brown	brown	green	right	left	0.30000000000000004	0.7	6	4	1.8000000000000005	2.8	1	0	0.7	0.30000000000000004	4	6	2.8	1.8000000000000005	invalid	0.5332054589998734	51200	0	0	2	51200	1	51200	1	53248	0	0.7	51200	green	brown	0	0	ml	2.7.3	lorasick	sub-05_ses-01_task-ml_proj-lorasick_2020-12-01-14-17-37.181235
245	5	1	5	246	stable	8	200	46	vs	green	brown	brown	green	right	left	0.30000000000000004	0.7	10	2	3.0000000000000004	1.4	1	0	0.7	0.30000000000000004	2	10	1.4	3.0000000000000004	invalid	0.5332181960002345	53248	0	1	1	53248	1	51200	0	53248	1	0.7	51200	green	brown	0	10	ml	2.7.3	lorasick	sub-05_ses-01_task-ml_proj-lorasick_2020-12-01-14-17-37.181235
246	5	1	5	247	stable	8	200	47	vs	brown	green	brown	green	left	right	0.30000000000000004	0.7	2	10	0.6000000000000001	7.0	0	1	0.30000000000000004	0.7	2	10	0.6000000000000001	7.0	valid	1.083046611998725	51200	0	0	1	53248	0	53248	0	53248	0	0.7	53248	green	brown	1	0	ml	2.7.3	lorasick	sub-05_ses-01_task-ml_proj-lorasick_2020-12-01-14-17-37.181235
247	5	1	5	248	stable	8	200	48	vs	brown	green	brown	green	left	right	0.30000000000000004	0.7	4	2	1.2000000000000002	1.4	0	1	0.30000000000000004	0.7	4	2	1.2000000000000002	1.4	valid	0.9330986109998776	53248	0	1	2	53248	1	53248	1	51200	0	0.7	53248	green	brown	0	2	ml	2.7.3	lorasick	sub-05_ses-01_task-ml_proj-lorasick_2020-12-01-14-17-37.181235
248	5	1	5	249	stable	8	200	49	vs	green	brown	brown	green	right	left	0.30000000000000004	0.7	2	6	0.6000000000000001	4.199999999999998	0	1	0.7	0.30000000000000004	6	2	4.199999999999998	0.6000000000000001	valid	0.9331018810007664	53248	0	1	1	51200	0	51200	0	51200	0	0.7	51200	green	brown	1	0	ml	2.7.3	lorasick	sub-05_ses-01_task-ml_proj-lorasick_2020-12-01-14-17-37.181235
249	5	1	5	250	stable	8	200	50	vs	green	brown	brown	green	right	left	0.30000000000000004	0.7	6	2	1.8000000000000005	1.4	0	1	0.7	0.30000000000000004	2	6	1.4	1.8000000000000005	valid	0.6498376090021338	51200	0	0	2	53248	0	51200	1	53248	0	0.7	51200	green	brown	0	2	ml	2.7.3	lorasick	sub-05_ses-01_task-ml_proj-lorasick_2020-12-01-14-17-37.181235
250	5	1	6	251	stable	8	200	51	vs	green	brown	brown	green	right	left	0.30000000000000004	0.7	4	2	1.2000000000000002	1.4	0	1	0.7	0.30000000000000004	2	4	1.4	1.2000000000000002	valid	0.8664527190012451	53248	0	1	1	51200	0	51200	0	53248	1	0.7	51200	green	brown	0	0	ml	2.7.3	lorasick	sub-05_ses-01_task-ml_proj-lorasick_2020-12-01-14-17-37.181235
251	5	1	6	252	stable	8	200	52	vs	green	brown	brown	green	right	left	0.30000000000000004	0.7	6	2	1.8000000000000005	1.4	0	1	0.7	0.30000000000000004	2	6	1.4	1.8000000000000005	valid	0.4498966370010749	51200	0	0	2	53248	0	51200	1	53248	0	0.7	51200	green	brown	0	2	ml	2.7.3	lorasick	sub-05_ses-01_task-ml_proj-lorasick_2020-12-01-14-17-37.181235
252	5	1	6	253	stable	8	200	53	vs	green	brown	brown	green	right	left	0.30000000000000004	0.7	6	4	1.8000000000000005	2.8	0	1	0.7	0.30000000000000004	4	6	2.8	1.8000000000000005	valid	1.0830440830031876	51200	0	0	2	51200	1	51200	1	53248	0	0.7	51200	green	brown	0	4	ml	2.7.3	lorasick	sub-05_ses-01_task-ml_proj-lorasick_2020-12-01-14-17-37.181235
253	5	1	6	254	stable	8	200	54	vs	brown	green	brown	green	left	right	0.30000000000000004	0.7	2	6	0.6000000000000001	4.199999999999998	0	1	0.30000000000000004	0.7	2	6	0.6000000000000001	4.199999999999998	valid	0.38326936699741054	53248	0	1	2	53248	1	53248	1	53248	1	0.7	53248	green	brown	1	6	ml	2.7.3	lorasick	sub-05_ses-01_task-ml_proj-lorasick_2020-12-01-14-17-37.181235
254	5	1	6	255	stable	8	200	55	vs	brown	green	brown	green	left	right	0.30000000000000004	0.7	2	4	0.6000000000000001	2.8	1	0	0.30000000000000004	0.7	2	4	0.6000000000000001	2.8	invalid	0.3832621289984672	53248	0	1	2	53248	1	53248	1	53248	1	0.7	53248	green	brown	1	0	ml	2.7.3	lorasick	sub-05_ses-01_task-ml_proj-lorasick_2020-12-01-14-17-37.181235
255	5	1	6	256	stable	8	200	56	vs	brown	green	brown	green	left	right	0.30000000000000004	0.7	6	2	1.8000000000000005	1.4	0	1	0.30000000000000004	0.7	6	2	1.8000000000000005	1.4	valid	0.3999262350007484	53248	0	1	2	51200	0	53248	1	51200	0	0.7	53248	green	brown	0	2	ml	2.7.3	lorasick	sub-05_ses-01_task-ml_proj-lorasick_2020-12-01-14-17-37.181235
256	5	1	6	257	stable	8	200	57	vs	green	brown	brown	green	right	left	0.30000000000000004	0.7	4	2	1.2000000000000002	1.4	1	0	0.7	0.30000000000000004	2	4	1.4	1.2000000000000002	invalid	0.4165762970005744	51200	0	0	2	51200	1	51200	1	53248	0	0.7	51200	green	brown	0	0	ml	2.7.3	lorasick	sub-05_ses-01_task-ml_proj-lorasick_2020-12-01-14-17-37.181235
257	5	1	6	258	stable	8	200	58	vs	green	brown	brown	green	right	left	0.30000000000000004	0.7	2	4	0.6000000000000001	2.8	1	0	0.7	0.30000000000000004	4	2	2.8	0.6000000000000001	invalid	0.43323766799949226	51200	0	0	2	51200	1	51200	1	51200	1	0.7	51200	green	brown	1	0	ml	2.7.3	lorasick	sub-05_ses-01_task-ml_proj-lorasick_2020-12-01-14-17-37.181235
258	5	1	6	259	stable	8	200	59	vs	brown	green	brown	green	left	right	0.30000000000000004	0.7	10	2	3.0000000000000004	1.4	0	1	0.30000000000000004	0.7	10	2	3.0000000000000004	1.4	valid	0.516544801001146	51200	0	0	1	51200	1	53248	0	51200	1	0.7	53248	green	brown	0	0	ml	2.7.3	lorasick	sub-05_ses-01_task-ml_proj-lorasick_2020-12-01-14-17-37.181235
259	5	1	6	260	stable	8	200	60	vs	green	brown	brown	green	right	left	0.30000000000000004	0.7	2	10	0.6000000000000001	7.0	1	0	0.7	0.30000000000000004	10	2	7.0	0.6000000000000001	invalid	0.4165747570004896	51200	0	0	2	51200	1	51200	1	51200	1	0.7	51200	green	brown	1	0	ml	2.7.3	lorasick	sub-05_ses-01_task-ml_proj-lorasick_2020-12-01-14-17-37.181235
260	5	1	6	261	stable	8	200	61	vs	brown	green	brown	green	left	right	0.30000000000000004	0.7	2	6	0.6000000000000001	4.199999999999998	0	1	0.30000000000000004	0.7	2	6	0.6000000000000001	4.199999999999998	valid	0.6831781059991044	53248	0	1	2	53248	1	53248	1	53248	1	0.7	53248	green	brown	1	6	ml	2.7.3	lorasick	sub-05_ses-01_task-ml_proj-lorasick_2020-12-01-14-17-37.181235
261	5	1	6	262	stable	8	200	62	vs	brown	green	brown	green	left	right	0.30000000000000004	0.7	2	4	0.6000000000000001	2.8	0	1	0.30000000000000004	0.7	2	4	0.6000000000000001	2.8	valid	0.5332171580012073	53248	0	1	2	53248	1	53248	1	53248	1	0.7	53248	green	brown	1	4	ml	2.7.3	lorasick	sub-05_ses-01_task-ml_proj-lorasick_2020-12-01-14-17-37.181235
262	5	1	6	263	stable	8	200	63	vs	green	brown	brown	green	right	left	0.30000000000000004	0.7	2	2	0.6000000000000001	1.4	0	1	0.7	0.30000000000000004	2	2	1.4	0.6000000000000001	valid	0.9330972310017388	51200	0	0	2	51200	1	51200	1	53248	0	0.7	51200	green	brown	1	2	ml	2.7.3	lorasick	sub-05_ses-01_task-ml_proj-lorasick_2020-12-01-14-17-37.181235
263	5	1	6	264	stable	8	200	64	vs	brown	green	brown	green	left	right	0.30000000000000004	0.7	10	2	3.0000000000000004	1.4	0	1	0.30000000000000004	0.7	10	2	3.0000000000000004	1.4	valid	0.5498856619997241	53248	0	1	2	51200	0	53248	1	51200	0	0.7	53248	green	brown	0	2	ml	2.7.3	lorasick	sub-05_ses-01_task-ml_proj-lorasick_2020-12-01-14-17-37.181235
264	5	1	6	265	stable	8	200	65	vs	brown	green	brown	green	left	right	0.30000000000000004	0.7	2	6	0.6000000000000001	4.199999999999998	0	1	0.30000000000000004	0.7	2	6	0.6000000000000001	4.199999999999998	valid	0.4665728979998676	53248	0	1	2	53248	1	53248	1	53248	1	0.7	53248	green	brown	1	6	ml	2.7.3	lorasick	sub-05_ses-01_task-ml_proj-lorasick_2020-12-01-14-17-37.181235
265	5	1	6	266	stable	8	200	66	vs	brown	green	brown	green	left	right	0.30000000000000004	0.7	4	2	1.2000000000000002	1.4	0	1	0.30000000000000004	0.7	4	2	1.2000000000000002	1.4	valid	0.5498794179984543	53248	0	1	2	53248	1	53248	1	51200	0	0.7	53248	green	brown	0	2	ml	2.7.3	lorasick	sub-05_ses-01_task-ml_proj-lorasick_2020-12-01-14-17-37.181235
266	5	1	6	267	stable	8	200	67	vs	green	brown	brown	green	right	left	0.30000000000000004	0.7	4	6	1.2000000000000002	4.199999999999998	1	0	0.7	0.30000000000000004	6	4	4.199999999999998	1.2000000000000002	invalid	0.5498683120022179	51200	0	0	2	51200	1	51200	1	51200	1	0.7	51200	green	brown	1	0	ml	2.7.3	lorasick	sub-05_ses-01_task-ml_proj-lorasick_2020-12-01-14-17-37.181235
267	5	1	6	268	stable	8	200	68	vs	green	brown	brown	green	right	left	0.30000000000000004	0.7	6	2	1.8000000000000005	1.4	0	1	0.7	0.30000000000000004	2	6	1.4	1.8000000000000005	valid	0.4998938370008546	53248	0	1	1	53248	1	51200	0	53248	1	0.7	51200	green	brown	0	0	ml	2.7.3	lorasick	sub-05_ses-01_task-ml_proj-lorasick_2020-12-01-14-17-37.181235
268	5	1	6	269	stable	8	200	69	vs	brown	green	brown	green	left	right	0.30000000000000004	0.7	6	6	1.8000000000000005	4.199999999999998	1	0	0.30000000000000004	0.7	6	6	1.8000000000000005	4.199999999999998	invalid	0.6665096600008837	53248	0	1	2	53248	1	53248	1	53248	1	0.7	53248	green	brown	0	0	ml	2.7.3	lorasick	sub-05_ses-01_task-ml_proj-lorasick_2020-12-01-14-17-37.181235
269	5	1	6	270	stable	8	200	70	vs	green	brown	brown	green	right	left	0.30000000000000004	0.7	6	2	1.8000000000000005	1.4	1	0	0.7	0.30000000000000004	2	6	1.4	1.8000000000000005	invalid	0.6831743980001193	53248	0	1	1	53248	1	51200	0	53248	1	0.7	51200	green	brown	0	6	ml	2.7.3	lorasick	sub-05_ses-01_task-ml_proj-lorasick_2020-12-01-14-17-37.181235
270	5	1	6	271	stable	8	200	71	vs	green	brown	brown	green	right	left	0.30000000000000004	0.7	6	2	1.8000000000000005	1.4	0	1	0.7	0.30000000000000004	2	6	1.4	1.8000000000000005	valid	0.3999199710015091	53248	0	1	1	53248	1	51200	0	53248	1	0.7	51200	green	brown	0	0	ml	2.7.3	lorasick	sub-05_ses-01_task-ml_proj-lorasick_2020-12-01-14-17-37.181235
271	5	1	6	272	stable	8	200	72	vs	green	brown	brown	green	right	left	0.30000000000000004	0.7	4	6	1.2000000000000002	4.199999999999998	1	0	0.7	0.30000000000000004	6	4	4.199999999999998	1.2000000000000002	invalid	0.3999225839979772	53248	0	1	1	51200	0	51200	0	51200	0	0.7	51200	green	brown	1	4	ml	2.7.3	lorasick	sub-05_ses-01_task-ml_proj-lorasick_2020-12-01-14-17-37.181235
272	5	1	6	273	stable	8	200	73	vs	brown	green	brown	green	left	right	0.30000000000000004	0.7	6	2	1.8000000000000005	1.4	0	1	0.30000000000000004	0.7	6	2	1.8000000000000005	1.4	valid	0.4998803029993724	51200	0	0	1	51200	1	53248	0	51200	1	0.7	53248	green	brown	0	0	ml	2.7.3	lorasick	sub-05_ses-01_task-ml_proj-lorasick_2020-12-01-14-17-37.181235
273	5	1	6	274	stable	8	200	74	vs	green	brown	brown	green	right	left	0.30000000000000004	0.7	2	4	0.6000000000000001	2.8	0	1	0.7	0.30000000000000004	4	2	2.8	0.6000000000000001	valid	0.4332427599983929	53248	0	1	1	51200	0	51200	0	51200	0	0.7	51200	green	brown	1	0	ml	2.7.3	lorasick	sub-05_ses-01_task-ml_proj-lorasick_2020-12-01-14-17-37.181235
274	5	1	6	275	stable	8	200	75	vs	brown	green	brown	green	left	right	0.30000000000000004	0.7	10	2	3.0000000000000004	1.4	0	1	0.30000000000000004	0.7	10	2	3.0000000000000004	1.4	valid	0.6665106249965902	53248	0	1	2	51200	0	53248	1	51200	0	0.7	53248	green	brown	0	2	ml	2.7.3	lorasick	sub-05_ses-01_task-ml_proj-lorasick_2020-12-01-14-17-37.181235
275	5	1	6	276	stable	8	200	76	vs	brown	green	brown	green	left	right	0.30000000000000004	0.7	4	2	1.2000000000000002	1.4	0	1	0.30000000000000004	0.7	4	2	1.2000000000000002	1.4	valid	0.5665427130006719	53248	0	1	2	53248	1	53248	1	51200	0	0.7	53248	green	brown	0	2	ml	2.7.3	lorasick	sub-05_ses-01_task-ml_proj-lorasick_2020-12-01-14-17-37.181235
276	5	1	6	277	stable	8	200	77	vs	green	brown	brown	green	right	left	0.30000000000000004	0.7	2	10	0.6000000000000001	7.0	0	1	0.7	0.30000000000000004	10	2	7.0	0.6000000000000001	valid	1.0164085870019337	53248	0	1	1	51200	0	51200	0	51200	0	0.7	51200	green	brown	1	0	ml	2.7.3	lorasick	sub-05_ses-01_task-ml_proj-lorasick_2020-12-01-14-17-37.181235
277	5	1	6	278	stable	8	200	78	vs	green	brown	brown	green	right	left	0.30000000000000004	0.7	6	6	1.8000000000000005	4.199999999999998	0	1	0.7	0.30000000000000004	6	6	4.199999999999998	1.8000000000000005	valid	0.6831795979996969	53248	0	1	1	51200	0	51200	0	53248	1	0.7	51200	green	brown	1	0	ml	2.7.3	lorasick	sub-05_ses-01_task-ml_proj-lorasick_2020-12-01-14-17-37.181235
278	5	1	6	279	stable	8	200	79	vs	green	brown	brown	green	right	left	0.30000000000000004	0.7	4	6	1.2000000000000002	4.199999999999998	0	1	0.7	0.30000000000000004	6	4	4.199999999999998	1.2000000000000002	valid	0.5332224449994101	53248	0	1	1	51200	0	51200	0	51200	0	0.7	51200	green	brown	1	0	ml	2.7.3	lorasick	sub-05_ses-01_task-ml_proj-lorasick_2020-12-01-14-17-37.181235
279	5	1	6	280	stable	8	200	80	vs	green	brown	brown	green	right	left	0.30000000000000004	0.7	4	6	1.2000000000000002	4.199999999999998	0	1	0.7	0.30000000000000004	6	4	4.199999999999998	1.2000000000000002	valid	0.6665067870017083	53248	0	1	1	51200	0	51200	0	51200	0	0.7	51200	green	brown	1	0	ml	2.7.3	lorasick	sub-05_ses-01_task-ml_proj-lorasick_2020-12-01-14-17-37.181235
280	5	1	6	281	stable	8	200	81	vs	green	brown	brown	green	right	left	0.30000000000000004	0.7	2	10	0.6000000000000001	7.0	0	1	0.7	0.30000000000000004	10	2	7.0	0.6000000000000001	valid	0.3832474990012997	51200	0	0	2	51200	1	51200	1	51200	1	0.7	51200	green	brown	1	10	ml	2.7.3	lorasick	sub-05_ses-01_task-ml_proj-lorasick_2020-12-01-14-17-37.181235
281	5	1	6	282	stable	8	200	82	vs	brown	green	brown	green	left	right	0.30000000000000004	0.7	10	2	3.0000000000000004	1.4	0	1	0.30000000000000004	0.7	10	2	3.0000000000000004	1.4	valid	0.5332149289970403	53248	0	1	2	51200	0	53248	1	51200	0	0.7	53248	green	brown	0	2	ml	2.7.3	lorasick	sub-05_ses-01_task-ml_proj-lorasick_2020-12-01-14-17-37.181235
282	5	1	6	283	stable	8	200	83	vs	brown	green	brown	green	left	right	0.30000000000000004	0.7	2	4	0.6000000000000001	2.8	0	1	0.30000000000000004	0.7	2	4	0.6000000000000001	2.8	valid	0.5332117709986051	53248	0	1	2	53248	1	53248	1	53248	1	0.7	53248	green	brown	1	4	ml	2.7.3	lorasick	sub-05_ses-01_task-ml_proj-lorasick_2020-12-01-14-17-37.181235
283	5	1	6	284	stable	8	200	84	vs	green	brown	brown	green	right	left	0.30000000000000004	0.7	6	4	1.8000000000000005	2.8	0	1	0.7	0.30000000000000004	4	6	2.8	1.8000000000000005	valid	0.4998831640004937	51200	0	0	2	51200	1	51200	1	53248	0	0.7	51200	green	brown	0	4	ml	2.7.3	lorasick	sub-05_ses-01_task-ml_proj-lorasick_2020-12-01-14-17-37.181235
