Unnamed: 0	sub_id	ses_id	block_no	trial_no	phase_type	phase_no	phase_length	trialInPhase_no	phase_type_order	color_left	color_right	color1	color2	position1	position2	prob1	prob2	mag1	mag2	ev1	ev2	outcome1	outcome2	prob_left	prob_right	mag_left	mag_right	ev_left	ev_right	reward_validity	resp_time	resp_key	timeout	choice_side	choice	ev_corr_resp	ev_correct	prob_corr_resp	prob_correct	mag_corr_resp	mag_correct	high_prob	high_prob_side	high_prob_color	low_prob_color	no_brain	reward	name	version	proj_id	logFileID
0	8	1	1	1	stable	1	200	1	sv	red	blue	blue	red	right	left	0.7	0.30000000000000004	6	2	4.199999999999998	0.6000000000000001	1	0	0.30000000000000004	0.7	2	6	0.6000000000000001	4.199999999999998	valid	0.9997479949997796	53248	0	1	1	53248	1	53248	1	53248	1	0.7	53248	blue	red	1	6	ml	2.7.3	lorasick	sub-08_ses-01_task-ml_proj-lorasick_2021-01-12-14-21-05.313377
1	8	1	1	2	stable	1	200	2	sv	blue	red	blue	red	left	right	0.7	0.30000000000000004	4	6	2.8	1.8000000000000005	0	1	0.7	0.30000000000000004	4	6	2.8	1.8000000000000005	invalid	0.8331195329992624	51200	0	0	1	51200	1	51200	1	53248	0	0.7	51200	blue	red	0	0	ml	2.7.3	lorasick	sub-08_ses-01_task-ml_proj-lorasick_2021-01-12-14-21-05.313377
2	8	1	1	3	stable	1	200	3	sv	blue	red	blue	red	left	right	0.7	0.30000000000000004	10	2	7.0	0.6000000000000001	1	0	0.7	0.30000000000000004	10	2	7.0	0.6000000000000001	valid	0.8830970809976861	51200	0	0	1	51200	1	51200	1	51200	1	0.7	51200	blue	red	1	10	ml	2.7.3	lorasick	sub-08_ses-01_task-ml_proj-lorasick_2021-01-12-14-21-05.313377
3	8	1	1	4	stable	1	200	4	sv	red	blue	blue	red	right	left	0.7	0.30000000000000004	6	6	4.199999999999998	1.8000000000000005	1	0	0.30000000000000004	0.7	6	6	1.8000000000000005	4.199999999999998	valid	0.9830919939995509	53248	0	1	1	53248	1	53248	1	53248	1	0.7	53248	blue	red	0	6	ml	2.7.3	lorasick	sub-08_ses-01_task-ml_proj-lorasick_2021-01-12-14-21-05.313377
4	8	1	1	5	stable	1	200	5	sv	blue	red	blue	red	left	right	0.7	0.30000000000000004	2	2	1.4	0.6000000000000001	1	0	0.7	0.30000000000000004	2	2	1.4	0.6000000000000001	valid	1.4162945190000755	53248	0	1	2	51200	0	51200	0	53248	1	0.7	51200	blue	red	1	0	ml	2.7.3	lorasick	sub-08_ses-01_task-ml_proj-lorasick_2021-01-12-14-21-05.313377
5	8	1	1	6	stable	1	200	6	sv	blue	red	blue	red	left	right	0.7	0.30000000000000004	4	2	2.8	0.6000000000000001	0	1	0.7	0.30000000000000004	4	2	2.8	0.6000000000000001	invalid	0.8497826769998937	51200	0	0	1	51200	1	51200	1	51200	1	0.7	51200	blue	red	1	0	ml	2.7.3	lorasick	sub-08_ses-01_task-ml_proj-lorasick_2021-01-12-14-21-05.313377
6	8	1	1	7	stable	1	200	7	sv	red	blue	blue	red	right	left	0.7	0.30000000000000004	6	6	4.199999999999998	1.8000000000000005	0	1	0.30000000000000004	0.7	6	6	1.8000000000000005	4.199999999999998	invalid	0.8497940729976108	53248	0	1	1	53248	1	53248	1	53248	1	0.7	53248	blue	red	0	0	ml	2.7.3	lorasick	sub-08_ses-01_task-ml_proj-lorasick_2021-01-12-14-21-05.313377
7	8	1	1	8	stable	1	200	8	sv	red	blue	blue	red	right	left	0.7	0.30000000000000004	10	2	7.0	0.6000000000000001	1	0	0.30000000000000004	0.7	2	10	0.6000000000000001	7.0	valid	0.9664238030018169	53248	0	1	1	53248	1	53248	1	53248	1	0.7	53248	blue	red	1	10	ml	2.7.3	lorasick	sub-08_ses-01_task-ml_proj-lorasick_2021-01-12-14-21-05.313377
8	8	1	1	9	stable	1	200	9	sv	red	blue	blue	red	right	left	0.7	0.30000000000000004	6	2	4.199999999999998	0.6000000000000001	1	0	0.30000000000000004	0.7	2	6	0.6000000000000001	4.199999999999998	valid	0.916426434996538	51200	0	0	2	53248	0	53248	0	53248	0	0.7	53248	blue	red	1	0	ml	2.7.3	lorasick	sub-08_ses-01_task-ml_proj-lorasick_2021-01-12-14-21-05.313377
9	8	1	1	10	stable	1	200	10	sv	blue	red	blue	red	left	right	0.7	0.30000000000000004	4	6	2.8	1.8000000000000005	1	0	0.7	0.30000000000000004	4	6	2.8	1.8000000000000005	valid	1.0997204270024667	53248	0	1	2	51200	0	51200	0	53248	1	0.7	51200	blue	red	0	0	ml	2.7.3	lorasick	sub-08_ses-01_task-ml_proj-lorasick_2021-01-12-14-21-05.313377
10	8	1	1	11	stable	1	200	11	sv	blue	red	blue	red	left	right	0.7	0.30000000000000004	6	4	4.199999999999998	1.2000000000000002	1	0	0.7	0.30000000000000004	6	4	4.199999999999998	1.2000000000000002	valid	0.7831337530005841	51200	0	0	1	51200	1	51200	1	51200	1	0.7	51200	blue	red	1	6	ml	2.7.3	lorasick	sub-08_ses-01_task-ml_proj-lorasick_2021-01-12-14-21-05.313377
11	8	1	1	12	stable	1	200	12	sv	blue	red	blue	red	left	right	0.7	0.30000000000000004	2	6	1.4	1.8000000000000005	0	1	0.7	0.30000000000000004	2	6	1.4	1.8000000000000005	invalid	1.1497070069999609	53248	0	1	2	53248	1	51200	0	53248	1	0.7	51200	blue	red	0	6	ml	2.7.3	lorasick	sub-08_ses-01_task-ml_proj-lorasick_2021-01-12-14-21-05.313377
12	8	1	1	13	stable	1	200	13	sv	red	blue	blue	red	right	left	0.7	0.30000000000000004	4	2	2.8	0.6000000000000001	1	0	0.30000000000000004	0.7	2	4	0.6000000000000001	2.8	valid	0.9330921089967888	51200	0	0	2	53248	0	53248	0	53248	0	0.7	53248	blue	red	1	0	ml	2.7.3	lorasick	sub-08_ses-01_task-ml_proj-lorasick_2021-01-12-14-21-05.313377
13	8	1	1	14	stable	1	200	14	sv	blue	red	blue	red	left	right	0.7	0.30000000000000004	4	2	2.8	0.6000000000000001	1	0	0.7	0.30000000000000004	4	2	2.8	0.6000000000000001	valid	1.3329752319987165	51200	0	0	1	51200	1	51200	1	51200	1	0.7	51200	blue	red	1	4	ml	2.7.3	lorasick	sub-08_ses-01_task-ml_proj-lorasick_2021-01-12-14-21-05.313377
14	8	1	1	15	stable	1	200	15	sv	blue	red	blue	red	left	right	0.7	0.30000000000000004	10	2	7.0	0.6000000000000001	1	0	0.7	0.30000000000000004	10	2	7.0	0.6000000000000001	valid	0.8164561349985888	51200	0	0	1	51200	1	51200	1	51200	1	0.7	51200	blue	red	1	10	ml	2.7.3	lorasick	sub-08_ses-01_task-ml_proj-lorasick_2021-01-12-14-21-05.313377
15	8	1	1	16	stable	1	200	16	sv	blue	red	blue	red	left	right	0.7	0.30000000000000004	2	4	1.4	1.2000000000000002	1	0	0.7	0.30000000000000004	2	4	1.4	1.2000000000000002	valid	0.8997771850008576	53248	0	1	2	51200	0	51200	0	53248	1	0.7	51200	blue	red	0	0	ml	2.7.3	lorasick	sub-08_ses-01_task-ml_proj-lorasick_2021-01-12-14-21-05.313377
16	8	1	1	17	stable	1	200	17	sv	blue	red	blue	red	left	right	0.7	0.30000000000000004	6	2	4.199999999999998	0.6000000000000001	1	0	0.7	0.30000000000000004	6	2	4.199999999999998	0.6000000000000001	valid	0.6498403069999767	51200	0	0	1	51200	1	51200	1	51200	1	0.7	51200	blue	red	1	6	ml	2.7.3	lorasick	sub-08_ses-01_task-ml_proj-lorasick_2021-01-12-14-21-05.313377
17	8	1	1	18	stable	1	200	18	sv	blue	red	blue	red	left	right	0.7	0.30000000000000004	6	2	4.199999999999998	0.6000000000000001	1	0	0.7	0.30000000000000004	6	2	4.199999999999998	0.6000000000000001	valid	0.8331189400014409	51200	0	0	1	51200	1	51200	1	51200	1	0.7	51200	blue	red	1	6	ml	2.7.3	lorasick	sub-08_ses-01_task-ml_proj-lorasick_2021-01-12-14-21-05.313377
18	8	1	1	19	stable	1	200	19	sv	red	blue	blue	red	right	left	0.7	0.30000000000000004	4	6	2.8	1.8000000000000005	0	1	0.30000000000000004	0.7	6	4	1.8000000000000005	2.8	invalid	0.6998337769982754	53248	0	1	1	53248	1	53248	1	51200	0	0.7	53248	blue	red	0	0	ml	2.7.3	lorasick	sub-08_ses-01_task-ml_proj-lorasick_2021-01-12-14-21-05.313377
19	8	1	1	20	stable	1	200	20	sv	red	blue	blue	red	right	left	0.7	0.30000000000000004	6	2	4.199999999999998	0.6000000000000001	1	0	0.30000000000000004	0.7	2	6	0.6000000000000001	4.199999999999998	valid	0.9664233729999978	53248	0	1	1	53248	1	53248	1	53248	1	0.7	53248	blue	red	1	6	ml	2.7.3	lorasick	sub-08_ses-01_task-ml_proj-lorasick_2021-01-12-14-21-05.313377
20	8	1	1	21	stable	1	200	21	sv	blue	red	blue	red	left	right	0.7	0.30000000000000004	4	2	2.8	0.6000000000000001	1	0	0.7	0.30000000000000004	4	2	2.8	0.6000000000000001	valid	0.7331520549996642	51200	0	0	1	51200	1	51200	1	51200	1	0.7	51200	blue	red	1	4	ml	2.7.3	lorasick	sub-08_ses-01_task-ml_proj-lorasick_2021-01-12-14-21-05.313377
21	8	1	1	22	stable	1	200	22	sv	red	blue	blue	red	right	left	0.7	0.30000000000000004	2	4	1.4	1.2000000000000002	0	1	0.30000000000000004	0.7	4	2	1.2000000000000002	1.4	invalid	1.0330599910012097	51200	0	0	2	53248	0	53248	0	51200	1	0.7	53248	blue	red	0	4	ml	2.7.3	lorasick	sub-08_ses-01_task-ml_proj-lorasick_2021-01-12-14-21-05.313377
22	8	1	1	23	stable	1	200	23	sv	red	blue	blue	red	right	left	0.7	0.30000000000000004	10	2	7.0	0.6000000000000001	1	0	0.30000000000000004	0.7	2	10	0.6000000000000001	7.0	valid	0.6998350069989101	53248	0	1	1	53248	1	53248	1	53248	1	0.7	53248	blue	red	1	10	ml	2.7.3	lorasick	sub-08_ses-01_task-ml_proj-lorasick_2021-01-12-14-21-05.313377
23	8	1	1	24	stable	1	200	24	sv	blue	red	blue	red	left	right	0.7	0.30000000000000004	4	6	2.8	1.8000000000000005	1	0	0.7	0.30000000000000004	4	6	2.8	1.8000000000000005	valid	0.6498384059996171	51200	0	0	1	51200	1	51200	1	53248	0	0.7	51200	blue	red	0	4	ml	2.7.3	lorasick	sub-08_ses-01_task-ml_proj-lorasick_2021-01-12-14-21-05.313377
24	8	1	1	25	stable	1	200	25	sv	red	blue	blue	red	right	left	0.7	0.30000000000000004	2	6	1.4	1.8000000000000005	1	0	0.30000000000000004	0.7	6	2	1.8000000000000005	1.4	valid	0.849774198999512	51200	0	0	2	51200	1	53248	0	51200	1	0.7	53248	blue	red	0	0	ml	2.7.3	lorasick	sub-08_ses-01_task-ml_proj-lorasick_2021-01-12-14-21-05.313377
25	8	1	1	26	stable	1	200	26	sv	red	blue	blue	red	right	left	0.7	0.30000000000000004	2	10	1.4	3.0000000000000004	0	1	0.30000000000000004	0.7	10	2	3.0000000000000004	1.4	invalid	0.8331189800010179	51200	0	0	2	51200	1	53248	0	51200	1	0.7	53248	blue	red	0	10	ml	2.7.3	lorasick	sub-08_ses-01_task-ml_proj-lorasick_2021-01-12-14-21-05.313377
26	8	1	1	27	stable	1	200	27	sv	blue	red	blue	red	left	right	0.7	0.30000000000000004	10	2	7.0	0.6000000000000001	1	0	0.7	0.30000000000000004	10	2	7.0	0.6000000000000001	valid	1.1996802160028892	51200	0	0	1	51200	1	51200	1	51200	1	0.7	51200	blue	red	1	10	ml	2.7.3	lorasick	sub-08_ses-01_task-ml_proj-lorasick_2021-01-12-14-21-05.313377
27	8	1	1	28	stable	1	200	28	sv	red	blue	blue	red	right	left	0.7	0.30000000000000004	6	6	4.199999999999998	1.8000000000000005	0	1	0.30000000000000004	0.7	6	6	1.8000000000000005	4.199999999999998	invalid	0.9164398479988448	53248	0	1	1	53248	1	53248	1	53248	1	0.7	53248	blue	red	0	0	ml	2.7.3	lorasick	sub-08_ses-01_task-ml_proj-lorasick_2021-01-12-14-21-05.313377
28	8	1	1	29	stable	1	200	29	sv	red	blue	blue	red	right	left	0.7	0.30000000000000004	6	6	4.199999999999998	1.8000000000000005	0	1	0.30000000000000004	0.7	6	6	1.8000000000000005	4.199999999999998	invalid	0.8164643679992878	51200	0	0	2	53248	0	53248	0	53248	0	0.7	53248	blue	red	0	6	ml	2.7.3	lorasick	sub-08_ses-01_task-ml_proj-lorasick_2021-01-12-14-21-05.313377
29	8	1	1	30	stable	1	200	30	sv	blue	red	blue	red	left	right	0.7	0.30000000000000004	2	6	1.4	1.8000000000000005	0	1	0.7	0.30000000000000004	2	6	1.4	1.8000000000000005	invalid	0.7998030929993547	53248	0	1	2	53248	1	51200	0	53248	1	0.7	51200	blue	red	0	6	ml	2.7.3	lorasick	sub-08_ses-01_task-ml_proj-lorasick_2021-01-12-14-21-05.313377
30	8	1	1	31	stable	1	200	31	sv	red	blue	blue	red	right	left	0.7	0.30000000000000004	2	2	1.4	0.6000000000000001	1	0	0.30000000000000004	0.7	2	2	0.6000000000000001	1.4	valid	0.8997740449995035	53248	0	1	1	53248	1	53248	1	53248	1	0.7	53248	blue	red	0	2	ml	2.7.3	lorasick	sub-08_ses-01_task-ml_proj-lorasick_2021-01-12-14-21-05.313377
31	8	1	1	32	stable	1	200	32	sv	blue	red	blue	red	left	right	0.7	0.30000000000000004	2	4	1.4	1.2000000000000002	1	0	0.7	0.30000000000000004	2	4	1.4	1.2000000000000002	valid	1.2496672079978453	51200	0	0	1	51200	1	51200	1	53248	0	0.7	51200	blue	red	0	2	ml	2.7.3	lorasick	sub-08_ses-01_task-ml_proj-lorasick_2021-01-12-14-21-05.313377
32	8	1	1	33	stable	1	200	33	sv	blue	red	blue	red	left	right	0.7	0.30000000000000004	4	2	2.8	0.6000000000000001	1	0	0.7	0.30000000000000004	4	2	2.8	0.6000000000000001	valid	1.1663582430010138	51200	0	0	1	51200	1	51200	1	51200	1	0.7	51200	blue	red	1	4	ml	2.7.3	lorasick	sub-08_ses-01_task-ml_proj-lorasick_2021-01-12-14-21-05.313377
33	8	1	1	34	stable	1	200	34	sv	red	blue	blue	red	right	left	0.7	0.30000000000000004	4	6	2.8	1.8000000000000005	0	1	0.30000000000000004	0.7	6	4	1.8000000000000005	2.8	invalid	0.9497607659977804	51200	0	0	2	53248	0	53248	0	51200	1	0.7	53248	blue	red	0	6	ml	2.7.3	lorasick	sub-08_ses-01_task-ml_proj-lorasick_2021-01-12-14-21-05.313377
34	8	1	1	35	stable	1	200	35	sv	blue	red	blue	red	left	right	0.7	0.30000000000000004	2	10	1.4	3.0000000000000004	0	1	0.7	0.30000000000000004	2	10	1.4	3.0000000000000004	invalid	0.8164669530015091	53248	0	1	2	53248	1	51200	0	53248	1	0.7	51200	blue	red	0	10	ml	2.7.3	lorasick	sub-08_ses-01_task-ml_proj-lorasick_2021-01-12-14-21-05.313377
35	8	1	1	36	stable	1	200	36	sv	blue	red	blue	red	left	right	0.7	0.30000000000000004	4	6	2.8	1.8000000000000005	1	0	0.7	0.30000000000000004	4	6	2.8	1.8000000000000005	valid	0.8164672870007053	53248	0	1	2	51200	0	51200	0	53248	1	0.7	51200	blue	red	0	0	ml	2.7.3	lorasick	sub-08_ses-01_task-ml_proj-lorasick_2021-01-12-14-21-05.313377
36	8	1	1	37	stable	1	200	37	sv	red	blue	blue	red	right	left	0.7	0.30000000000000004	6	4	4.199999999999998	1.2000000000000002	1	0	0.30000000000000004	0.7	4	6	1.2000000000000002	4.199999999999998	valid	0.9830874860017502	53248	0	1	1	53248	1	53248	1	53248	1	0.7	53248	blue	red	1	6	ml	2.7.3	lorasick	sub-08_ses-01_task-ml_proj-lorasick_2021-01-12-14-21-05.313377
37	8	1	1	38	stable	1	200	38	sv	blue	red	blue	red	left	right	0.7	0.30000000000000004	6	4	4.199999999999998	1.2000000000000002	1	0	0.7	0.30000000000000004	6	4	4.199999999999998	1.2000000000000002	valid	0.7498101170021982	51200	0	0	1	51200	1	51200	1	51200	1	0.7	51200	blue	red	1	6	ml	2.7.3	lorasick	sub-08_ses-01_task-ml_proj-lorasick_2021-01-12-14-21-05.313377
38	8	1	1	39	stable	1	200	39	sv	red	blue	blue	red	right	left	0.7	0.30000000000000004	2	10	1.4	3.0000000000000004	1	0	0.30000000000000004	0.7	10	2	3.0000000000000004	1.4	valid	0.8831052349996753	51200	0	0	2	51200	1	53248	0	51200	1	0.7	53248	blue	red	0	0	ml	2.7.3	lorasick	sub-08_ses-01_task-ml_proj-lorasick_2021-01-12-14-21-05.313377
39	8	1	1	40	stable	1	200	40	sv	red	blue	blue	red	right	left	0.7	0.30000000000000004	4	2	2.8	0.6000000000000001	0	1	0.30000000000000004	0.7	2	4	0.6000000000000001	2.8	invalid	0.7998069310015126	53248	0	1	1	53248	1	53248	1	53248	1	0.7	53248	blue	red	1	0	ml	2.7.3	lorasick	sub-08_ses-01_task-ml_proj-lorasick_2021-01-12-14-21-05.313377
40	8	1	1	41	stable	1	200	41	sv	red	blue	blue	red	right	left	0.7	0.30000000000000004	2	2	1.4	0.6000000000000001	1	0	0.30000000000000004	0.7	2	2	0.6000000000000001	1.4	valid	0.9664252459988348	53248	0	1	1	53248	1	53248	1	53248	1	0.7	53248	blue	red	0	2	ml	2.7.3	lorasick	sub-08_ses-01_task-ml_proj-lorasick_2021-01-12-14-21-05.313377
41	8	1	1	42	stable	1	200	42	sv	blue	red	blue	red	left	right	0.7	0.30000000000000004	6	2	4.199999999999998	0.6000000000000001	1	0	0.7	0.30000000000000004	6	2	4.199999999999998	0.6000000000000001	valid	0.5332048239979486	51200	0	0	1	51200	1	51200	1	51200	1	0.7	51200	blue	red	1	6	ml	2.7.3	lorasick	sub-08_ses-01_task-ml_proj-lorasick_2021-01-12-14-21-05.313377
42	8	1	1	43	stable	1	200	43	sv	blue	red	blue	red	left	right	0.7	0.30000000000000004	6	6	4.199999999999998	1.8000000000000005	0	1	0.7	0.30000000000000004	6	6	4.199999999999998	1.8000000000000005	invalid	0.7331643619982059	53248	0	1	2	51200	0	51200	0	53248	1	0.7	51200	blue	red	1	6	ml	2.7.3	lorasick	sub-08_ses-01_task-ml_proj-lorasick_2021-01-12-14-21-05.313377
43	8	1	1	44	stable	1	200	44	sv	blue	red	blue	red	left	right	0.7	0.30000000000000004	2	2	1.4	0.6000000000000001	0	1	0.7	0.30000000000000004	2	2	1.4	0.6000000000000001	invalid	0.7997964919995866	51200	0	0	1	51200	1	51200	1	53248	0	0.7	51200	blue	red	1	0	ml	2.7.3	lorasick	sub-08_ses-01_task-ml_proj-lorasick_2021-01-12-14-21-05.313377
44	8	1	1	45	stable	1	200	45	sv	red	blue	blue	red	right	left	0.7	0.30000000000000004	10	2	7.0	0.6000000000000001	0	1	0.30000000000000004	0.7	2	10	0.6000000000000001	7.0	invalid	0.9997441619998426	53248	0	1	1	53248	1	53248	1	53248	1	0.7	53248	blue	red	1	0	ml	2.7.3	lorasick	sub-08_ses-01_task-ml_proj-lorasick_2021-01-12-14-21-05.313377
45	8	1	1	46	stable	1	200	46	sv	blue	red	blue	red	left	right	0.7	0.30000000000000004	6	4	4.199999999999998	1.2000000000000002	1	0	0.7	0.30000000000000004	6	4	4.199999999999998	1.2000000000000002	valid	0.8664422339970771	51200	0	0	1	51200	1	51200	1	51200	1	0.7	51200	blue	red	1	6	ml	2.7.3	lorasick	sub-08_ses-01_task-ml_proj-lorasick_2021-01-12-14-21-05.313377
46	8	1	1	47	stable	1	200	47	sv	red	blue	blue	red	right	left	0.7	0.30000000000000004	4	2	2.8	0.6000000000000001	0	1	0.30000000000000004	0.7	2	4	0.6000000000000001	2.8	invalid	0.7998085580002225	53248	0	1	1	53248	1	53248	1	53248	1	0.7	53248	blue	red	1	0	ml	2.7.3	lorasick	sub-08_ses-01_task-ml_proj-lorasick_2021-01-12-14-21-05.313377
47	8	1	1	48	stable	1	200	48	sv	blue	red	blue	red	left	right	0.7	0.30000000000000004	2	10	1.4	3.0000000000000004	0	1	0.7	0.30000000000000004	2	10	1.4	3.0000000000000004	invalid	0.949767926998902	53248	0	1	2	53248	1	51200	0	53248	1	0.7	51200	blue	red	0	10	ml	2.7.3	lorasick	sub-08_ses-01_task-ml_proj-lorasick_2021-01-12-14-21-05.313377
48	8	1	1	49	stable	1	200	49	sv	blue	red	blue	red	left	right	0.7	0.30000000000000004	6	2	4.199999999999998	0.6000000000000001	1	0	0.7	0.30000000000000004	6	2	4.199999999999998	0.6000000000000001	valid	1.1830178320014966	51200	0	0	1	51200	1	51200	1	51200	1	0.7	51200	blue	red	1	6	ml	2.7.3	lorasick	sub-08_ses-01_task-ml_proj-lorasick_2021-01-12-14-21-05.313377
49	8	1	1	50	stable	1	200	50	sv	red	blue	blue	red	right	left	0.7	0.30000000000000004	4	2	2.8	0.6000000000000001	1	0	0.30000000000000004	0.7	2	4	0.6000000000000001	2.8	valid	0.899776688998827	53248	0	1	1	53248	1	53248	1	53248	1	0.7	53248	blue	red	1	4	ml	2.7.3	lorasick	sub-08_ses-01_task-ml_proj-lorasick_2021-01-12-14-21-05.313377
50	8	1	2	51	stable	1	200	51	sv	red	blue	blue	red	right	left	0.7	0.30000000000000004	2	2	1.4	0.6000000000000001	1	0	0.30000000000000004	0.7	2	2	0.6000000000000001	1.4	valid	1.0663851190001878	51200	0	0	2	53248	0	53248	0	53248	0	0.7	53248	blue	red	0	0	ml	2.7.3	lorasick	sub-08_ses-01_task-ml_proj-lorasick_2021-01-12-14-21-05.313377
51	8	1	2	52	stable	1	200	52	sv	blue	red	blue	red	left	right	0.7	0.30000000000000004	4	6	2.8	1.8000000000000005	1	0	0.7	0.30000000000000004	4	6	2.8	1.8000000000000005	valid	0.7831428120007331	53248	0	1	2	51200	0	51200	0	53248	1	0.7	51200	blue	red	0	0	ml	2.7.3	lorasick	sub-08_ses-01_task-ml_proj-lorasick_2021-01-12-14-21-05.313377
52	8	1	2	53	stable	1	200	53	sv	blue	red	blue	red	left	right	0.7	0.30000000000000004	4	2	2.8	0.6000000000000001	1	0	0.7	0.30000000000000004	4	2	2.8	0.6000000000000001	valid	1.0830476289993385	51200	0	0	1	51200	1	51200	1	51200	1	0.7	51200	blue	red	1	4	ml	2.7.3	lorasick	sub-08_ses-01_task-ml_proj-lorasick_2021-01-12-14-21-05.313377
53	8	1	2	54	stable	1	200	54	sv	red	blue	blue	red	right	left	0.7	0.30000000000000004	6	6	4.199999999999998	1.8000000000000005	1	0	0.30000000000000004	0.7	6	6	1.8000000000000005	4.199999999999998	valid	1.3329871989990352	53248	0	1	1	53248	1	53248	1	53248	1	0.7	53248	blue	red	0	6	ml	2.7.3	lorasick	sub-08_ses-01_task-ml_proj-lorasick_2021-01-12-14-21-05.313377
54	8	1	2	55	stable	1	200	55	sv	red	blue	blue	red	right	left	0.7	0.30000000000000004	4	2	2.8	0.6000000000000001	1	0	0.30000000000000004	0.7	2	4	0.6000000000000001	2.8	valid	0.9997551990018109	53248	0	1	1	53248	1	53248	1	53248	1	0.7	53248	blue	red	1	4	ml	2.7.3	lorasick	sub-08_ses-01_task-ml_proj-lorasick_2021-01-12-14-21-05.313377
55	8	1	2	56	stable	1	200	56	sv	blue	red	blue	red	left	right	0.7	0.30000000000000004	2	2	1.4	0.6000000000000001	0	1	0.7	0.30000000000000004	2	2	1.4	0.6000000000000001	invalid	0.8831041580015153	51200	0	0	1	51200	1	51200	1	53248	0	0.7	51200	blue	red	1	0	ml	2.7.3	lorasick	sub-08_ses-01_task-ml_proj-lorasick_2021-01-12-14-21-05.313377
56	8	1	2	57	stable	1	200	57	sv	red	blue	blue	red	right	left	0.7	0.30000000000000004	2	2	1.4	0.6000000000000001	0	1	0.30000000000000004	0.7	2	2	0.6000000000000001	1.4	invalid	0.9497696389989868	53248	0	1	1	53248	1	53248	1	53248	1	0.7	53248	blue	red	0	0	ml	2.7.3	lorasick	sub-08_ses-01_task-ml_proj-lorasick_2021-01-12-14-21-05.313377
57	8	1	2	58	stable	1	200	58	sv	blue	red	blue	red	left	right	0.7	0.30000000000000004	4	2	2.8	0.6000000000000001	0	1	0.7	0.30000000000000004	4	2	2.8	0.6000000000000001	invalid	0.8164592719986103	51200	0	0	1	51200	1	51200	1	51200	1	0.7	51200	blue	red	1	0	ml	2.7.3	lorasick	sub-08_ses-01_task-ml_proj-lorasick_2021-01-12-14-21-05.313377
58	8	1	2	59	stable	1	200	59	sv	blue	red	blue	red	left	right	0.7	0.30000000000000004	4	6	2.8	1.8000000000000005	1	0	0.7	0.30000000000000004	4	6	2.8	1.8000000000000005	valid	0.7164918150010635	53248	0	1	2	51200	0	51200	0	53248	1	0.7	51200	blue	red	0	0	ml	2.7.3	lorasick	sub-08_ses-01_task-ml_proj-lorasick_2021-01-12-14-21-05.313377
59	8	1	2	60	stable	1	200	60	sv	red	blue	blue	red	right	left	0.7	0.30000000000000004	4	2	2.8	0.6000000000000001	1	0	0.30000000000000004	0.7	2	4	0.6000000000000001	2.8	valid	1.4496193470004073	53248	0	1	1	53248	1	53248	1	53248	1	0.7	53248	blue	red	1	4	ml	2.7.3	lorasick	sub-08_ses-01_task-ml_proj-lorasick_2021-01-12-14-21-05.313377
60	8	1	2	61	stable	1	200	61	sv	red	blue	blue	red	right	left	0.7	0.30000000000000004	6	6	4.199999999999998	1.8000000000000005	1	0	0.30000000000000004	0.7	6	6	1.8000000000000005	4.199999999999998	valid	0.7998065669999049	53248	0	1	1	53248	1	53248	1	53248	1	0.7	53248	blue	red	0	6	ml	2.7.3	lorasick	sub-08_ses-01_task-ml_proj-lorasick_2021-01-12-14-21-05.313377
61	8	1	2	62	stable	1	200	62	sv	red	blue	blue	red	right	left	0.7	0.30000000000000004	6	6	4.199999999999998	1.8000000000000005	1	0	0.30000000000000004	0.7	6	6	1.8000000000000005	4.199999999999998	valid	0.9997492589973264	53248	0	1	1	53248	1	53248	1	53248	1	0.7	53248	blue	red	0	6	ml	2.7.3	lorasick	sub-08_ses-01_task-ml_proj-lorasick_2021-01-12-14-21-05.313377
62	8	1	2	63	stable	1	200	63	sv	blue	red	blue	red	left	right	0.7	0.30000000000000004	10	2	7.0	0.6000000000000001	1	0	0.7	0.30000000000000004	10	2	7.0	0.6000000000000001	valid	1.4496161999995818	53248	0	1	2	51200	0	51200	0	51200	0	0.7	51200	blue	red	1	0	ml	2.7.3	lorasick	sub-08_ses-01_task-ml_proj-lorasick_2021-01-12-14-21-05.313377
63	8	1	2	64	stable	1	200	64	sv	blue	red	blue	red	left	right	0.7	0.30000000000000004	2	6	1.4	1.8000000000000005	1	0	0.7	0.30000000000000004	2	6	1.4	1.8000000000000005	valid	1.0164101839982322	53248	0	1	2	53248	1	51200	0	53248	1	0.7	51200	blue	red	0	0	ml	2.7.3	lorasick	sub-08_ses-01_task-ml_proj-lorasick_2021-01-12-14-21-05.313377
64	8	1	2	65	stable	1	200	65	sv	red	blue	blue	red	right	left	0.7	0.30000000000000004	4	6	2.8	1.8000000000000005	0	1	0.30000000000000004	0.7	6	4	1.8000000000000005	2.8	invalid	0.7331481360015459	51200	0	0	2	53248	0	53248	0	51200	1	0.7	53248	blue	red	0	6	ml	2.7.3	lorasick	sub-08_ses-01_task-ml_proj-lorasick_2021-01-12-14-21-05.313377
65	8	1	2	66	stable	1	200	66	sv	red	blue	blue	red	right	left	0.7	0.30000000000000004	2	4	1.4	1.2000000000000002	1	0	0.30000000000000004	0.7	4	2	1.2000000000000002	1.4	valid	0.5831842189982126	51200	0	0	2	53248	0	53248	0	51200	1	0.7	53248	blue	red	0	0	ml	2.7.3	lorasick	sub-08_ses-01_task-ml_proj-lorasick_2021-01-12-14-21-05.313377
66	8	1	2	67	stable	1	200	67	sv	red	blue	blue	red	right	left	0.7	0.30000000000000004	2	2	1.4	0.6000000000000001	0	1	0.30000000000000004	0.7	2	2	0.6000000000000001	1.4	invalid	0.9331009480010836	53248	0	1	1	53248	1	53248	1	53248	1	0.7	53248	blue	red	0	0	ml	2.7.3	lorasick	sub-08_ses-01_task-ml_proj-lorasick_2021-01-12-14-21-05.313377
67	8	1	2	68	stable	1	200	68	sv	red	blue	blue	red	right	left	0.7	0.30000000000000004	2	10	1.4	3.0000000000000004	1	0	0.30000000000000004	0.7	10	2	3.0000000000000004	1.4	valid	0.7164850959998148	51200	0	0	2	51200	1	53248	0	51200	1	0.7	53248	blue	red	0	0	ml	2.7.3	lorasick	sub-08_ses-01_task-ml_proj-lorasick_2021-01-12-14-21-05.313377
68	8	1	2	69	stable	1	200	69	sv	red	blue	blue	red	right	left	0.7	0.30000000000000004	2	6	1.4	1.8000000000000005	1	0	0.30000000000000004	0.7	6	2	1.8000000000000005	1.4	valid	0.7831304449973686	51200	0	0	2	51200	1	53248	0	51200	1	0.7	53248	blue	red	0	0	ml	2.7.3	lorasick	sub-08_ses-01_task-ml_proj-lorasick_2021-01-12-14-21-05.313377
69	8	1	2	70	stable	1	200	70	sv	blue	red	blue	red	left	right	0.7	0.30000000000000004	4	2	2.8	0.6000000000000001	1	0	0.7	0.30000000000000004	4	2	2.8	0.6000000000000001	valid	0.7331592720001936	53248	0	1	2	51200	0	51200	0	51200	0	0.7	51200	blue	red	1	0	ml	2.7.3	lorasick	sub-08_ses-01_task-ml_proj-lorasick_2021-01-12-14-21-05.313377
70	8	1	2	71	stable	1	200	71	sv	red	blue	blue	red	right	left	0.7	0.30000000000000004	2	2	1.4	0.6000000000000001	0	1	0.30000000000000004	0.7	2	2	0.6000000000000001	1.4	invalid	0.8497912759994506	53248	0	1	1	53248	1	53248	1	53248	1	0.7	53248	blue	red	0	0	ml	2.7.3	lorasick	sub-08_ses-01_task-ml_proj-lorasick_2021-01-12-14-21-05.313377
71	8	1	2	72	stable	1	200	72	sv	blue	red	blue	red	left	right	0.7	0.30000000000000004	6	6	4.199999999999998	1.8000000000000005	1	0	0.7	0.30000000000000004	6	6	4.199999999999998	1.8000000000000005	valid	0.5498674730006314	51200	0	0	1	51200	1	51200	1	53248	0	0.7	51200	blue	red	1	6	ml	2.7.3	lorasick	sub-08_ses-01_task-ml_proj-lorasick_2021-01-12-14-21-05.313377
72	8	1	2	73	stable	1	200	73	sv	blue	red	blue	red	left	right	0.7	0.30000000000000004	2	2	1.4	0.6000000000000001	1	0	0.7	0.30000000000000004	2	2	1.4	0.6000000000000001	valid	0.8331241380001302	51200	0	0	1	51200	1	51200	1	53248	0	0.7	51200	blue	red	1	2	ml	2.7.3	lorasick	sub-08_ses-01_task-ml_proj-lorasick_2021-01-12-14-21-05.313377
73	8	1	2	74	stable	1	200	74	sv	red	blue	blue	red	right	left	0.7	0.30000000000000004	10	2	7.0	0.6000000000000001	1	0	0.30000000000000004	0.7	2	10	0.6000000000000001	7.0	valid	1.4829357290000191	53248	0	1	1	53248	1	53248	1	53248	1	0.7	53248	blue	red	1	10	ml	2.7.3	lorasick	sub-08_ses-01_task-ml_proj-lorasick_2021-01-12-14-21-05.313377
74	8	1	2	75	stable	1	200	75	sv	blue	red	blue	red	left	right	0.7	0.30000000000000004	6	4	4.199999999999998	1.2000000000000002	1	0	0.7	0.30000000000000004	6	4	4.199999999999998	1.2000000000000002	valid	0.9330964610016964	51200	0	0	1	51200	1	51200	1	51200	1	0.7	51200	blue	red	1	6	ml	2.7.3	lorasick	sub-08_ses-01_task-ml_proj-lorasick_2021-01-12-14-21-05.313377
75	8	1	2	76	stable	1	200	76	sv	red	blue	blue	red	right	left	0.7	0.30000000000000004	10	2	7.0	0.6000000000000001	1	0	0.30000000000000004	0.7	2	10	0.6000000000000001	7.0	valid	0.7664828009983466	53248	0	1	1	53248	1	53248	1	53248	1	0.7	53248	blue	red	1	10	ml	2.7.3	lorasick	sub-08_ses-01_task-ml_proj-lorasick_2021-01-12-14-21-05.313377
76	8	1	2	77	stable	1	200	77	sv	red	blue	blue	red	right	left	0.7	0.30000000000000004	6	2	4.199999999999998	0.6000000000000001	1	0	0.30000000000000004	0.7	2	6	0.6000000000000001	4.199999999999998	valid	0.7498180020011205	53248	0	1	1	53248	1	53248	1	53248	1	0.7	53248	blue	red	1	6	ml	2.7.3	lorasick	sub-08_ses-01_task-ml_proj-lorasick_2021-01-12-14-21-05.313377
77	8	1	2	78	stable	1	200	78	sv	blue	red	blue	red	left	right	0.7	0.30000000000000004	4	6	2.8	1.8000000000000005	1	0	0.7	0.30000000000000004	4	6	2.8	1.8000000000000005	valid	1.2163424459977252	51200	0	0	1	51200	1	51200	1	53248	0	0.7	51200	blue	red	0	4	ml	2.7.3	lorasick	sub-08_ses-01_task-ml_proj-lorasick_2021-01-12-14-21-05.313377
78	8	1	2	79	stable	1	200	79	sv	blue	red	blue	red	left	right	0.7	0.30000000000000004	4	6	2.8	1.8000000000000005	1	0	0.7	0.30000000000000004	4	6	2.8	1.8000000000000005	valid	0.6665023360001214	51200	0	0	1	51200	1	51200	1	53248	0	0.7	51200	blue	red	0	4	ml	2.7.3	lorasick	sub-08_ses-01_task-ml_proj-lorasick_2021-01-12-14-21-05.313377
79	8	1	2	80	stable	1	200	80	sv	blue	red	blue	red	left	right	0.7	0.30000000000000004	6	4	4.199999999999998	1.2000000000000002	0	1	0.7	0.30000000000000004	6	4	4.199999999999998	1.2000000000000002	invalid	0.5831910639972193	51200	0	0	1	51200	1	51200	1	51200	1	0.7	51200	blue	red	1	0	ml	2.7.3	lorasick	sub-08_ses-01_task-ml_proj-lorasick_2021-01-12-14-21-05.313377
80	8	1	2	81	stable	1	200	81	sv	blue	red	blue	red	left	right	0.7	0.30000000000000004	2	10	1.4	3.0000000000000004	1	0	0.7	0.30000000000000004	2	10	1.4	3.0000000000000004	valid	0.8997797480005829	53248	0	1	2	53248	1	51200	0	53248	1	0.7	51200	blue	red	0	0	ml	2.7.3	lorasick	sub-08_ses-01_task-ml_proj-lorasick_2021-01-12-14-21-05.313377
81	8	1	2	82	stable	1	200	82	sv	red	blue	blue	red	right	left	0.7	0.30000000000000004	2	6	1.4	1.8000000000000005	1	0	0.30000000000000004	0.7	6	2	1.8000000000000005	1.4	valid	0.9164318129987804	51200	0	0	2	51200	1	53248	0	51200	1	0.7	53248	blue	red	0	0	ml	2.7.3	lorasick	sub-08_ses-01_task-ml_proj-lorasick_2021-01-12-14-21-05.313377
82	8	1	2	83	stable	1	200	83	sv	red	blue	blue	red	right	left	0.7	0.30000000000000004	6	4	4.199999999999998	1.2000000000000002	1	0	0.30000000000000004	0.7	4	6	1.2000000000000002	4.199999999999998	valid	0.6331900320001296	53248	0	1	1	53248	1	53248	1	53248	1	0.7	53248	blue	red	1	6	ml	2.7.3	lorasick	sub-08_ses-01_task-ml_proj-lorasick_2021-01-12-14-21-05.313377
83	8	1	2	84	stable	1	200	84	sv	red	blue	blue	red	right	left	0.7	0.30000000000000004	2	2	1.4	0.6000000000000001	1	0	0.30000000000000004	0.7	2	2	0.6000000000000001	1.4	valid	0.7164926090008521	53248	0	1	1	53248	1	53248	1	53248	1	0.7	53248	blue	red	0	2	ml	2.7.3	lorasick	sub-08_ses-01_task-ml_proj-lorasick_2021-01-12-14-21-05.313377
84	8	1	2	85	stable	1	200	85	sv	blue	red	blue	red	left	right	0.7	0.30000000000000004	2	4	1.4	1.2000000000000002	1	0	0.7	0.30000000000000004	2	4	1.4	1.2000000000000002	valid	0.7664774110016879	51200	0	0	1	51200	1	51200	1	53248	0	0.7	51200	blue	red	0	2	ml	2.7.3	lorasick	sub-08_ses-01_task-ml_proj-lorasick_2021-01-12-14-21-05.313377
85	8	1	2	86	stable	1	200	86	sv	blue	red	blue	red	left	right	0.7	0.30000000000000004	6	4	4.199999999999998	1.2000000000000002	1	0	0.7	0.30000000000000004	6	4	4.199999999999998	1.2000000000000002	valid	0.4998799509994569	51200	0	0	1	51200	1	51200	1	51200	1	0.7	51200	blue	red	1	6	ml	2.7.3	lorasick	sub-08_ses-01_task-ml_proj-lorasick_2021-01-12-14-21-05.313377
86	8	1	2	87	stable	1	200	87	sv	red	blue	blue	red	right	left	0.7	0.30000000000000004	6	2	4.199999999999998	0.6000000000000001	1	0	0.30000000000000004	0.7	2	6	0.6000000000000001	4.199999999999998	valid	0.49989213199660293	53248	0	1	1	53248	1	53248	1	53248	1	0.7	53248	blue	red	1	6	ml	2.7.3	lorasick	sub-08_ses-01_task-ml_proj-lorasick_2021-01-12-14-21-05.313377
87	8	1	2	88	stable	1	200	88	sv	red	blue	blue	red	right	left	0.7	0.30000000000000004	4	6	2.8	1.8000000000000005	0	1	0.30000000000000004	0.7	6	4	1.8000000000000005	2.8	invalid	0.9664137660001869	51200	0	0	2	53248	0	53248	0	51200	1	0.7	53248	blue	red	0	6	ml	2.7.3	lorasick	sub-08_ses-01_task-ml_proj-lorasick_2021-01-12-14-21-05.313377
88	8	1	2	89	stable	1	200	89	sv	blue	red	blue	red	left	right	0.7	0.30000000000000004	6	2	4.199999999999998	0.6000000000000001	0	1	0.7	0.30000000000000004	6	2	4.199999999999998	0.6000000000000001	invalid	0.6165158250005334	51200	0	0	1	51200	1	51200	1	51200	1	0.7	51200	blue	red	1	0	ml	2.7.3	lorasick	sub-08_ses-01_task-ml_proj-lorasick_2021-01-12-14-21-05.313377
89	8	1	2	90	stable	1	200	90	sv	blue	red	blue	red	left	right	0.7	0.30000000000000004	4	6	2.8	1.8000000000000005	1	0	0.7	0.30000000000000004	4	6	2.8	1.8000000000000005	valid	0.6998353320013848	53248	0	1	2	51200	0	51200	0	53248	1	0.7	51200	blue	red	0	0	ml	2.7.3	lorasick	sub-08_ses-01_task-ml_proj-lorasick_2021-01-12-14-21-05.313377
90	8	1	2	91	stable	1	200	91	sv	red	blue	blue	red	right	left	0.7	0.30000000000000004	10	2	7.0	0.6000000000000001	0	1	0.30000000000000004	0.7	2	10	0.6000000000000001	7.0	invalid	0.7164974970000912	53248	0	1	1	53248	1	53248	1	53248	1	0.7	53248	blue	red	1	0	ml	2.7.3	lorasick	sub-08_ses-01_task-ml_proj-lorasick_2021-01-12-14-21-05.313377
91	8	1	2	92	stable	1	200	92	sv	blue	red	blue	red	left	right	0.7	0.30000000000000004	2	4	1.4	1.2000000000000002	1	0	0.7	0.30000000000000004	2	4	1.4	1.2000000000000002	valid	0.8997771460017248	53248	0	1	2	51200	0	51200	0	53248	1	0.7	51200	blue	red	0	0	ml	2.7.3	lorasick	sub-08_ses-01_task-ml_proj-lorasick_2021-01-12-14-21-05.313377
92	8	1	2	93	stable	1	200	93	sv	red	blue	blue	red	right	left	0.7	0.30000000000000004	6	4	4.199999999999998	1.2000000000000002	1	0	0.30000000000000004	0.7	4	6	1.2000000000000002	4.199999999999998	valid	0.7498217499996827	53248	0	1	1	53248	1	53248	1	53248	1	0.7	53248	blue	red	1	6	ml	2.7.3	lorasick	sub-08_ses-01_task-ml_proj-lorasick_2021-01-12-14-21-05.313377
93	8	1	2	94	stable	1	200	94	sv	blue	red	blue	red	left	right	0.7	0.30000000000000004	2	10	1.4	3.0000000000000004	1	0	0.7	0.30000000000000004	2	10	1.4	3.0000000000000004	valid	0.6331879600002139	53248	0	1	2	53248	1	51200	0	53248	1	0.7	51200	blue	red	0	0	ml	2.7.3	lorasick	sub-08_ses-01_task-ml_proj-lorasick_2021-01-12-14-21-05.313377
94	8	1	2	95	stable	1	200	95	sv	blue	red	blue	red	left	right	0.7	0.30000000000000004	6	2	4.199999999999998	0.6000000000000001	0	1	0.7	0.30000000000000004	6	2	4.199999999999998	0.6000000000000001	invalid	0.4332368520008458	51200	0	0	1	51200	1	51200	1	51200	1	0.7	51200	blue	red	1	0	ml	2.7.3	lorasick	sub-08_ses-01_task-ml_proj-lorasick_2021-01-12-14-21-05.313377
95	8	1	2	96	stable	1	200	96	sv	blue	red	blue	red	left	right	0.7	0.30000000000000004	6	6	4.199999999999998	1.8000000000000005	0	1	0.7	0.30000000000000004	6	6	4.199999999999998	1.8000000000000005	invalid	0.6165309320022061	53248	0	1	2	51200	0	51200	0	53248	1	0.7	51200	blue	red	1	6	ml	2.7.3	lorasick	sub-08_ses-01_task-ml_proj-lorasick_2021-01-12-14-21-05.313377
96	8	1	2	97	stable	1	200	97	sv	blue	red	blue	red	left	right	0.7	0.30000000000000004	2	10	1.4	3.0000000000000004	0	1	0.7	0.30000000000000004	2	10	1.4	3.0000000000000004	invalid	0.6331871049987967	53248	0	1	2	53248	1	51200	0	53248	1	0.7	51200	blue	red	0	10	ml	2.7.3	lorasick	sub-08_ses-01_task-ml_proj-lorasick_2021-01-12-14-21-05.313377
97	8	1	2	98	stable	1	200	98	sv	red	blue	blue	red	right	left	0.7	0.30000000000000004	2	4	1.4	1.2000000000000002	1	0	0.30000000000000004	0.7	4	2	1.2000000000000002	1.4	valid	0.5998520279972581	51200	0	0	2	53248	0	53248	0	51200	1	0.7	53248	blue	red	0	0	ml	2.7.3	lorasick	sub-08_ses-01_task-ml_proj-lorasick_2021-01-12-14-21-05.313377
98	8	1	2	99	stable	1	200	99	sv	blue	red	blue	red	left	right	0.7	0.30000000000000004	10	2	7.0	0.6000000000000001	0	1	0.7	0.30000000000000004	10	2	7.0	0.6000000000000001	invalid	0.6664998279993597	51200	0	0	1	51200	1	51200	1	51200	1	0.7	51200	blue	red	1	0	ml	2.7.3	lorasick	sub-08_ses-01_task-ml_proj-lorasick_2021-01-12-14-21-05.313377
99	8	1	2	100	stable	1	200	100	sv	blue	red	blue	red	left	right	0.7	0.30000000000000004	4	6	2.8	1.8000000000000005	1	0	0.7	0.30000000000000004	4	6	2.8	1.8000000000000005	valid	0.5998616619981476	53248	0	1	2	51200	0	51200	0	53248	1	0.7	51200	blue	red	0	0	ml	2.7.3	lorasick	sub-08_ses-01_task-ml_proj-lorasick_2021-01-12-14-21-05.313377
100	8	1	3	101	stable	1	200	101	sv	red	blue	blue	red	right	left	0.7	0.30000000000000004	6	6	4.199999999999998	1.8000000000000005	0	1	0.30000000000000004	0.7	6	6	1.8000000000000005	4.199999999999998	invalid	1.2163427680025052	51200	0	0	2	53248	0	53248	0	53248	0	0.7	53248	blue	red	0	6	ml	2.7.3	lorasick	sub-08_ses-01_task-ml_proj-lorasick_2021-01-12-14-21-05.313377
101	8	1	3	102	stable	1	200	102	sv	red	blue	blue	red	right	left	0.7	0.30000000000000004	10	2	7.0	0.6000000000000001	0	1	0.30000000000000004	0.7	2	10	0.6000000000000001	7.0	invalid	0.7498166520017548	53248	0	1	1	53248	1	53248	1	53248	1	0.7	53248	blue	red	1	0	ml	2.7.3	lorasick	sub-08_ses-01_task-ml_proj-lorasick_2021-01-12-14-21-05.313377
102	8	1	3	103	stable	1	200	103	sv	red	blue	blue	red	right	left	0.7	0.30000000000000004	2	10	1.4	3.0000000000000004	1	0	0.30000000000000004	0.7	10	2	3.0000000000000004	1.4	valid	0.6998303820000729	51200	0	0	2	51200	1	53248	0	51200	1	0.7	53248	blue	red	0	0	ml	2.7.3	lorasick	sub-08_ses-01_task-ml_proj-lorasick_2021-01-12-14-21-05.313377
103	8	1	3	104	stable	1	200	104	sv	red	blue	blue	red	right	left	0.7	0.30000000000000004	2	2	1.4	0.6000000000000001	1	0	0.30000000000000004	0.7	2	2	0.6000000000000001	1.4	valid	0.7664847019987064	53248	0	1	1	53248	1	53248	1	53248	1	0.7	53248	blue	red	0	2	ml	2.7.3	lorasick	sub-08_ses-01_task-ml_proj-lorasick_2021-01-12-14-21-05.313377
104	8	1	3	105	stable	1	200	105	sv	red	blue	blue	red	right	left	0.7	0.30000000000000004	4	2	2.8	0.6000000000000001	1	0	0.30000000000000004	0.7	2	4	0.6000000000000001	2.8	valid	0.6331927959981839	53248	0	1	1	53248	1	53248	1	53248	1	0.7	53248	blue	red	1	4	ml	2.7.3	lorasick	sub-08_ses-01_task-ml_proj-lorasick_2021-01-12-14-21-05.313377
105	8	1	3	106	stable	1	200	106	sv	red	blue	blue	red	right	left	0.7	0.30000000000000004	4	2	2.8	0.6000000000000001	1	0	0.30000000000000004	0.7	2	4	0.6000000000000001	2.8	valid	1.566257743997994	53248	0	1	1	53248	1	53248	1	53248	1	0.7	53248	blue	red	1	4	ml	2.7.3	lorasick	sub-08_ses-01_task-ml_proj-lorasick_2021-01-12-14-21-05.313377
106	8	1	3	107	stable	1	200	107	sv	red	blue	blue	red	right	left	0.7	0.30000000000000004	4	2	2.8	0.6000000000000001	1	0	0.30000000000000004	0.7	2	4	0.6000000000000001	2.8	valid	0.4998769440026081	51200	0	0	2	53248	0	53248	0	53248	0	0.7	53248	blue	red	1	0	ml	2.7.3	lorasick	sub-08_ses-01_task-ml_proj-lorasick_2021-01-12-14-21-05.313377
107	8	1	3	108	stable	1	200	108	sv	red	blue	blue	red	right	left	0.7	0.30000000000000004	6	4	4.199999999999998	1.2000000000000002	1	0	0.30000000000000004	0.7	4	6	1.2000000000000002	4.199999999999998	valid	0.5665425959996355	53248	0	1	1	53248	1	53248	1	53248	1	0.7	53248	blue	red	1	6	ml	2.7.3	lorasick	sub-08_ses-01_task-ml_proj-lorasick_2021-01-12-14-21-05.313377
108	8	1	3	109	stable	1	200	109	sv	red	blue	blue	red	right	left	0.7	0.30000000000000004	2	2	1.4	0.6000000000000001	1	0	0.30000000000000004	0.7	2	2	0.6000000000000001	1.4	valid	0.5332170019974001	53248	0	1	1	53248	1	53248	1	53248	1	0.7	53248	blue	red	0	2	ml	2.7.3	lorasick	sub-08_ses-01_task-ml_proj-lorasick_2021-01-12-14-21-05.313377
109	8	1	3	110	stable	1	200	110	sv	blue	red	blue	red	left	right	0.7	0.30000000000000004	2	6	1.4	1.8000000000000005	1	0	0.7	0.30000000000000004	2	6	1.4	1.8000000000000005	valid	1.2830067989998497	53248	0	1	2	53248	1	51200	0	53248	1	0.7	51200	blue	red	0	0	ml	2.7.3	lorasick	sub-08_ses-01_task-ml_proj-lorasick_2021-01-12-14-21-05.313377
110	8	1	3	111	stable	1	200	111	sv	blue	red	blue	red	left	right	0.7	0.30000000000000004	2	2	1.4	0.6000000000000001	0	1	0.7	0.30000000000000004	2	2	1.4	0.6000000000000001	invalid	0.6498375079972902	51200	0	0	1	51200	1	51200	1	53248	0	0.7	51200	blue	red	1	0	ml	2.7.3	lorasick	sub-08_ses-01_task-ml_proj-lorasick_2021-01-12-14-21-05.313377
111	8	1	3	112	stable	1	200	112	sv	blue	red	blue	red	left	right	0.7	0.30000000000000004	2	2	1.4	0.6000000000000001	1	0	0.7	0.30000000000000004	2	2	1.4	0.6000000000000001	valid	0.7664819189994887	53248	0	1	2	51200	0	51200	0	53248	1	0.7	51200	blue	red	1	0	ml	2.7.3	lorasick	sub-08_ses-01_task-ml_proj-lorasick_2021-01-12-14-21-05.313377
112	8	1	3	113	stable	1	200	113	sv	blue	red	blue	red	left	right	0.7	0.30000000000000004	6	6	4.199999999999998	1.8000000000000005	0	1	0.7	0.30000000000000004	6	6	4.199999999999998	1.8000000000000005	invalid	0.8331179779997909	51200	0	0	1	51200	1	51200	1	53248	0	0.7	51200	blue	red	1	0	ml	2.7.3	lorasick	sub-08_ses-01_task-ml_proj-lorasick_2021-01-12-14-21-05.313377
113	8	1	3	114	stable	1	200	114	sv	blue	red	blue	red	left	right	0.7	0.30000000000000004	6	2	4.199999999999998	0.6000000000000001	1	0	0.7	0.30000000000000004	6	2	4.199999999999998	0.6000000000000001	valid	0.8831054520014732	51200	0	0	1	51200	1	51200	1	51200	1	0.7	51200	blue	red	1	6	ml	2.7.3	lorasick	sub-08_ses-01_task-ml_proj-lorasick_2021-01-12-14-21-05.313377
114	8	1	3	115	stable	1	200	115	sv	red	blue	blue	red	right	left	0.7	0.30000000000000004	2	6	1.4	1.8000000000000005	1	0	0.30000000000000004	0.7	6	2	1.8000000000000005	1.4	valid	0.9330878950022452	51200	0	0	2	51200	1	53248	0	51200	1	0.7	53248	blue	red	0	0	ml	2.7.3	lorasick	sub-08_ses-01_task-ml_proj-lorasick_2021-01-12-14-21-05.313377
115	8	1	3	116	stable	1	200	116	sv	blue	red	blue	red	left	right	0.7	0.30000000000000004	6	2	4.199999999999998	0.6000000000000001	1	0	0.7	0.30000000000000004	6	2	4.199999999999998	0.6000000000000001	valid	0.7498105980012042	51200	0	0	1	51200	1	51200	1	51200	1	0.7	51200	blue	red	1	6	ml	2.7.3	lorasick	sub-08_ses-01_task-ml_proj-lorasick_2021-01-12-14-21-05.313377
116	8	1	3	117	stable	1	200	117	sv	blue	red	blue	red	left	right	0.7	0.30000000000000004	2	2	1.4	0.6000000000000001	1	0	0.7	0.30000000000000004	2	2	1.4	0.6000000000000001	valid	0.7998045519998414	53248	0	1	2	51200	0	51200	0	53248	1	0.7	51200	blue	red	1	0	ml	2.7.3	lorasick	sub-08_ses-01_task-ml_proj-lorasick_2021-01-12-14-21-05.313377
117	8	1	3	118	stable	1	200	118	sv	red	blue	blue	red	right	left	0.7	0.30000000000000004	2	6	1.4	1.8000000000000005	0	1	0.30000000000000004	0.7	6	2	1.8000000000000005	1.4	invalid	0.5998557940001774	51200	0	0	2	51200	1	53248	0	51200	1	0.7	53248	blue	red	0	6	ml	2.7.3	lorasick	sub-08_ses-01_task-ml_proj-lorasick_2021-01-12-14-21-05.313377
118	8	1	3	119	stable	1	200	119	sv	blue	red	blue	red	left	right	0.7	0.30000000000000004	4	2	2.8	0.6000000000000001	0	1	0.7	0.30000000000000004	4	2	2.8	0.6000000000000001	invalid	0.8997779819983407	53248	0	1	2	51200	0	51200	0	51200	0	0.7	51200	blue	red	1	2	ml	2.7.3	lorasick	sub-08_ses-01_task-ml_proj-lorasick_2021-01-12-14-21-05.313377
119	8	1	3	120	stable	1	200	120	sv	red	blue	blue	red	right	left	0.7	0.30000000000000004	6	2	4.199999999999998	0.6000000000000001	1	0	0.30000000000000004	0.7	2	6	0.6000000000000001	4.199999999999998	valid	0.6165279609995196	53248	0	1	1	53248	1	53248	1	53248	1	0.7	53248	blue	red	1	6	ml	2.7.3	lorasick	sub-08_ses-01_task-ml_proj-lorasick_2021-01-12-14-21-05.313377
120	8	1	3	121	stable	1	200	121	sv	blue	red	blue	red	left	right	0.7	0.30000000000000004	4	2	2.8	0.6000000000000001	1	0	0.7	0.30000000000000004	4	2	2.8	0.6000000000000001	valid	0.6498377269999764	51200	0	0	1	51200	1	51200	1	51200	1	0.7	51200	blue	red	1	4	ml	2.7.3	lorasick	sub-08_ses-01_task-ml_proj-lorasick_2021-01-12-14-21-05.313377
121	8	1	3	122	stable	1	200	122	sv	red	blue	blue	red	right	left	0.7	0.30000000000000004	6	2	4.199999999999998	0.6000000000000001	1	0	0.30000000000000004	0.7	2	6	0.6000000000000001	4.199999999999998	valid	0.6165274039994983	53248	0	1	1	53248	1	53248	1	53248	1	0.7	53248	blue	red	1	6	ml	2.7.3	lorasick	sub-08_ses-01_task-ml_proj-lorasick_2021-01-12-14-21-05.313377
122	8	1	3	123	stable	1	200	123	sv	red	blue	blue	red	right	left	0.7	0.30000000000000004	6	6	4.199999999999998	1.8000000000000005	1	0	0.30000000000000004	0.7	6	6	1.8000000000000005	4.199999999999998	valid	1.299649774999125	51200	0	0	2	53248	0	53248	0	53248	0	0.7	53248	blue	red	0	0	ml	2.7.3	lorasick	sub-08_ses-01_task-ml_proj-lorasick_2021-01-12-14-21-05.313377
123	8	1	3	124	stable	1	200	124	sv	blue	red	blue	red	left	right	0.7	0.30000000000000004	2	4	1.4	1.2000000000000002	1	0	0.7	0.30000000000000004	2	4	1.4	1.2000000000000002	valid	0.8664548240012664	53248	0	1	2	51200	0	51200	0	53248	1	0.7	51200	blue	red	0	0	ml	2.7.3	lorasick	sub-08_ses-01_task-ml_proj-lorasick_2021-01-12-14-21-05.313377
124	8	1	3	125	stable	1	200	125	sv	red	blue	blue	red	right	left	0.7	0.30000000000000004	6	6	4.199999999999998	1.8000000000000005	1	0	0.30000000000000004	0.7	6	6	1.8000000000000005	4.199999999999998	valid	0.8164679310029896	53248	0	1	1	53248	1	53248	1	53248	1	0.7	53248	blue	red	0	6	ml	2.7.3	lorasick	sub-08_ses-01_task-ml_proj-lorasick_2021-01-12-14-21-05.313377
125	8	1	3	126	stable	1	200	126	sv	blue	red	blue	red	left	right	0.7	0.30000000000000004	2	4	1.4	1.2000000000000002	0	1	0.7	0.30000000000000004	2	4	1.4	1.2000000000000002	invalid	0.7498085379993427	51200	0	0	1	51200	1	51200	1	53248	0	0.7	51200	blue	red	0	0	ml	2.7.3	lorasick	sub-08_ses-01_task-ml_proj-lorasick_2021-01-12-14-21-05.313377
126	8	1	3	127	stable	1	200	127	sv	blue	red	blue	red	left	right	0.7	0.30000000000000004	4	2	2.8	0.6000000000000001	1	0	0.7	0.30000000000000004	4	2	2.8	0.6000000000000001	valid	0.9497574550005085	51200	0	0	1	51200	1	51200	1	51200	1	0.7	51200	blue	red	1	4	ml	2.7.3	lorasick	sub-08_ses-01_task-ml_proj-lorasick_2021-01-12-14-21-05.313377
127	8	1	3	128	stable	1	200	128	sv	blue	red	blue	red	left	right	0.7	0.30000000000000004	6	2	4.199999999999998	0.6000000000000001	0	1	0.7	0.30000000000000004	6	2	4.199999999999998	0.6000000000000001	invalid	0.8997621960006654	51200	0	0	1	51200	1	51200	1	51200	1	0.7	51200	blue	red	1	0	ml	2.7.3	lorasick	sub-08_ses-01_task-ml_proj-lorasick_2021-01-12-14-21-05.313377
128	8	1	3	129	stable	1	200	129	sv	blue	red	blue	red	left	right	0.7	0.30000000000000004	2	10	1.4	3.0000000000000004	1	0	0.7	0.30000000000000004	2	10	1.4	3.0000000000000004	valid	0.7664828470005887	53248	0	1	2	53248	1	51200	0	53248	1	0.7	51200	blue	red	0	0	ml	2.7.3	lorasick	sub-08_ses-01_task-ml_proj-lorasick_2021-01-12-14-21-05.313377
129	8	1	3	130	stable	1	200	130	sv	red	blue	blue	red	right	left	0.7	0.30000000000000004	6	2	4.199999999999998	0.6000000000000001	1	0	0.30000000000000004	0.7	2	6	0.6000000000000001	4.199999999999998	valid	0.7331608910026262	53248	0	1	1	53248	1	53248	1	53248	1	0.7	53248	blue	red	1	6	ml	2.7.3	lorasick	sub-08_ses-01_task-ml_proj-lorasick_2021-01-12-14-21-05.313377
130	8	1	3	131	stable	1	200	131	sv	red	blue	blue	red	right	left	0.7	0.30000000000000004	6	4	4.199999999999998	1.2000000000000002	1	0	0.30000000000000004	0.7	4	6	1.2000000000000002	4.199999999999998	valid	0.5165539930021623	53248	0	1	1	53248	1	53248	1	53248	1	0.7	53248	blue	red	1	6	ml	2.7.3	lorasick	sub-08_ses-01_task-ml_proj-lorasick_2021-01-12-14-21-05.313377
131	8	1	3	132	stable	1	200	132	sv	red	blue	blue	red	right	left	0.7	0.30000000000000004	6	4	4.199999999999998	1.2000000000000002	1	0	0.30000000000000004	0.7	4	6	1.2000000000000002	4.199999999999998	valid	0.5332258859998547	53248	0	1	1	53248	1	53248	1	53248	1	0.7	53248	blue	red	1	6	ml	2.7.3	lorasick	sub-08_ses-01_task-ml_proj-lorasick_2021-01-12-14-21-05.313377
132	8	1	3	133	stable	1	200	133	sv	red	blue	blue	red	right	left	0.7	0.30000000000000004	2	10	1.4	3.0000000000000004	1	0	0.30000000000000004	0.7	10	2	3.0000000000000004	1.4	valid	1.2829922099990654	51200	0	0	2	51200	1	53248	0	51200	1	0.7	53248	blue	red	0	0	ml	2.7.3	lorasick	sub-08_ses-01_task-ml_proj-lorasick_2021-01-12-14-21-05.313377
133	8	1	3	134	stable	1	200	134	sv	blue	red	blue	red	left	right	0.7	0.30000000000000004	6	4	4.199999999999998	1.2000000000000002	0	1	0.7	0.30000000000000004	6	4	4.199999999999998	1.2000000000000002	invalid	0.6998211779973644	51200	0	0	1	51200	1	51200	1	51200	1	0.7	51200	blue	red	1	0	ml	2.7.3	lorasick	sub-08_ses-01_task-ml_proj-lorasick_2021-01-12-14-21-05.313377
134	8	1	3	135	stable	1	200	135	sv	blue	red	blue	red	left	right	0.7	0.30000000000000004	4	2	2.8	0.6000000000000001	1	0	0.7	0.30000000000000004	4	2	2.8	0.6000000000000001	valid	0.7831325469996955	51200	0	0	1	51200	1	51200	1	51200	1	0.7	51200	blue	red	1	4	ml	2.7.3	lorasick	sub-08_ses-01_task-ml_proj-lorasick_2021-01-12-14-21-05.313377
135	8	1	3	136	stable	1	200	136	sv	red	blue	blue	red	right	left	0.7	0.30000000000000004	2	2	1.4	0.6000000000000001	0	1	0.30000000000000004	0.7	2	2	0.6000000000000001	1.4	invalid	0.8331294760027959	53248	0	1	1	53248	1	53248	1	53248	1	0.7	53248	blue	red	0	0	ml	2.7.3	lorasick	sub-08_ses-01_task-ml_proj-lorasick_2021-01-12-14-21-05.313377
136	8	1	3	137	stable	1	200	137	sv	red	blue	blue	red	right	left	0.7	0.30000000000000004	4	6	2.8	1.8000000000000005	1	0	0.30000000000000004	0.7	6	4	1.8000000000000005	2.8	valid	1.216378512999654	53248	0	1	1	53248	1	53248	1	51200	0	0.7	53248	blue	red	0	4	ml	2.7.3	lorasick	sub-08_ses-01_task-ml_proj-lorasick_2021-01-12-14-21-05.313377
137	8	1	3	138	stable	1	200	138	sv	blue	red	blue	red	left	right	0.7	0.30000000000000004	2	6	1.4	1.8000000000000005	1	0	0.7	0.30000000000000004	2	6	1.4	1.8000000000000005	valid	1.0164124910006649	53248	0	1	2	53248	1	51200	0	53248	1	0.7	51200	blue	red	0	0	ml	2.7.3	lorasick	sub-08_ses-01_task-ml_proj-lorasick_2021-01-12-14-21-05.313377
138	8	1	3	139	stable	1	200	139	sv	red	blue	blue	red	right	left	0.7	0.30000000000000004	6	6	4.199999999999998	1.8000000000000005	1	0	0.30000000000000004	0.7	6	6	1.8000000000000005	4.199999999999998	valid	1.1163850919983815	53248	0	1	1	53248	1	53248	1	53248	1	0.7	53248	blue	red	0	6	ml	2.7.3	lorasick	sub-08_ses-01_task-ml_proj-lorasick_2021-01-12-14-21-05.313377
139	8	1	3	140	stable	1	200	140	sv	blue	red	blue	red	left	right	0.7	0.30000000000000004	4	2	2.8	0.6000000000000001	1	0	0.7	0.30000000000000004	4	2	2.8	0.6000000000000001	valid	1.0497172100003809	51200	0	0	1	51200	1	51200	1	51200	1	0.7	51200	blue	red	1	4	ml	2.7.3	lorasick	sub-08_ses-01_task-ml_proj-lorasick_2021-01-12-14-21-05.313377
140	8	1	3	141	stable	1	200	141	sv	blue	red	blue	red	left	right	0.7	0.30000000000000004	2	10	1.4	3.0000000000000004	1	0	0.7	0.30000000000000004	2	10	1.4	3.0000000000000004	valid	0.7165000310014875	53248	0	1	2	53248	1	51200	0	53248	1	0.7	51200	blue	red	0	0	ml	2.7.3	lorasick	sub-08_ses-01_task-ml_proj-lorasick_2021-01-12-14-21-05.313377
141	8	1	3	142	stable	1	200	142	sv	red	blue	blue	red	right	left	0.7	0.30000000000000004	6	2	4.199999999999998	0.6000000000000001	1	0	0.30000000000000004	0.7	2	6	0.6000000000000001	4.199999999999998	valid	1.0164105000003474	53248	0	1	1	53248	1	53248	1	53248	1	0.7	53248	blue	red	1	6	ml	2.7.3	lorasick	sub-08_ses-01_task-ml_proj-lorasick_2021-01-12-14-21-05.313377
142	8	1	3	143	stable	1	200	143	sv	red	blue	blue	red	right	left	0.7	0.30000000000000004	6	4	4.199999999999998	1.2000000000000002	1	0	0.30000000000000004	0.7	4	6	1.2000000000000002	4.199999999999998	valid	1.049732847000996	53248	0	1	1	53248	1	53248	1	53248	1	0.7	53248	blue	red	1	6	ml	2.7.3	lorasick	sub-08_ses-01_task-ml_proj-lorasick_2021-01-12-14-21-05.313377
143	8	1	3	144	stable	1	200	144	sv	red	blue	blue	red	right	left	0.7	0.30000000000000004	6	6	4.199999999999998	1.8000000000000005	0	1	0.30000000000000004	0.7	6	6	1.8000000000000005	4.199999999999998	invalid	0.966423632002261	53248	0	1	1	53248	1	53248	1	53248	1	0.7	53248	blue	red	0	0	ml	2.7.3	lorasick	sub-08_ses-01_task-ml_proj-lorasick_2021-01-12-14-21-05.313377
144	8	1	3	145	stable	1	200	145	sv	red	blue	blue	red	right	left	0.7	0.30000000000000004	10	2	7.0	0.6000000000000001	1	0	0.30000000000000004	0.7	2	10	0.6000000000000001	7.0	valid	1.2829963210024289	51200	0	0	2	53248	0	53248	0	53248	0	0.7	53248	blue	red	1	0	ml	2.7.3	lorasick	sub-08_ses-01_task-ml_proj-lorasick_2021-01-12-14-21-05.313377
145	8	1	3	146	stable	1	200	146	sv	red	blue	blue	red	right	left	0.7	0.30000000000000004	6	2	4.199999999999998	0.6000000000000001	1	0	0.30000000000000004	0.7	2	6	0.6000000000000001	4.199999999999998	valid	0.6831601869998849	53248	0	1	1	53248	1	53248	1	53248	1	0.7	53248	blue	red	1	6	ml	2.7.3	lorasick	sub-08_ses-01_task-ml_proj-lorasick_2021-01-12-14-21-05.313377
146	8	1	3	147	stable	1	200	147	sv	red	blue	blue	red	right	left	0.7	0.30000000000000004	2	6	1.4	1.8000000000000005	1	0	0.30000000000000004	0.7	6	2	1.8000000000000005	1.4	valid	0.5665289539974765	51200	0	0	2	51200	1	53248	0	51200	1	0.7	53248	blue	red	0	0	ml	2.7.3	lorasick	sub-08_ses-01_task-ml_proj-lorasick_2021-01-12-14-21-05.313377
147	8	1	3	148	stable	1	200	148	sv	blue	red	blue	red	left	right	0.7	0.30000000000000004	6	6	4.199999999999998	1.8000000000000005	1	0	0.7	0.30000000000000004	6	6	4.199999999999998	1.8000000000000005	valid	0.633199848998629	53248	0	1	2	51200	0	51200	0	53248	1	0.7	51200	blue	red	1	0	ml	2.7.3	lorasick	sub-08_ses-01_task-ml_proj-lorasick_2021-01-12-14-21-05.313377
148	8	1	3	149	stable	1	200	149	sv	red	blue	blue	red	right	left	0.7	0.30000000000000004	6	4	4.199999999999998	1.2000000000000002	0	1	0.30000000000000004	0.7	4	6	1.2000000000000002	4.199999999999998	invalid	0.6498493959988991	53248	0	1	1	53248	1	53248	1	53248	1	0.7	53248	blue	red	1	0	ml	2.7.3	lorasick	sub-08_ses-01_task-ml_proj-lorasick_2021-01-12-14-21-05.313377
149	8	1	3	150	stable	1	200	150	sv	blue	red	blue	red	left	right	0.7	0.30000000000000004	4	2	2.8	0.6000000000000001	0	1	0.7	0.30000000000000004	4	2	2.8	0.6000000000000001	invalid	0.8497839920019032	51200	0	0	1	51200	1	51200	1	51200	1	0.7	51200	blue	red	1	0	ml	2.7.3	lorasick	sub-08_ses-01_task-ml_proj-lorasick_2021-01-12-14-21-05.313377
150	8	1	4	151	stable	1	200	151	sv	blue	red	blue	red	left	right	0.7	0.30000000000000004	6	6	4.199999999999998	1.8000000000000005	1	0	0.7	0.30000000000000004	6	6	4.199999999999998	1.8000000000000005	valid	0.9497520900004021	51200	0	0	1	51200	1	51200	1	53248	0	0.7	51200	blue	red	1	6	ml	2.7.3	lorasick	sub-08_ses-01_task-ml_proj-lorasick_2021-01-12-14-21-05.313377
151	8	1	4	152	stable	1	200	152	sv	red	blue	blue	red	right	left	0.7	0.30000000000000004	2	4	1.4	1.2000000000000002	1	0	0.30000000000000004	0.7	4	2	1.2000000000000002	1.4	valid	0.8997726289999264	51200	0	0	2	53248	0	53248	0	51200	1	0.7	53248	blue	red	0	0	ml	2.7.3	lorasick	sub-08_ses-01_task-ml_proj-lorasick_2021-01-12-14-21-05.313377
152	8	1	4	153	stable	1	200	153	sv	red	blue	blue	red	right	left	0.7	0.30000000000000004	2	4	1.4	1.2000000000000002	1	0	0.30000000000000004	0.7	4	2	1.2000000000000002	1.4	valid	0.749804236998898	51200	0	0	2	53248	0	53248	0	51200	1	0.7	53248	blue	red	0	0	ml	2.7.3	lorasick	sub-08_ses-01_task-ml_proj-lorasick_2021-01-12-14-21-05.313377
153	8	1	4	154	stable	1	200	154	sv	red	blue	blue	red	right	left	0.7	0.30000000000000004	4	6	2.8	1.8000000000000005	1	0	0.30000000000000004	0.7	6	4	1.8000000000000005	2.8	valid	1.382970563998242	53248	0	1	1	53248	1	53248	1	51200	0	0.7	53248	blue	red	0	4	ml	2.7.3	lorasick	sub-08_ses-01_task-ml_proj-lorasick_2021-01-12-14-21-05.313377
154	8	1	4	155	stable	1	200	155	sv	red	blue	blue	red	right	left	0.7	0.30000000000000004	2	2	1.4	0.6000000000000001	1	0	0.30000000000000004	0.7	2	2	0.6000000000000001	1.4	valid	0.6998324870000943	53248	0	1	1	53248	1	53248	1	53248	1	0.7	53248	blue	red	0	2	ml	2.7.3	lorasick	sub-08_ses-01_task-ml_proj-lorasick_2021-01-12-14-21-05.313377
155	8	1	4	156	stable	1	200	156	sv	blue	red	blue	red	left	right	0.7	0.30000000000000004	6	2	4.199999999999998	0.6000000000000001	1	0	0.7	0.30000000000000004	6	2	4.199999999999998	0.6000000000000001	valid	0.5165428079999401	51200	0	0	1	51200	1	51200	1	51200	1	0.7	51200	blue	red	1	6	ml	2.7.3	lorasick	sub-08_ses-01_task-ml_proj-lorasick_2021-01-12-14-21-05.313377
156	8	1	4	157	stable	1	200	157	sv	blue	red	blue	red	left	right	0.7	0.30000000000000004	6	6	4.199999999999998	1.8000000000000005	0	1	0.7	0.30000000000000004	6	6	4.199999999999998	1.8000000000000005	invalid	0.7498121259995969	51200	0	0	1	51200	1	51200	1	53248	0	0.7	51200	blue	red	1	0	ml	2.7.3	lorasick	sub-08_ses-01_task-ml_proj-lorasick_2021-01-12-14-21-05.313377
157	8	1	4	158	stable	1	200	158	sv	blue	red	blue	red	left	right	0.7	0.30000000000000004	6	6	4.199999999999998	1.8000000000000005	1	0	0.7	0.30000000000000004	6	6	4.199999999999998	1.8000000000000005	valid	0.6998355129981064	53248	0	1	2	51200	0	51200	0	53248	1	0.7	51200	blue	red	1	0	ml	2.7.3	lorasick	sub-08_ses-01_task-ml_proj-lorasick_2021-01-12-14-21-05.313377
158	8	1	4	159	stable	1	200	159	sv	red	blue	blue	red	right	left	0.7	0.30000000000000004	4	2	2.8	0.6000000000000001	0	1	0.30000000000000004	0.7	2	4	0.6000000000000001	2.8	invalid	0.7831433239989565	53248	0	1	1	53248	1	53248	1	53248	1	0.7	53248	blue	red	1	0	ml	2.7.3	lorasick	sub-08_ses-01_task-ml_proj-lorasick_2021-01-12-14-21-05.313377
159	8	1	4	160	stable	1	200	160	sv	blue	red	blue	red	left	right	0.7	0.30000000000000004	2	6	1.4	1.8000000000000005	0	1	0.7	0.30000000000000004	2	6	1.4	1.8000000000000005	invalid	0.6998401450000529	53248	0	1	2	53248	1	51200	0	53248	1	0.7	51200	blue	red	0	6	ml	2.7.3	lorasick	sub-08_ses-01_task-ml_proj-lorasick_2021-01-12-14-21-05.313377
160	8	1	4	161	stable	1	200	161	sv	red	blue	blue	red	right	left	0.7	0.30000000000000004	6	2	4.199999999999998	0.6000000000000001	1	0	0.30000000000000004	0.7	2	6	0.6000000000000001	4.199999999999998	valid	0.7498134939996817	53248	0	1	1	53248	1	53248	1	53248	1	0.7	53248	blue	red	1	6	ml	2.7.3	lorasick	sub-08_ses-01_task-ml_proj-lorasick_2021-01-12-14-21-05.313377
161	8	1	4	162	stable	1	200	162	sv	blue	red	blue	red	left	right	0.7	0.30000000000000004	2	6	1.4	1.8000000000000005	1	0	0.7	0.30000000000000004	2	6	1.4	1.8000000000000005	valid	0.6831737879983848	53248	0	1	2	53248	1	51200	0	53248	1	0.7	51200	blue	red	0	0	ml	2.7.3	lorasick	sub-08_ses-01_task-ml_proj-lorasick_2021-01-12-14-21-05.313377
162	8	1	4	163	stable	1	200	163	sv	red	blue	blue	red	right	left	0.7	0.30000000000000004	4	6	2.8	1.8000000000000005	1	0	0.30000000000000004	0.7	6	4	1.8000000000000005	2.8	valid	0.64983543299968	51200	0	0	2	53248	0	53248	0	51200	1	0.7	53248	blue	red	0	0	ml	2.7.3	lorasick	sub-08_ses-01_task-ml_proj-lorasick_2021-01-12-14-21-05.313377
163	8	1	4	164	stable	1	200	164	sv	blue	red	blue	red	left	right	0.7	0.30000000000000004	2	2	1.4	0.6000000000000001	1	0	0.7	0.30000000000000004	2	2	1.4	0.6000000000000001	valid	0.6498489449986664	53248	0	1	2	51200	0	51200	0	53248	1	0.7	51200	blue	red	1	0	ml	2.7.3	lorasick	sub-08_ses-01_task-ml_proj-lorasick_2021-01-12-14-21-05.313377
164	8	1	4	165	stable	1	200	165	sv	blue	red	blue	red	left	right	0.7	0.30000000000000004	2	4	1.4	1.2000000000000002	1	0	0.7	0.30000000000000004	2	4	1.4	1.2000000000000002	valid	0.7664821550024499	53248	0	1	2	51200	0	51200	0	53248	1	0.7	51200	blue	red	0	0	ml	2.7.3	lorasick	sub-08_ses-01_task-ml_proj-lorasick_2021-01-12-14-21-05.313377
165	8	1	4	166	stable	1	200	166	sv	red	blue	blue	red	right	left	0.7	0.30000000000000004	4	6	2.8	1.8000000000000005	0	1	0.30000000000000004	0.7	6	4	1.8000000000000005	2.8	invalid	0.6498382139980095	51200	0	0	2	53248	0	53248	0	51200	1	0.7	53248	blue	red	0	6	ml	2.7.3	lorasick	sub-08_ses-01_task-ml_proj-lorasick_2021-01-12-14-21-05.313377
166	8	1	4	167	stable	1	200	167	sv	red	blue	blue	red	right	left	0.7	0.30000000000000004	2	10	1.4	3.0000000000000004	1	0	0.30000000000000004	0.7	10	2	3.0000000000000004	1.4	valid	0.7664573929978359	51200	0	0	2	51200	1	53248	0	51200	1	0.7	53248	blue	red	0	0	ml	2.7.3	lorasick	sub-08_ses-01_task-ml_proj-lorasick_2021-01-12-14-21-05.313377
167	8	1	4	168	stable	1	200	168	sv	red	blue	blue	red	right	left	0.7	0.30000000000000004	2	4	1.4	1.2000000000000002	0	1	0.30000000000000004	0.7	4	2	1.2000000000000002	1.4	invalid	0.5498797010004637	53248	0	1	1	53248	1	53248	1	51200	0	0.7	53248	blue	red	0	0	ml	2.7.3	lorasick	sub-08_ses-01_task-ml_proj-lorasick_2021-01-12-14-21-05.313377
168	8	1	4	169	stable	1	200	169	sv	red	blue	blue	red	right	left	0.7	0.30000000000000004	2	4	1.4	1.2000000000000002	1	0	0.30000000000000004	0.7	4	2	1.2000000000000002	1.4	valid	0.7331460030000017	51200	0	0	2	53248	0	53248	0	51200	1	0.7	53248	blue	red	0	0	ml	2.7.3	lorasick	sub-08_ses-01_task-ml_proj-lorasick_2021-01-12-14-21-05.313377
169	8	1	4	170	stable	1	200	170	sv	red	blue	blue	red	right	left	0.7	0.30000000000000004	2	10	1.4	3.0000000000000004	1	0	0.30000000000000004	0.7	10	2	3.0000000000000004	1.4	valid	1.1163801250004326	53248	0	1	1	51200	0	53248	1	51200	0	0.7	53248	blue	red	0	2	ml	2.7.3	lorasick	sub-08_ses-01_task-ml_proj-lorasick_2021-01-12-14-21-05.313377
170	8	1	4	171	stable	1	200	171	sv	blue	red	blue	red	left	right	0.7	0.30000000000000004	10	2	7.0	0.6000000000000001	0	1	0.7	0.30000000000000004	10	2	7.0	0.6000000000000001	invalid	0.9330895999992208	51200	0	0	1	51200	1	51200	1	51200	1	0.7	51200	blue	red	1	0	ml	2.7.3	lorasick	sub-08_ses-01_task-ml_proj-lorasick_2021-01-12-14-21-05.313377
171	8	1	4	172	stable	1	200	172	sv	blue	red	blue	red	left	right	0.7	0.30000000000000004	6	4	4.199999999999998	1.2000000000000002	1	0	0.7	0.30000000000000004	6	4	4.199999999999998	1.2000000000000002	valid	1.199690150002425	53248	0	1	2	51200	0	51200	0	51200	0	0.7	51200	blue	red	1	0	ml	2.7.3	lorasick	sub-08_ses-01_task-ml_proj-lorasick_2021-01-12-14-21-05.313377
172	8	1	4	173	stable	1	200	173	sv	blue	red	blue	red	left	right	0.7	0.30000000000000004	6	2	4.199999999999998	0.6000000000000001	0	1	0.7	0.30000000000000004	6	2	4.199999999999998	0.6000000000000001	invalid	0.5998547050003253	51200	0	0	1	51200	1	51200	1	51200	1	0.7	51200	blue	red	1	0	ml	2.7.3	lorasick	sub-08_ses-01_task-ml_proj-lorasick_2021-01-12-14-21-05.313377
173	8	1	4	174	stable	1	200	174	sv	red	blue	blue	red	right	left	0.7	0.30000000000000004	2	10	1.4	3.0000000000000004	1	0	0.30000000000000004	0.7	10	2	3.0000000000000004	1.4	valid	0.9497636000014608	53248	0	1	1	51200	0	53248	1	51200	0	0.7	53248	blue	red	0	2	ml	2.7.3	lorasick	sub-08_ses-01_task-ml_proj-lorasick_2021-01-12-14-21-05.313377
174	8	1	4	175	stable	1	200	175	sv	blue	red	blue	red	left	right	0.7	0.30000000000000004	2	10	1.4	3.0000000000000004	1	0	0.7	0.30000000000000004	2	10	1.4	3.0000000000000004	valid	0.7831514559984498	53248	0	1	2	53248	1	51200	0	53248	1	0.7	51200	blue	red	0	0	ml	2.7.3	lorasick	sub-08_ses-01_task-ml_proj-lorasick_2021-01-12-14-21-05.313377
175	8	1	4	176	stable	1	200	176	sv	blue	red	blue	red	left	right	0.7	0.30000000000000004	10	2	7.0	0.6000000000000001	0	1	0.7	0.30000000000000004	10	2	7.0	0.6000000000000001	invalid	0.7164857670031779	51200	0	0	1	51200	1	51200	1	51200	1	0.7	51200	blue	red	1	0	ml	2.7.3	lorasick	sub-08_ses-01_task-ml_proj-lorasick_2021-01-12-14-21-05.313377
176	8	1	4	177	stable	1	200	177	sv	red	blue	blue	red	right	left	0.7	0.30000000000000004	4	6	2.8	1.8000000000000005	0	1	0.30000000000000004	0.7	6	4	1.8000000000000005	2.8	invalid	0.7998112369969022	53248	0	1	1	53248	1	53248	1	51200	0	0.7	53248	blue	red	0	0	ml	2.7.3	lorasick	sub-08_ses-01_task-ml_proj-lorasick_2021-01-12-14-21-05.313377
177	8	1	4	178	stable	1	200	178	sv	blue	red	blue	red	left	right	0.7	0.30000000000000004	2	4	1.4	1.2000000000000002	1	0	0.7	0.30000000000000004	2	4	1.4	1.2000000000000002	valid	0.7664816520009481	53248	0	1	2	51200	0	51200	0	53248	1	0.7	51200	blue	red	0	0	ml	2.7.3	lorasick	sub-08_ses-01_task-ml_proj-lorasick_2021-01-12-14-21-05.313377
178	8	1	4	179	stable	1	200	179	sv	red	blue	blue	red	right	left	0.7	0.30000000000000004	4	2	2.8	0.6000000000000001	0	1	0.30000000000000004	0.7	2	4	0.6000000000000001	2.8	invalid	0.9164284799990128	51200	0	0	2	53248	0	53248	0	53248	0	0.7	53248	blue	red	1	2	ml	2.7.3	lorasick	sub-08_ses-01_task-ml_proj-lorasick_2021-01-12-14-21-05.313377
179	8	1	4	180	stable	1	200	180	sv	red	blue	blue	red	right	left	0.7	0.30000000000000004	2	10	1.4	3.0000000000000004	1	0	0.30000000000000004	0.7	10	2	3.0000000000000004	1.4	valid	0.683160491000308	51200	0	0	2	51200	1	53248	0	51200	1	0.7	53248	blue	red	0	0	ml	2.7.3	lorasick	sub-08_ses-01_task-ml_proj-lorasick_2021-01-12-14-21-05.313377
180	8	1	4	181	stable	1	200	181	sv	blue	red	blue	red	left	right	0.7	0.30000000000000004	4	6	2.8	1.8000000000000005	1	0	0.7	0.30000000000000004	4	6	2.8	1.8000000000000005	valid	0.8664454950012441	53248	0	1	2	51200	0	51200	0	53248	1	0.7	51200	blue	red	0	0	ml	2.7.3	lorasick	sub-08_ses-01_task-ml_proj-lorasick_2021-01-12-14-21-05.313377
181	8	1	4	182	stable	1	200	182	sv	blue	red	blue	red	left	right	0.7	0.30000000000000004	6	4	4.199999999999998	1.2000000000000002	1	0	0.7	0.30000000000000004	6	4	4.199999999999998	1.2000000000000002	valid	0.54986899999858	51200	0	0	1	51200	1	51200	1	51200	1	0.7	51200	blue	red	1	6	ml	2.7.3	lorasick	sub-08_ses-01_task-ml_proj-lorasick_2021-01-12-14-21-05.313377
182	8	1	4	183	stable	1	200	183	sv	red	blue	blue	red	right	left	0.7	0.30000000000000004	10	2	7.0	0.6000000000000001	1	0	0.30000000000000004	0.7	2	10	0.6000000000000001	7.0	valid	0.6831774349993793	53248	0	1	1	53248	1	53248	1	53248	1	0.7	53248	blue	red	1	10	ml	2.7.3	lorasick	sub-08_ses-01_task-ml_proj-lorasick_2021-01-12-14-21-05.313377
183	8	1	4	184	stable	1	200	184	sv	blue	red	blue	red	left	right	0.7	0.30000000000000004	2	10	1.4	3.0000000000000004	1	0	0.7	0.30000000000000004	2	10	1.4	3.0000000000000004	valid	1.5329267060005805	53248	0	1	2	53248	1	51200	0	53248	1	0.7	51200	blue	red	0	0	ml	2.7.3	lorasick	sub-08_ses-01_task-ml_proj-lorasick_2021-01-12-14-21-05.313377
184	8	1	4	185	stable	1	200	185	sv	blue	red	blue	red	left	right	0.7	0.30000000000000004	10	2	7.0	0.6000000000000001	1	0	0.7	0.30000000000000004	10	2	7.0	0.6000000000000001	valid	0.5665274719976878	51200	0	0	1	51200	1	51200	1	51200	1	0.7	51200	blue	red	1	10	ml	2.7.3	lorasick	sub-08_ses-01_task-ml_proj-lorasick_2021-01-12-14-21-05.313377
185	8	1	4	186	stable	1	200	186	sv	blue	red	blue	red	left	right	0.7	0.30000000000000004	6	4	4.199999999999998	1.2000000000000002	1	0	0.7	0.30000000000000004	6	4	4.199999999999998	1.2000000000000002	valid	0.7331526499983738	51200	0	0	1	51200	1	51200	1	51200	1	0.7	51200	blue	red	1	6	ml	2.7.3	lorasick	sub-08_ses-01_task-ml_proj-lorasick_2021-01-12-14-21-05.313377
186	8	1	4	187	stable	1	200	187	sv	red	blue	blue	red	right	left	0.7	0.30000000000000004	2	10	1.4	3.0000000000000004	1	0	0.30000000000000004	0.7	10	2	3.0000000000000004	1.4	valid	1.1830259339985787	51200	0	0	2	51200	1	53248	0	51200	1	0.7	53248	blue	red	0	0	ml	2.7.3	lorasick	sub-08_ses-01_task-ml_proj-lorasick_2021-01-12-14-21-05.313377
187	8	1	4	188	stable	1	200	188	sv	red	blue	blue	red	right	left	0.7	0.30000000000000004	6	4	4.199999999999998	1.2000000000000002	1	0	0.30000000000000004	0.7	4	6	1.2000000000000002	4.199999999999998	valid	0.7998060619975149	53248	0	1	1	53248	1	53248	1	53248	1	0.7	53248	blue	red	1	6	ml	2.7.3	lorasick	sub-08_ses-01_task-ml_proj-lorasick_2021-01-12-14-21-05.313377
188	8	1	4	189	stable	1	200	189	sv	red	blue	blue	red	right	left	0.7	0.30000000000000004	4	2	2.8	0.6000000000000001	1	0	0.30000000000000004	0.7	2	4	0.6000000000000001	2.8	valid	0.7498443299991777	53248	0	1	1	53248	1	53248	1	53248	1	0.7	53248	blue	red	1	4	ml	2.7.3	lorasick	sub-08_ses-01_task-ml_proj-lorasick_2021-01-12-14-21-05.313377
189	8	1	4	190	stable	1	200	190	sv	blue	red	blue	red	left	right	0.7	0.30000000000000004	10	2	7.0	0.6000000000000001	1	0	0.7	0.30000000000000004	10	2	7.0	0.6000000000000001	valid	0.6831591859991022	51200	0	0	1	51200	1	51200	1	51200	1	0.7	51200	blue	red	1	10	ml	2.7.3	lorasick	sub-08_ses-01_task-ml_proj-lorasick_2021-01-12-14-21-05.313377
190	8	1	4	191	stable	1	200	191	sv	red	blue	blue	red	right	left	0.7	0.30000000000000004	6	2	4.199999999999998	0.6000000000000001	1	0	0.30000000000000004	0.7	2	6	0.6000000000000001	4.199999999999998	valid	0.7665094720032357	53248	0	1	1	53248	1	53248	1	53248	1	0.7	53248	blue	red	1	6	ml	2.7.3	lorasick	sub-08_ses-01_task-ml_proj-lorasick_2021-01-12-14-21-05.313377
191	8	1	4	192	stable	1	200	192	sv	red	blue	blue	red	right	left	0.7	0.30000000000000004	10	2	7.0	0.6000000000000001	0	1	0.30000000000000004	0.7	2	10	0.6000000000000001	7.0	invalid	0.6831723379982577	53248	0	1	1	53248	1	53248	1	53248	1	0.7	53248	blue	red	1	0	ml	2.7.3	lorasick	sub-08_ses-01_task-ml_proj-lorasick_2021-01-12-14-21-05.313377
192	8	1	4	193	stable	1	200	193	sv	red	blue	blue	red	right	left	0.7	0.30000000000000004	4	6	2.8	1.8000000000000005	0	1	0.30000000000000004	0.7	6	4	1.8000000000000005	2.8	invalid	0.7164958729990758	51200	0	0	2	53248	0	53248	0	51200	1	0.7	53248	blue	red	0	6	ml	2.7.3	lorasick	sub-08_ses-01_task-ml_proj-lorasick_2021-01-12-14-21-05.313377
193	8	1	4	194	stable	1	200	194	sv	blue	red	blue	red	left	right	0.7	0.30000000000000004	6	2	4.199999999999998	0.6000000000000001	0	1	0.7	0.30000000000000004	6	2	4.199999999999998	0.6000000000000001	invalid	0.7664722420013277	51200	0	0	1	51200	1	51200	1	51200	1	0.7	51200	blue	red	1	0	ml	2.7.3	lorasick	sub-08_ses-01_task-ml_proj-lorasick_2021-01-12-14-21-05.313377
194	8	1	4	195	stable	1	200	195	sv	blue	red	blue	red	left	right	0.7	0.30000000000000004	2	2	1.4	0.6000000000000001	0	1	0.7	0.30000000000000004	2	2	1.4	0.6000000000000001	invalid	1.049726257002476	53248	0	1	2	51200	0	51200	0	53248	1	0.7	51200	blue	red	1	2	ml	2.7.3	lorasick	sub-08_ses-01_task-ml_proj-lorasick_2021-01-12-14-21-05.313377
195	8	1	4	196	stable	1	200	196	sv	blue	red	blue	red	left	right	0.7	0.30000000000000004	2	6	1.4	1.8000000000000005	1	0	0.7	0.30000000000000004	2	6	1.4	1.8000000000000005	valid	0.716497891000472	53248	0	1	2	53248	1	51200	0	53248	1	0.7	51200	blue	red	0	0	ml	2.7.3	lorasick	sub-08_ses-01_task-ml_proj-lorasick_2021-01-12-14-21-05.313377
196	8	1	4	197	stable	1	200	197	sv	blue	red	blue	red	left	right	0.7	0.30000000000000004	6	2	4.199999999999998	0.6000000000000001	1	0	0.7	0.30000000000000004	6	2	4.199999999999998	0.6000000000000001	valid	0.5665291889999935	51200	0	0	1	51200	1	51200	1	51200	1	0.7	51200	blue	red	1	6	ml	2.7.3	lorasick	sub-08_ses-01_task-ml_proj-lorasick_2021-01-12-14-21-05.313377
197	8	1	4	198	stable	1	200	198	sv	red	blue	blue	red	right	left	0.7	0.30000000000000004	2	10	1.4	3.0000000000000004	0	1	0.30000000000000004	0.7	10	2	3.0000000000000004	1.4	invalid	0.7331467399999383	51200	0	0	2	51200	1	53248	0	51200	1	0.7	53248	blue	red	0	10	ml	2.7.3	lorasick	sub-08_ses-01_task-ml_proj-lorasick_2021-01-12-14-21-05.313377
198	8	1	4	199	stable	1	200	199	sv	blue	red	blue	red	left	right	0.7	0.30000000000000004	2	10	1.4	3.0000000000000004	1	0	0.7	0.30000000000000004	2	10	1.4	3.0000000000000004	valid	0.6331883170023502	53248	0	1	2	53248	1	51200	0	53248	1	0.7	51200	blue	red	0	0	ml	2.7.3	lorasick	sub-08_ses-01_task-ml_proj-lorasick_2021-01-12-14-21-05.313377
199	8	1	4	200	stable	1	200	200	sv	blue	red	blue	red	left	right	0.7	0.30000000000000004	6	2	4.199999999999998	0.6000000000000001	1	0	0.7	0.30000000000000004	6	2	4.199999999999998	0.6000000000000001	valid	0.5831931599968811	51200	0	0	1	51200	1	51200	1	51200	1	0.7	51200	blue	red	1	6	ml	2.7.3	lorasick	sub-08_ses-01_task-ml_proj-lorasick_2021-01-12-14-21-05.313377
200	8	1	5	201	volatile	2	20	1	sv	blue	red	blue	red	left	right	0.30000000000000004	0.7	4	2	1.2000000000000002	1.4	0	1	0.30000000000000004	0.7	4	2	1.2000000000000002	1.4	valid	0.933092974999454	51200	0	0	1	53248	0	53248	0	51200	1	0.7	53248	red	blue	0	0	ml	2.7.3	lorasick	sub-08_ses-01_task-ml_proj-lorasick_2021-01-12-14-21-05.313377
201	8	1	5	202	volatile	2	20	2	sv	blue	red	blue	red	left	right	0.30000000000000004	0.7	2	6	0.6000000000000001	4.199999999999998	0	1	0.30000000000000004	0.7	2	6	0.6000000000000001	4.199999999999998	valid	0.6665112930022588	53248	0	1	2	53248	1	53248	1	53248	1	0.7	53248	red	blue	1	6	ml	2.7.3	lorasick	sub-08_ses-01_task-ml_proj-lorasick_2021-01-12-14-21-05.313377
202	8	1	5	203	volatile	2	20	3	sv	blue	red	blue	red	left	right	0.30000000000000004	0.7	2	10	0.6000000000000001	7.0	0	1	0.30000000000000004	0.7	2	10	0.6000000000000001	7.0	valid	0.5998604010019335	53248	0	1	2	53248	1	53248	1	53248	1	0.7	53248	red	blue	1	10	ml	2.7.3	lorasick	sub-08_ses-01_task-ml_proj-lorasick_2021-01-12-14-21-05.313377
203	8	1	5	204	volatile	2	20	4	sv	red	blue	blue	red	right	left	0.30000000000000004	0.7	10	2	3.0000000000000004	1.4	1	0	0.7	0.30000000000000004	2	10	1.4	3.0000000000000004	invalid	0.6998333859992272	53248	0	1	1	53248	1	51200	0	53248	1	0.7	51200	red	blue	0	10	ml	2.7.3	lorasick	sub-08_ses-01_task-ml_proj-lorasick_2021-01-12-14-21-05.313377
204	8	1	5	205	volatile	2	20	5	sv	blue	red	blue	red	left	right	0.30000000000000004	0.7	2	2	0.6000000000000001	1.4	0	1	0.30000000000000004	0.7	2	2	0.6000000000000001	1.4	valid	0.8164545149993501	51200	0	0	1	53248	0	53248	0	53248	0	0.7	53248	red	blue	0	0	ml	2.7.3	lorasick	sub-08_ses-01_task-ml_proj-lorasick_2021-01-12-14-21-05.313377
205	8	1	5	206	volatile	2	20	6	sv	blue	red	blue	red	left	right	0.30000000000000004	0.7	4	2	1.2000000000000002	1.4	0	1	0.30000000000000004	0.7	4	2	1.2000000000000002	1.4	valid	0.6498435950015846	51200	0	0	1	53248	0	53248	0	51200	1	0.7	53248	red	blue	0	0	ml	2.7.3	lorasick	sub-08_ses-01_task-ml_proj-lorasick_2021-01-12-14-21-05.313377
206	8	1	5	207	volatile	2	20	7	sv	red	blue	blue	red	right	left	0.30000000000000004	0.7	2	10	0.6000000000000001	7.0	0	1	0.7	0.30000000000000004	10	2	7.0	0.6000000000000001	valid	0.7997949150012573	51200	0	0	2	51200	1	51200	1	51200	1	0.7	51200	red	blue	1	10	ml	2.7.3	lorasick	sub-08_ses-01_task-ml_proj-lorasick_2021-01-12-14-21-05.313377
207	8	1	5	208	volatile	2	20	8	sv	red	blue	blue	red	right	left	0.30000000000000004	0.7	2	6	0.6000000000000001	4.199999999999998	0	1	0.7	0.30000000000000004	6	2	4.199999999999998	0.6000000000000001	valid	0.4332326180010568	51200	0	0	2	51200	1	51200	1	51200	1	0.7	51200	red	blue	1	6	ml	2.7.3	lorasick	sub-08_ses-01_task-ml_proj-lorasick_2021-01-12-14-21-05.313377
208	8	1	5	209	volatile	2	20	9	sv	red	blue	blue	red	right	left	0.30000000000000004	0.7	6	2	1.8000000000000005	1.4	1	0	0.7	0.30000000000000004	2	6	1.4	1.8000000000000005	invalid	0.9497579029994084	53248	0	1	1	53248	1	51200	0	53248	1	0.7	51200	red	blue	0	6	ml	2.7.3	lorasick	sub-08_ses-01_task-ml_proj-lorasick_2021-01-12-14-21-05.313377
209	8	1	5	210	volatile	2	20	10	sv	blue	red	blue	red	left	right	0.30000000000000004	0.7	6	4	1.8000000000000005	2.8	0	1	0.30000000000000004	0.7	6	4	1.8000000000000005	2.8	valid	1.199686621999717	53248	0	1	2	53248	1	53248	1	51200	0	0.7	53248	red	blue	0	4	ml	2.7.3	lorasick	sub-08_ses-01_task-ml_proj-lorasick_2021-01-12-14-21-05.313377
210	8	1	5	211	volatile	2	20	11	sv	blue	red	blue	red	left	right	0.30000000000000004	0.7	2	2	0.6000000000000001	1.4	1	0	0.30000000000000004	0.7	2	2	0.6000000000000001	1.4	invalid	0.9330984459993488	53248	0	1	2	53248	1	53248	1	53248	1	0.7	53248	red	blue	0	0	ml	2.7.3	lorasick	sub-08_ses-01_task-ml_proj-lorasick_2021-01-12-14-21-05.313377
211	8	1	5	212	volatile	2	20	12	sv	red	blue	blue	red	right	left	0.30000000000000004	0.7	6	4	1.8000000000000005	2.8	1	0	0.7	0.30000000000000004	4	6	2.8	1.8000000000000005	invalid	0.36658687200178974	51200	0	0	2	51200	1	51200	1	53248	0	0.7	51200	red	blue	0	0	ml	2.7.3	lorasick	sub-08_ses-01_task-ml_proj-lorasick_2021-01-12-14-21-05.313377
212	8	1	5	213	volatile	2	20	13	sv	red	blue	blue	red	right	left	0.30000000000000004	0.7	4	2	1.2000000000000002	1.4	0	1	0.7	0.30000000000000004	2	4	1.4	1.2000000000000002	valid	0.6831663320008374	53248	0	1	1	51200	0	51200	0	53248	1	0.7	51200	red	blue	0	0	ml	2.7.3	lorasick	sub-08_ses-01_task-ml_proj-lorasick_2021-01-12-14-21-05.313377
213	8	1	5	214	volatile	2	20	14	sv	red	blue	blue	red	right	left	0.30000000000000004	0.7	6	6	1.8000000000000005	4.199999999999998	0	1	0.7	0.30000000000000004	6	6	4.199999999999998	1.8000000000000005	valid	0.6831682390002243	51200	0	0	2	51200	1	51200	1	53248	0	0.7	51200	red	blue	1	6	ml	2.7.3	lorasick	sub-08_ses-01_task-ml_proj-lorasick_2021-01-12-14-21-05.313377
214	8	1	5	215	volatile	2	20	15	sv	red	blue	blue	red	right	left	0.30000000000000004	0.7	4	6	1.2000000000000002	4.199999999999998	0	1	0.7	0.30000000000000004	6	4	4.199999999999998	1.2000000000000002	valid	0.9497446489986032	51200	0	0	2	51200	1	51200	1	51200	1	0.7	51200	red	blue	1	6	ml	2.7.3	lorasick	sub-08_ses-01_task-ml_proj-lorasick_2021-01-12-14-21-05.313377
215	8	1	5	216	volatile	2	20	16	sv	blue	red	blue	red	left	right	0.30000000000000004	0.7	10	2	3.0000000000000004	1.4	1	0	0.30000000000000004	0.7	10	2	3.0000000000000004	1.4	invalid	1.3496633680006198	51200	0	0	1	51200	1	53248	0	51200	1	0.7	53248	red	blue	0	10	ml	2.7.3	lorasick	sub-08_ses-01_task-ml_proj-lorasick_2021-01-12-14-21-05.313377
216	8	1	5	217	volatile	2	20	17	sv	blue	red	blue	red	left	right	0.30000000000000004	0.7	6	6	1.8000000000000005	4.199999999999998	1	0	0.30000000000000004	0.7	6	6	1.8000000000000005	4.199999999999998	invalid	1.0330722100006824	53248	0	1	2	53248	1	53248	1	53248	1	0.7	53248	red	blue	0	0	ml	2.7.3	lorasick	sub-08_ses-01_task-ml_proj-lorasick_2021-01-12-14-21-05.313377
217	8	1	5	218	volatile	2	20	18	sv	blue	red	blue	red	left	right	0.30000000000000004	0.7	2	4	0.6000000000000001	2.8	0	1	0.30000000000000004	0.7	2	4	0.6000000000000001	2.8	valid	0.7831504509995284	53248	0	1	2	53248	1	53248	1	53248	1	0.7	53248	red	blue	1	4	ml	2.7.3	lorasick	sub-08_ses-01_task-ml_proj-lorasick_2021-01-12-14-21-05.313377
218	8	1	5	219	volatile	2	20	19	sv	red	blue	blue	red	right	left	0.30000000000000004	0.7	6	4	1.8000000000000005	2.8	0	1	0.7	0.30000000000000004	4	6	2.8	1.8000000000000005	valid	0.8664426709983672	51200	0	0	2	51200	1	51200	1	53248	0	0.7	51200	red	blue	0	4	ml	2.7.3	lorasick	sub-08_ses-01_task-ml_proj-lorasick_2021-01-12-14-21-05.313377
219	8	1	5	220	volatile	2	20	20	sv	red	blue	blue	red	right	left	0.30000000000000004	0.7	2	6	0.6000000000000001	4.199999999999998	0	1	0.7	0.30000000000000004	6	2	4.199999999999998	0.6000000000000001	valid	0.5332062169982237	51200	0	0	2	51200	1	51200	1	51200	1	0.7	51200	red	blue	1	6	ml	2.7.3	lorasick	sub-08_ses-01_task-ml_proj-lorasick_2021-01-12-14-21-05.313377
220	8	1	5	221	volatile	3	20	1	sv	blue	red	blue	red	left	right	0.7	0.30000000000000004	6	4	4.199999999999998	1.2000000000000002	1	0	0.7	0.30000000000000004	6	4	4.199999999999998	1.2000000000000002	valid	0.6498425989993848	53248	0	1	2	51200	0	51200	0	51200	0	0.7	51200	blue	red	1	0	ml	2.7.3	lorasick	sub-08_ses-01_task-ml_proj-lorasick_2021-01-12-14-21-05.313377
221	8	1	5	222	volatile	3	20	2	sv	red	blue	blue	red	right	left	0.7	0.30000000000000004	4	2	2.8	0.6000000000000001	1	0	0.30000000000000004	0.7	2	4	0.6000000000000001	2.8	valid	0.8497958030020527	53248	0	1	1	53248	1	53248	1	53248	1	0.7	53248	blue	red	1	4	ml	2.7.3	lorasick	sub-08_ses-01_task-ml_proj-lorasick_2021-01-12-14-21-05.313377
222	8	1	5	223	volatile	3	20	3	sv	blue	red	blue	red	left	right	0.7	0.30000000000000004	6	2	4.199999999999998	0.6000000000000001	1	0	0.7	0.30000000000000004	6	2	4.199999999999998	0.6000000000000001	valid	0.5831900869998208	51200	0	0	1	51200	1	51200	1	51200	1	0.7	51200	blue	red	1	6	ml	2.7.3	lorasick	sub-08_ses-01_task-ml_proj-lorasick_2021-01-12-14-21-05.313377
223	8	1	5	224	volatile	3	20	4	sv	blue	red	blue	red	left	right	0.7	0.30000000000000004	4	6	2.8	1.8000000000000005	1	0	0.7	0.30000000000000004	4	6	2.8	1.8000000000000005	valid	0.6831704620017263	53248	0	1	2	51200	0	51200	0	53248	1	0.7	51200	blue	red	0	0	ml	2.7.3	lorasick	sub-08_ses-01_task-ml_proj-lorasick_2021-01-12-14-21-05.313377
224	8	1	5	225	volatile	3	20	5	sv	blue	red	blue	red	left	right	0.7	0.30000000000000004	6	4	4.199999999999998	1.2000000000000002	1	0	0.7	0.30000000000000004	6	4	4.199999999999998	1.2000000000000002	valid	0.4832218709998415	51200	0	0	1	51200	1	51200	1	51200	1	0.7	51200	blue	red	1	6	ml	2.7.3	lorasick	sub-08_ses-01_task-ml_proj-lorasick_2021-01-12-14-21-05.313377
225	8	1	5	226	volatile	3	20	6	sv	red	blue	blue	red	right	left	0.7	0.30000000000000004	10	2	7.0	0.6000000000000001	0	1	0.30000000000000004	0.7	2	10	0.6000000000000001	7.0	invalid	0.5998653329988883	53248	0	1	1	53248	1	53248	1	53248	1	0.7	53248	blue	red	1	0	ml	2.7.3	lorasick	sub-08_ses-01_task-ml_proj-lorasick_2021-01-12-14-21-05.313377
226	8	1	5	227	volatile	3	20	7	sv	blue	red	blue	red	left	right	0.7	0.30000000000000004	4	2	2.8	0.6000000000000001	0	1	0.7	0.30000000000000004	4	2	2.8	0.6000000000000001	invalid	0.4998849319999863	51200	0	0	1	51200	1	51200	1	51200	1	0.7	51200	blue	red	1	0	ml	2.7.3	lorasick	sub-08_ses-01_task-ml_proj-lorasick_2021-01-12-14-21-05.313377
227	8	1	5	228	volatile	3	20	8	sv	red	blue	blue	red	right	left	0.7	0.30000000000000004	4	2	2.8	0.6000000000000001	1	0	0.30000000000000004	0.7	2	4	0.6000000000000001	2.8	valid	0.4498987789993407	53248	0	1	1	53248	1	53248	1	53248	1	0.7	53248	blue	red	1	4	ml	2.7.3	lorasick	sub-08_ses-01_task-ml_proj-lorasick_2021-01-12-14-21-05.313377
228	8	1	5	229	volatile	3	20	9	sv	blue	red	blue	red	left	right	0.7	0.30000000000000004	10	2	7.0	0.6000000000000001	1	0	0.7	0.30000000000000004	10	2	7.0	0.6000000000000001	valid	0.5332043640009942	51200	0	0	1	51200	1	51200	1	51200	1	0.7	51200	blue	red	1	10	ml	2.7.3	lorasick	sub-08_ses-01_task-ml_proj-lorasick_2021-01-12-14-21-05.313377
229	8	1	5	230	volatile	3	20	10	sv	red	blue	blue	red	right	left	0.7	0.30000000000000004	2	6	1.4	1.8000000000000005	1	0	0.30000000000000004	0.7	6	2	1.8000000000000005	1.4	valid	0.6831627589999698	51200	0	0	2	51200	1	53248	0	51200	1	0.7	53248	blue	red	0	0	ml	2.7.3	lorasick	sub-08_ses-01_task-ml_proj-lorasick_2021-01-12-14-21-05.313377
230	8	1	5	231	volatile	3	20	11	sv	blue	red	blue	red	left	right	0.7	0.30000000000000004	6	6	4.199999999999998	1.8000000000000005	1	0	0.7	0.30000000000000004	6	6	4.199999999999998	1.8000000000000005	valid	0.7164953430001333	53248	0	1	2	51200	0	51200	0	53248	1	0.7	51200	blue	red	1	0	ml	2.7.3	lorasick	sub-08_ses-01_task-ml_proj-lorasick_2021-01-12-14-21-05.313377
231	8	1	5	232	volatile	3	20	12	sv	red	blue	blue	red	right	left	0.7	0.30000000000000004	6	2	4.199999999999998	0.6000000000000001	1	0	0.30000000000000004	0.7	2	6	0.6000000000000001	4.199999999999998	valid	0.7331580000027316	53248	0	1	1	53248	1	53248	1	53248	1	0.7	53248	blue	red	1	6	ml	2.7.3	lorasick	sub-08_ses-01_task-ml_proj-lorasick_2021-01-12-14-21-05.313377
232	8	1	5	233	volatile	3	20	13	sv	red	blue	blue	red	right	left	0.7	0.30000000000000004	2	4	1.4	1.2000000000000002	1	0	0.30000000000000004	0.7	4	2	1.2000000000000002	1.4	valid	0.6498413439985598	51200	0	0	2	53248	0	53248	0	51200	1	0.7	53248	blue	red	0	0	ml	2.7.3	lorasick	sub-08_ses-01_task-ml_proj-lorasick_2021-01-12-14-21-05.313377
233	8	1	5	234	volatile	3	20	14	sv	blue	red	blue	red	left	right	0.7	0.30000000000000004	2	6	1.4	1.8000000000000005	1	0	0.7	0.30000000000000004	2	6	1.4	1.8000000000000005	valid	0.5665395139985776	53248	0	1	2	53248	1	51200	0	53248	1	0.7	51200	blue	red	0	0	ml	2.7.3	lorasick	sub-08_ses-01_task-ml_proj-lorasick_2021-01-12-14-21-05.313377
234	8	1	5	235	volatile	3	20	15	sv	red	blue	blue	red	right	left	0.7	0.30000000000000004	6	6	4.199999999999998	1.8000000000000005	0	1	0.30000000000000004	0.7	6	6	1.8000000000000005	4.199999999999998	invalid	0.5665360490020248	53248	0	1	1	53248	1	53248	1	53248	1	0.7	53248	blue	red	0	0	ml	2.7.3	lorasick	sub-08_ses-01_task-ml_proj-lorasick_2021-01-12-14-21-05.313377
235	8	1	5	236	volatile	3	20	16	sv	red	blue	blue	red	right	left	0.7	0.30000000000000004	2	10	1.4	3.0000000000000004	1	0	0.30000000000000004	0.7	10	2	3.0000000000000004	1.4	valid	0.7664732310004183	51200	0	0	2	51200	1	53248	0	51200	1	0.7	53248	blue	red	0	0	ml	2.7.3	lorasick	sub-08_ses-01_task-ml_proj-lorasick_2021-01-12-14-21-05.313377
236	8	1	5	237	volatile	3	20	17	sv	red	blue	blue	red	right	left	0.7	0.30000000000000004	2	2	1.4	0.6000000000000001	0	1	0.30000000000000004	0.7	2	2	0.6000000000000001	1.4	invalid	0.7831381529977081	53248	0	1	1	53248	1	53248	1	53248	1	0.7	53248	blue	red	0	0	ml	2.7.3	lorasick	sub-08_ses-01_task-ml_proj-lorasick_2021-01-12-14-21-05.313377
237	8	1	5	238	volatile	3	20	18	sv	red	blue	blue	red	right	left	0.7	0.30000000000000004	10	2	7.0	0.6000000000000001	1	0	0.30000000000000004	0.7	2	10	0.6000000000000001	7.0	valid	0.8664544830025989	53248	0	1	1	53248	1	53248	1	53248	1	0.7	53248	blue	red	1	10	ml	2.7.3	lorasick	sub-08_ses-01_task-ml_proj-lorasick_2021-01-12-14-21-05.313377
238	8	1	5	239	volatile	3	20	19	sv	blue	red	blue	red	left	right	0.7	0.30000000000000004	2	2	1.4	0.6000000000000001	0	1	0.7	0.30000000000000004	2	2	1.4	0.6000000000000001	invalid	0.7664783679974789	51200	0	0	1	51200	1	51200	1	53248	0	0.7	51200	blue	red	1	0	ml	2.7.3	lorasick	sub-08_ses-01_task-ml_proj-lorasick_2021-01-12-14-21-05.313377
239	8	1	5	240	volatile	3	20	20	sv	blue	red	blue	red	left	right	0.7	0.30000000000000004	4	6	2.8	1.8000000000000005	0	1	0.7	0.30000000000000004	4	6	2.8	1.8000000000000005	invalid	0.5332187310013978	53248	0	1	2	51200	0	51200	0	53248	1	0.7	51200	blue	red	0	6	ml	2.7.3	lorasick	sub-08_ses-01_task-ml_proj-lorasick_2021-01-12-14-21-05.313377
240	8	1	5	241	volatile	4	20	1	sv	blue	red	blue	red	left	right	0.30000000000000004	0.7	4	6	1.2000000000000002	4.199999999999998	1	0	0.30000000000000004	0.7	4	6	1.2000000000000002	4.199999999999998	invalid	0.8830879710003501	51200	0	0	1	53248	0	53248	0	53248	0	0.7	53248	red	blue	1	4	ml	2.7.3	lorasick	sub-08_ses-01_task-ml_proj-lorasick_2021-01-12-14-21-05.313377
241	8	1	5	242	volatile	4	20	2	sv	red	blue	blue	red	right	left	0.30000000000000004	0.7	6	4	1.8000000000000005	2.8	1	0	0.7	0.30000000000000004	4	6	2.8	1.8000000000000005	invalid	0.6831750179990195	53248	0	1	1	51200	0	51200	0	53248	1	0.7	51200	red	blue	0	6	ml	2.7.3	lorasick	sub-08_ses-01_task-ml_proj-lorasick_2021-01-12-14-21-05.313377
242	8	1	5	243	volatile	4	20	3	sv	blue	red	blue	red	left	right	0.30000000000000004	0.7	4	2	1.2000000000000002	1.4	1	0	0.30000000000000004	0.7	4	2	1.2000000000000002	1.4	invalid	0.7997919589979574	51200	0	0	1	53248	0	53248	0	51200	1	0.7	53248	red	blue	0	4	ml	2.7.3	lorasick	sub-08_ses-01_task-ml_proj-lorasick_2021-01-12-14-21-05.313377
243	8	1	5	244	volatile	4	20	4	sv	red	blue	blue	red	right	left	0.30000000000000004	0.7	4	2	1.2000000000000002	1.4	0	1	0.7	0.30000000000000004	2	4	1.4	1.2000000000000002	valid	0.6665129499997421	53248	0	1	1	51200	0	51200	0	53248	1	0.7	51200	red	blue	0	0	ml	2.7.3	lorasick	sub-08_ses-01_task-ml_proj-lorasick_2021-01-12-14-21-05.313377
244	8	1	5	245	volatile	4	20	5	sv	blue	red	blue	red	left	right	0.30000000000000004	0.7	6	2	1.8000000000000005	1.4	0	1	0.30000000000000004	0.7	6	2	1.8000000000000005	1.4	valid	0.7331520490006369	51200	0	0	1	51200	1	53248	0	51200	1	0.7	53248	red	blue	0	0	ml	2.7.3	lorasick	sub-08_ses-01_task-ml_proj-lorasick_2021-01-12-14-21-05.313377
245	8	1	5	246	volatile	4	20	6	sv	red	blue	blue	red	right	left	0.30000000000000004	0.7	2	2	0.6000000000000001	1.4	0	1	0.7	0.30000000000000004	2	2	1.4	0.6000000000000001	valid	0.5998530690012558	51200	0	0	2	51200	1	51200	1	53248	0	0.7	51200	red	blue	1	2	ml	2.7.3	lorasick	sub-08_ses-01_task-ml_proj-lorasick_2021-01-12-14-21-05.313377
246	8	1	5	247	volatile	4	20	7	sv	blue	red	blue	red	left	right	0.30000000000000004	0.7	2	2	0.6000000000000001	1.4	0	1	0.30000000000000004	0.7	2	2	0.6000000000000001	1.4	valid	0.4998880090024613	53248	0	1	2	53248	1	53248	1	53248	1	0.7	53248	red	blue	0	2	ml	2.7.3	lorasick	sub-08_ses-01_task-ml_proj-lorasick_2021-01-12-14-21-05.313377
247	8	1	5	248	volatile	4	20	8	sv	blue	red	blue	red	left	right	0.30000000000000004	0.7	6	4	1.8000000000000005	2.8	0	1	0.30000000000000004	0.7	6	4	1.8000000000000005	2.8	valid	0.6665122790000169	53248	0	1	2	53248	1	53248	1	51200	0	0.7	53248	red	blue	0	4	ml	2.7.3	lorasick	sub-08_ses-01_task-ml_proj-lorasick_2021-01-12-14-21-05.313377
248	8	1	5	249	volatile	4	20	9	sv	blue	red	blue	red	left	right	0.30000000000000004	0.7	10	2	3.0000000000000004	1.4	0	1	0.30000000000000004	0.7	10	2	3.0000000000000004	1.4	valid	0.58318988800238	51200	0	0	1	51200	1	53248	0	51200	1	0.7	53248	red	blue	0	0	ml	2.7.3	lorasick	sub-08_ses-01_task-ml_proj-lorasick_2021-01-12-14-21-05.313377
249	8	1	5	250	volatile	4	20	10	sv	red	blue	blue	red	right	left	0.30000000000000004	0.7	10	2	3.0000000000000004	1.4	0	1	0.7	0.30000000000000004	2	10	1.4	3.0000000000000004	valid	0.6165252840000903	53248	0	1	1	53248	1	51200	0	53248	1	0.7	51200	red	blue	0	0	ml	2.7.3	lorasick	sub-08_ses-01_task-ml_proj-lorasick_2021-01-12-14-21-05.313377
250	8	1	6	251	volatile	4	20	11	sv	red	blue	blue	red	right	left	0.30000000000000004	0.7	4	2	1.2000000000000002	1.4	0	1	0.7	0.30000000000000004	2	4	1.4	1.2000000000000002	valid	1.4829429019991949	53248	0	1	1	51200	0	51200	0	53248	1	0.7	51200	red	blue	0	0	ml	2.7.3	lorasick	sub-08_ses-01_task-ml_proj-lorasick_2021-01-12-14-21-05.313377
251	8	1	6	252	volatile	4	20	12	sv	red	blue	blue	red	right	left	0.30000000000000004	0.7	4	6	1.2000000000000002	4.199999999999998	0	1	0.7	0.30000000000000004	6	4	4.199999999999998	1.2000000000000002	valid	0.683162187000562	51200	0	0	2	51200	1	51200	1	51200	1	0.7	51200	red	blue	1	6	ml	2.7.3	lorasick	sub-08_ses-01_task-ml_proj-lorasick_2021-01-12-14-21-05.313377
252	8	1	6	253	volatile	4	20	13	sv	red	blue	blue	red	right	left	0.30000000000000004	0.7	2	6	0.6000000000000001	4.199999999999998	0	1	0.7	0.30000000000000004	6	2	4.199999999999998	0.6000000000000001	valid	0.6498344610008644	51200	0	0	2	51200	1	51200	1	51200	1	0.7	51200	red	blue	1	6	ml	2.7.3	lorasick	sub-08_ses-01_task-ml_proj-lorasick_2021-01-12-14-21-05.313377
253	8	1	6	254	volatile	4	20	14	sv	red	blue	blue	red	right	left	0.30000000000000004	0.7	6	6	1.8000000000000005	4.199999999999998	0	1	0.7	0.30000000000000004	6	6	4.199999999999998	1.8000000000000005	valid	0.8164559309989272	51200	0	0	2	51200	1	51200	1	53248	0	0.7	51200	red	blue	1	6	ml	2.7.3	lorasick	sub-08_ses-01_task-ml_proj-lorasick_2021-01-12-14-21-05.313377
254	8	1	6	255	volatile	4	20	15	sv	blue	red	blue	red	left	right	0.30000000000000004	0.7	10	2	3.0000000000000004	1.4	0	1	0.30000000000000004	0.7	10	2	3.0000000000000004	1.4	valid	1.3996582770014356	53248	0	1	2	51200	0	53248	1	51200	0	0.7	53248	red	blue	0	2	ml	2.7.3	lorasick	sub-08_ses-01_task-ml_proj-lorasick_2021-01-12-14-21-05.313377
255	8	1	6	256	volatile	4	20	16	sv	red	blue	blue	red	right	left	0.30000000000000004	0.7	6	2	1.8000000000000005	1.4	1	0	0.7	0.30000000000000004	2	6	1.4	1.8000000000000005	invalid	0.7498099900003581	51200	0	0	2	53248	0	51200	1	53248	0	0.7	51200	red	blue	0	0	ml	2.7.3	lorasick	sub-08_ses-01_task-ml_proj-lorasick_2021-01-12-14-21-05.313377
256	8	1	6	257	volatile	4	20	17	sv	blue	red	blue	red	left	right	0.30000000000000004	0.7	2	10	0.6000000000000001	7.0	0	1	0.30000000000000004	0.7	2	10	0.6000000000000001	7.0	valid	1.1330383349995827	51200	0	0	1	53248	0	53248	0	53248	0	0.7	53248	red	blue	1	0	ml	2.7.3	lorasick	sub-08_ses-01_task-ml_proj-lorasick_2021-01-12-14-21-05.313377
257	8	1	6	258	volatile	4	20	18	sv	blue	red	blue	red	left	right	0.30000000000000004	0.7	4	2	1.2000000000000002	1.4	1	0	0.30000000000000004	0.7	4	2	1.2000000000000002	1.4	invalid	0.6998374789982336	53248	0	1	2	53248	1	53248	1	51200	0	0.7	53248	red	blue	0	0	ml	2.7.3	lorasick	sub-08_ses-01_task-ml_proj-lorasick_2021-01-12-14-21-05.313377
258	8	1	6	259	volatile	4	20	19	sv	red	blue	blue	red	right	left	0.30000000000000004	0.7	6	6	1.8000000000000005	4.199999999999998	1	0	0.7	0.30000000000000004	6	6	4.199999999999998	1.8000000000000005	invalid	0.7831333470021491	51200	0	0	2	51200	1	51200	1	53248	0	0.7	51200	red	blue	1	0	ml	2.7.3	lorasick	sub-08_ses-01_task-ml_proj-lorasick_2021-01-12-14-21-05.313377
259	8	1	6	260	volatile	4	20	20	sv	blue	red	blue	red	left	right	0.30000000000000004	0.7	2	6	0.6000000000000001	4.199999999999998	0	1	0.30000000000000004	0.7	2	6	0.6000000000000001	4.199999999999998	valid	1.1496987789978448	51200	0	0	1	53248	0	53248	0	53248	0	0.7	53248	red	blue	1	0	ml	2.7.3	lorasick	sub-08_ses-01_task-ml_proj-lorasick_2021-01-12-14-21-05.313377
260	8	1	6	261	volatile	5	40	1	sv	blue	red	blue	red	left	right	0.7	0.30000000000000004	6	6	4.199999999999998	1.8000000000000005	1	0	0.7	0.30000000000000004	6	6	4.199999999999998	1.8000000000000005	valid	0.5665412759990431	53248	0	1	2	51200	0	51200	0	53248	1	0.7	51200	blue	red	1	0	ml	2.7.3	lorasick	sub-08_ses-01_task-ml_proj-lorasick_2021-01-12-14-21-05.313377
261	8	1	6	262	volatile	5	40	2	sv	red	blue	blue	red	right	left	0.7	0.30000000000000004	4	2	2.8	0.6000000000000001	1	0	0.30000000000000004	0.7	2	4	0.6000000000000001	2.8	valid	0.6664933009997185	51200	0	0	2	53248	0	53248	0	53248	0	0.7	53248	blue	red	1	0	ml	2.7.3	lorasick	sub-08_ses-01_task-ml_proj-lorasick_2021-01-12-14-21-05.313377
262	8	1	6	263	volatile	5	40	3	sv	red	blue	blue	red	right	left	0.7	0.30000000000000004	4	6	2.8	1.8000000000000005	1	0	0.30000000000000004	0.7	6	4	1.8000000000000005	2.8	valid	1.1663680439996824	53248	0	1	1	53248	1	53248	1	51200	0	0.7	53248	blue	red	0	4	ml	2.7.3	lorasick	sub-08_ses-01_task-ml_proj-lorasick_2021-01-12-14-21-05.313377
263	8	1	6	264	volatile	5	40	4	sv	red	blue	blue	red	right	left	0.7	0.30000000000000004	6	4	4.199999999999998	1.2000000000000002	1	0	0.30000000000000004	0.7	4	6	1.2000000000000002	4.199999999999998	valid	0.4165873439997085	53248	0	1	1	53248	1	53248	1	53248	1	0.7	53248	blue	red	1	6	ml	2.7.3	lorasick	sub-08_ses-01_task-ml_proj-lorasick_2021-01-12-14-21-05.313377
264	8	1	6	265	volatile	5	40	5	sv	red	blue	blue	red	right	left	0.7	0.30000000000000004	2	4	1.4	1.2000000000000002	1	0	0.30000000000000004	0.7	4	2	1.2000000000000002	1.4	valid	0.7998045879976416	53248	0	1	1	53248	1	53248	1	51200	0	0.7	53248	blue	red	0	2	ml	2.7.3	lorasick	sub-08_ses-01_task-ml_proj-lorasick_2021-01-12-14-21-05.313377
265	8	1	6	266	volatile	5	40	6	sv	blue	red	blue	red	left	right	0.7	0.30000000000000004	2	2	1.4	0.6000000000000001	0	1	0.7	0.30000000000000004	2	2	1.4	0.6000000000000001	invalid	0.5332359790008923	51200	0	0	1	51200	1	51200	1	53248	0	0.7	51200	blue	red	1	0	ml	2.7.3	lorasick	sub-08_ses-01_task-ml_proj-lorasick_2021-01-12-14-21-05.313377
266	8	1	6	267	volatile	5	40	7	sv	red	blue	blue	red	right	left	0.7	0.30000000000000004	10	2	7.0	0.6000000000000001	1	0	0.30000000000000004	0.7	2	10	0.6000000000000001	7.0	valid	1.116374237000855	53248	0	1	1	53248	1	53248	1	53248	1	0.7	53248	blue	red	1	10	ml	2.7.3	lorasick	sub-08_ses-01_task-ml_proj-lorasick_2021-01-12-14-21-05.313377
267	8	1	6	268	volatile	5	40	8	sv	red	blue	blue	red	right	left	0.7	0.30000000000000004	2	4	1.4	1.2000000000000002	0	1	0.30000000000000004	0.7	4	2	1.2000000000000002	1.4	invalid	0.5998635620017012	53248	0	1	1	53248	1	53248	1	51200	0	0.7	53248	blue	red	0	0	ml	2.7.3	lorasick	sub-08_ses-01_task-ml_proj-lorasick_2021-01-12-14-21-05.313377
268	8	1	6	269	volatile	5	40	9	sv	blue	red	blue	red	left	right	0.7	0.30000000000000004	4	6	2.8	1.8000000000000005	1	0	0.7	0.30000000000000004	4	6	2.8	1.8000000000000005	valid	0.4332357720013533	51200	0	0	1	51200	1	51200	1	53248	0	0.7	51200	blue	red	0	4	ml	2.7.3	lorasick	sub-08_ses-01_task-ml_proj-lorasick_2021-01-12-14-21-05.313377
269	8	1	6	270	volatile	5	40	10	sv	blue	red	blue	red	left	right	0.7	0.30000000000000004	2	10	1.4	3.0000000000000004	0	1	0.7	0.30000000000000004	2	10	1.4	3.0000000000000004	invalid	0.4332468379980128	53248	0	1	2	53248	1	51200	0	53248	1	0.7	51200	blue	red	0	10	ml	2.7.3	lorasick	sub-08_ses-01_task-ml_proj-lorasick_2021-01-12-14-21-05.313377
270	8	1	6	271	volatile	5	40	11	sv	blue	red	blue	red	left	right	0.7	0.30000000000000004	2	4	1.4	1.2000000000000002	1	0	0.7	0.30000000000000004	2	4	1.4	1.2000000000000002	valid	0.5498732859996379	53248	0	1	2	51200	0	51200	0	53248	1	0.7	51200	blue	red	0	0	ml	2.7.3	lorasick	sub-08_ses-01_task-ml_proj-lorasick_2021-01-12-14-21-05.313377
271	8	1	6	272	volatile	5	40	12	sv	red	blue	blue	red	right	left	0.7	0.30000000000000004	4	2	2.8	0.6000000000000001	1	0	0.30000000000000004	0.7	2	4	0.6000000000000001	2.8	valid	1.2663604430017583	53248	0	1	1	53248	1	53248	1	53248	1	0.7	53248	blue	red	1	4	ml	2.7.3	lorasick	sub-08_ses-01_task-ml_proj-lorasick_2021-01-12-14-21-05.313377
272	8	1	6	273	volatile	5	40	13	sv	red	blue	blue	red	right	left	0.7	0.30000000000000004	2	2	1.4	0.6000000000000001	0	1	0.30000000000000004	0.7	2	2	0.6000000000000001	1.4	invalid	0.5332161170008476	53248	0	1	1	53248	1	53248	1	53248	1	0.7	53248	blue	red	0	0	ml	2.7.3	lorasick	sub-08_ses-01_task-ml_proj-lorasick_2021-01-12-14-21-05.313377
273	8	1	6	274	volatile	5	40	14	sv	blue	red	blue	red	left	right	0.7	0.30000000000000004	2	10	1.4	3.0000000000000004	1	0	0.7	0.30000000000000004	2	10	1.4	3.0000000000000004	valid	1.33298484399711	53248	0	1	2	53248	1	51200	0	53248	1	0.7	51200	blue	red	0	0	ml	2.7.3	lorasick	sub-08_ses-01_task-ml_proj-lorasick_2021-01-12-14-21-05.313377
274	8	1	6	275	volatile	5	40	15	sv	red	blue	blue	red	right	left	0.7	0.30000000000000004	2	10	1.4	3.0000000000000004	1	0	0.30000000000000004	0.7	10	2	3.0000000000000004	1.4	valid	0.4832212369983608	51200	0	0	2	51200	1	53248	0	51200	1	0.7	53248	blue	red	0	0	ml	2.7.3	lorasick	sub-08_ses-01_task-ml_proj-lorasick_2021-01-12-14-21-05.313377
275	8	1	6	276	volatile	5	40	16	sv	red	blue	blue	red	right	left	0.7	0.30000000000000004	6	2	4.199999999999998	0.6000000000000001	0	1	0.30000000000000004	0.7	2	6	0.6000000000000001	4.199999999999998	invalid	0.6831749569973908	53248	0	1	1	53248	1	53248	1	53248	1	0.7	53248	blue	red	1	0	ml	2.7.3	lorasick	sub-08_ses-01_task-ml_proj-lorasick_2021-01-12-14-21-05.313377
276	8	1	6	277	volatile	5	40	17	sv	blue	red	blue	red	left	right	0.7	0.30000000000000004	6	4	4.199999999999998	1.2000000000000002	1	0	0.7	0.30000000000000004	6	4	4.199999999999998	1.2000000000000002	valid	0.4665582510024251	51200	0	0	1	51200	1	51200	1	51200	1	0.7	51200	blue	red	1	6	ml	2.7.3	lorasick	sub-08_ses-01_task-ml_proj-lorasick_2021-01-12-14-21-05.313377
277	8	1	6	278	volatile	5	40	18	sv	red	blue	blue	red	right	left	0.7	0.30000000000000004	2	10	1.4	3.0000000000000004	1	0	0.30000000000000004	0.7	10	2	3.0000000000000004	1.4	valid	0.8664516600001662	53248	0	1	1	51200	0	53248	1	51200	0	0.7	53248	blue	red	0	2	ml	2.7.3	lorasick	sub-08_ses-01_task-ml_proj-lorasick_2021-01-12-14-21-05.313377
278	8	1	6	279	volatile	5	40	19	sv	blue	red	blue	red	left	right	0.7	0.30000000000000004	4	6	2.8	1.8000000000000005	1	0	0.7	0.30000000000000004	4	6	2.8	1.8000000000000005	valid	0.6664978490007343	51200	0	0	1	51200	1	51200	1	53248	0	0.7	51200	blue	red	0	4	ml	2.7.3	lorasick	sub-08_ses-01_task-ml_proj-lorasick_2021-01-12-14-21-05.313377
279	8	1	6	280	volatile	5	40	20	sv	blue	red	blue	red	left	right	0.7	0.30000000000000004	4	2	2.8	0.6000000000000001	1	0	0.7	0.30000000000000004	4	2	2.8	0.6000000000000001	valid	0.7831420479997178	51200	0	0	1	51200	1	51200	1	51200	1	0.7	51200	blue	red	1	4	ml	2.7.3	lorasick	sub-08_ses-01_task-ml_proj-lorasick_2021-01-12-14-21-05.313377
280	8	1	6	281	volatile	5	40	21	sv	red	blue	blue	red	right	left	0.7	0.30000000000000004	2	6	1.4	1.8000000000000005	1	0	0.30000000000000004	0.7	6	2	1.8000000000000005	1.4	valid	1.1496952000015879	51200	0	0	2	51200	1	53248	0	51200	1	0.7	53248	blue	red	0	0	ml	2.7.3	lorasick	sub-08_ses-01_task-ml_proj-lorasick_2021-01-12-14-21-05.313377
281	8	1	6	282	volatile	5	40	22	sv	blue	red	blue	red	left	right	0.7	0.30000000000000004	6	6	4.199999999999998	1.8000000000000005	1	0	0.7	0.30000000000000004	6	6	4.199999999999998	1.8000000000000005	valid	0.649836234999384	53248	0	1	2	51200	0	51200	0	53248	1	0.7	51200	blue	red	1	0	ml	2.7.3	lorasick	sub-08_ses-01_task-ml_proj-lorasick_2021-01-12-14-21-05.313377
282	8	1	6	283	volatile	5	40	23	sv	red	blue	blue	red	right	left	0.7	0.30000000000000004	4	6	2.8	1.8000000000000005	1	0	0.30000000000000004	0.7	6	4	1.8000000000000005	2.8	valid	0.43324180000126944	51200	0	0	2	53248	0	53248	0	51200	1	0.7	53248	blue	red	0	0	ml	2.7.3	lorasick	sub-08_ses-01_task-ml_proj-lorasick_2021-01-12-14-21-05.313377
283	8	1	6	284	volatile	5	40	24	sv	red	blue	blue	red	right	left	0.7	0.30000000000000004	6	6	4.199999999999998	1.8000000000000005	1	0	0.30000000000000004	0.7	6	6	1.8000000000000005	4.199999999999998	valid	0.5832027610013029	53248	0	1	1	53248	1	53248	1	53248	1	0.7	53248	blue	red	0	6	ml	2.7.3	lorasick	sub-08_ses-01_task-ml_proj-lorasick_2021-01-12-14-21-05.313377
284	8	1	6	285	volatile	5	40	25	sv	red	blue	blue	red	right	left	0.7	0.30000000000000004	2	6	1.4	1.8000000000000005	1	0	0.30000000000000004	0.7	6	2	1.8000000000000005	1.4	valid	0.7831316660012817	51200	0	0	2	51200	1	53248	0	51200	1	0.7	53248	blue	red	0	0	ml	2.7.3	lorasick	sub-08_ses-01_task-ml_proj-lorasick_2021-01-12-14-21-05.313377
285	8	1	6	286	volatile	5	40	26	sv	red	blue	blue	red	right	left	0.7	0.30000000000000004	6	6	4.199999999999998	1.8000000000000005	0	1	0.30000000000000004	0.7	6	6	1.8000000000000005	4.199999999999998	invalid	0.8331265249980788	53248	0	1	1	53248	1	53248	1	53248	1	0.7	53248	blue	red	0	0	ml	2.7.3	lorasick	sub-08_ses-01_task-ml_proj-lorasick_2021-01-12-14-21-05.313377
286	8	1	6	287	volatile	5	40	27	sv	blue	red	blue	red	left	right	0.7	0.30000000000000004	4	2	2.8	0.6000000000000001	1	0	0.7	0.30000000000000004	4	2	2.8	0.6000000000000001	valid	0.7164846000014222	51200	0	0	1	51200	1	51200	1	51200	1	0.7	51200	blue	red	1	4	ml	2.7.3	lorasick	sub-08_ses-01_task-ml_proj-lorasick_2021-01-12-14-21-05.313377
287	8	1	6	288	volatile	5	40	28	sv	blue	red	blue	red	left	right	0.7	0.30000000000000004	2	4	1.4	1.2000000000000002	1	0	0.7	0.30000000000000004	2	4	1.4	1.2000000000000002	valid	1.0497344410032383	53248	0	1	2	51200	0	51200	0	53248	1	0.7	51200	blue	red	0	0	ml	2.7.3	lorasick	sub-08_ses-01_task-ml_proj-lorasick_2021-01-12-14-21-05.313377
288	8	1	6	289	volatile	5	40	29	sv	red	blue	blue	red	right	left	0.7	0.30000000000000004	2	10	1.4	3.0000000000000004	1	0	0.30000000000000004	0.7	10	2	3.0000000000000004	1.4	valid	0.8497805179977149	51200	0	0	2	51200	1	53248	0	51200	1	0.7	53248	blue	red	0	0	ml	2.7.3	lorasick	sub-08_ses-01_task-ml_proj-lorasick_2021-01-12-14-21-05.313377
289	8	1	6	290	volatile	5	40	30	sv	red	blue	blue	red	right	left	0.7	0.30000000000000004	6	2	4.199999999999998	0.6000000000000001	1	0	0.30000000000000004	0.7	2	6	0.6000000000000001	4.199999999999998	valid	0.9997586270001192	53248	0	1	1	53248	1	53248	1	53248	1	0.7	53248	blue	red	1	6	ml	2.7.3	lorasick	sub-08_ses-01_task-ml_proj-lorasick_2021-01-12-14-21-05.313377
