Unnamed: 0	sub_id	ses_id	block_no	trial_no	phase_type	phase_no	phase_length	trialInPhase_no	phase_type_order	color_left	color_right	color1	color2	position1	position2	prob1	prob2	mag1	mag2	ev1	ev2	outcome1	outcome2	prob_left	prob_right	mag_left	mag_right	ev_left	ev_right	reward_validity	resp_time	resp_key	timeout	choice_side	choice	ev_corr_resp	ev_correct	prob_corr_resp	prob_correct	mag_corr_resp	mag_correct	high_prob	high_prob_side	high_prob_color	low_prob_color	no_brain	reward	name	version	proj_id	logFileID
0	5	1	1	1	volatile	1	20	1	vs	blue	red	blue	red	left	right	0.7	0.30000000000000004	6	2	4.199999999999998	0.6000000000000001	1	0	0.7	0.30000000000000004	6	2	4.199999999999998	0.6000000000000001	valid	1.0497123730001476	51200	0	0	1	51200	1	51200	1	51200	1	0.7	51200	blue	red	1	6	ml	2.7.3	bip	sub-05_ses-01_task-ml_proj-bip_2020-11-10-10-27-07.056097
1	5	1	1	2	volatile	1	20	2	vs	blue	red	blue	red	left	right	0.7	0.30000000000000004	6	6	4.199999999999998	1.8000000000000005	1	0	0.7	0.30000000000000004	6	6	4.199999999999998	1.8000000000000005	valid	0.7497956290008005	51200	0	0	1	51200	1	51200	1	53248	0	0.7	51200	blue	red	1	6	ml	2.7.3	bip	sub-05_ses-01_task-ml_proj-bip_2020-11-10-10-27-07.056097
2	5	1	1	3	volatile	1	20	3	vs	red	blue	blue	red	right	left	0.7	0.30000000000000004	2	10	1.4	3.0000000000000004	0	1	0.30000000000000004	0.7	10	2	3.0000000000000004	1.4	invalid	0.8664353260010103	51200	0	0	2	51200	1	53248	0	51200	1	0.7	53248	blue	red	0	10	ml	2.7.3	bip	sub-05_ses-01_task-ml_proj-bip_2020-11-10-10-27-07.056097
3	5	1	1	4	volatile	1	20	4	vs	red	blue	blue	red	right	left	0.7	0.30000000000000004	2	2	1.4	0.6000000000000001	1	0	0.30000000000000004	0.7	2	2	0.6000000000000001	1.4	valid	0.7498207910011843	53248	0	1	1	53248	1	53248	1	53248	1	0.7	53248	blue	red	0	2	ml	2.7.3	bip	sub-05_ses-01_task-ml_proj-bip_2020-11-10-10-27-07.056097
4	5	1	1	5	volatile	1	20	5	vs	red	blue	blue	red	right	left	0.7	0.30000000000000004	6	6	4.199999999999998	1.8000000000000005	1	0	0.30000000000000004	0.7	6	6	1.8000000000000005	4.199999999999998	valid	0.8664514379997854	53248	0	1	1	53248	1	53248	1	53248	1	0.7	53248	blue	red	0	6	ml	2.7.3	bip	sub-05_ses-01_task-ml_proj-bip_2020-11-10-10-27-07.056097
5	5	1	1	6	volatile	1	20	6	vs	red	blue	blue	red	right	left	0.7	0.30000000000000004	6	2	4.199999999999998	0.6000000000000001	1	0	0.30000000000000004	0.7	2	6	0.6000000000000001	4.199999999999998	valid	0.6665118109995092	53248	0	1	1	53248	1	53248	1	53248	1	0.7	53248	blue	red	1	6	ml	2.7.3	bip	sub-05_ses-01_task-ml_proj-bip_2020-11-10-10-27-07.056097
6	5	1	1	7	volatile	1	20	7	vs	blue	red	blue	red	left	right	0.7	0.30000000000000004	2	6	1.4	1.8000000000000005	0	1	0.7	0.30000000000000004	2	6	1.4	1.8000000000000005	invalid	1.5995577619996766	53248	0	1	2	53248	1	51200	0	53248	1	0.7	51200	blue	red	0	6	ml	2.7.3	bip	sub-05_ses-01_task-ml_proj-bip_2020-11-10-10-27-07.056097
7	5	1	1	8	volatile	1	20	8	vs	blue	red	blue	red	left	right	0.7	0.30000000000000004	2	10	1.4	3.0000000000000004	0	1	0.7	0.30000000000000004	2	10	1.4	3.0000000000000004	invalid	0.8164586840011907	53248	0	1	2	53248	1	51200	0	53248	1	0.7	51200	blue	red	0	10	ml	2.7.3	bip	sub-05_ses-01_task-ml_proj-bip_2020-11-10-10-27-07.056097
8	5	1	1	9	volatile	1	20	9	vs	red	blue	blue	red	right	left	0.7	0.30000000000000004	4	2	2.8	0.6000000000000001	1	0	0.30000000000000004	0.7	2	4	0.6000000000000001	2.8	valid	1.649533612999221	51200	0	0	2	53248	0	53248	0	53248	0	0.7	53248	blue	red	1	0	ml	2.7.3	bip	sub-05_ses-01_task-ml_proj-bip_2020-11-10-10-27-07.056097
9	5	1	1	10	volatile	1	20	10	vs	blue	red	blue	red	left	right	0.7	0.30000000000000004	4	6	2.8	1.8000000000000005	1	0	0.7	0.30000000000000004	4	6	2.8	1.8000000000000005	valid	0.7498112789999141	53248	0	1	2	51200	0	51200	0	53248	1	0.7	51200	blue	red	0	0	ml	2.7.3	bip	sub-05_ses-01_task-ml_proj-bip_2020-11-10-10-27-07.056097
10	5	1	1	11	volatile	1	20	11	vs	red	blue	blue	red	right	left	0.7	0.30000000000000004	2	4	1.4	1.2000000000000002	1	0	0.30000000000000004	0.7	4	2	1.2000000000000002	1.4	valid	2.9324759600003745	51200	0	0	2	53248	0	53248	0	51200	1	0.7	53248	blue	red	0	0	ml	2.7.3	bip	sub-05_ses-01_task-ml_proj-bip_2020-11-10-10-27-07.056097
11	5	1	1	12	volatile	1	20	12	vs	red	blue	blue	red	right	left	0.7	0.30000000000000004	2	4	1.4	1.2000000000000002	1	0	0.30000000000000004	0.7	4	2	1.2000000000000002	1.4	valid	0.6498434610002732	53248	0	1	1	53248	1	53248	1	51200	0	0.7	53248	blue	red	0	2	ml	2.7.3	bip	sub-05_ses-01_task-ml_proj-bip_2020-11-10-10-27-07.056097
12	5	1	1	13	volatile	1	20	13	vs	blue	red	blue	red	left	right	0.7	0.30000000000000004	6	4	4.199999999999998	1.2000000000000002	0	1	0.7	0.30000000000000004	6	4	4.199999999999998	1.2000000000000002	invalid	0.5165422720001516	51200	0	0	1	51200	1	51200	1	51200	1	0.7	51200	blue	red	1	0	ml	2.7.3	bip	sub-05_ses-01_task-ml_proj-bip_2020-11-10-10-27-07.056097
13	5	1	1	14	volatile	1	20	14	vs	red	blue	blue	red	right	left	0.7	0.30000000000000004	10	2	7.0	0.6000000000000001	0	1	0.30000000000000004	0.7	2	10	0.6000000000000001	7.0	invalid	0.6165196670008299	53248	0	1	1	53248	1	53248	1	53248	1	0.7	53248	blue	red	1	0	ml	2.7.3	bip	sub-05_ses-01_task-ml_proj-bip_2020-11-10-10-27-07.056097
14	5	1	1	15	volatile	1	20	15	vs	red	blue	blue	red	right	left	0.7	0.30000000000000004	2	2	1.4	0.6000000000000001	0	1	0.30000000000000004	0.7	2	2	0.6000000000000001	1.4	invalid	0.8497632100006741	51200	0	0	2	53248	0	53248	0	53248	0	0.7	53248	blue	red	0	2	ml	2.7.3	bip	sub-05_ses-01_task-ml_proj-bip_2020-11-10-10-27-07.056097
15	5	1	1	16	volatile	1	20	16	vs	blue	red	blue	red	left	right	0.7	0.30000000000000004	2	4	1.4	1.2000000000000002	1	0	0.7	0.30000000000000004	2	4	1.4	1.2000000000000002	valid	0.5498741950013937	53248	0	1	2	51200	0	51200	0	53248	1	0.7	51200	blue	red	0	0	ml	2.7.3	bip	sub-05_ses-01_task-ml_proj-bip_2020-11-10-10-27-07.056097
16	5	1	1	17	volatile	1	20	17	vs	blue	red	blue	red	left	right	0.7	0.30000000000000004	6	4	4.199999999999998	1.2000000000000002	1	0	0.7	0.30000000000000004	6	4	4.199999999999998	1.2000000000000002	valid	0.8331233720000455	53248	0	1	2	51200	0	51200	0	51200	0	0.7	51200	blue	red	1	0	ml	2.7.3	bip	sub-05_ses-01_task-ml_proj-bip_2020-11-10-10-27-07.056097
17	5	1	1	18	volatile	1	20	18	vs	red	blue	blue	red	right	left	0.7	0.30000000000000004	2	10	1.4	3.0000000000000004	1	0	0.30000000000000004	0.7	10	2	3.0000000000000004	1.4	valid	0.7997868949987605	51200	0	0	2	51200	1	53248	0	51200	1	0.7	53248	blue	red	0	0	ml	2.7.3	bip	sub-05_ses-01_task-ml_proj-bip_2020-11-10-10-27-07.056097
18	5	1	1	19	volatile	1	20	19	vs	blue	red	blue	red	left	right	0.7	0.30000000000000004	4	6	2.8	1.8000000000000005	1	0	0.7	0.30000000000000004	4	6	2.8	1.8000000000000005	valid	0.5831853810013854	51200	0	0	1	51200	1	51200	1	53248	0	0.7	51200	blue	red	0	4	ml	2.7.3	bip	sub-05_ses-01_task-ml_proj-bip_2020-11-10-10-27-07.056097
19	5	1	1	20	volatile	1	20	20	vs	blue	red	blue	red	left	right	0.7	0.30000000000000004	6	2	4.199999999999998	0.6000000000000001	1	0	0.7	0.30000000000000004	6	2	4.199999999999998	0.6000000000000001	valid	0.5665241549995699	51200	0	0	1	51200	1	51200	1	51200	1	0.7	51200	blue	red	1	6	ml	2.7.3	bip	sub-05_ses-01_task-ml_proj-bip_2020-11-10-10-27-07.056097
20	5	1	1	21	volatile	2	40	1	vs	blue	red	blue	red	left	right	0.30000000000000004	0.7	4	6	1.2000000000000002	4.199999999999998	0	1	0.30000000000000004	0.7	4	6	1.2000000000000002	4.199999999999998	valid	0.9164238400007888	51200	0	0	1	53248	0	53248	0	53248	0	0.7	53248	red	blue	1	0	ml	2.7.3	bip	sub-05_ses-01_task-ml_proj-bip_2020-11-10-10-27-07.056097
21	5	1	1	22	volatile	2	40	2	vs	red	blue	blue	red	right	left	0.30000000000000004	0.7	6	6	1.8000000000000005	4.199999999999998	0	1	0.7	0.30000000000000004	6	6	4.199999999999998	1.8000000000000005	valid	0.7331468309985212	53248	0	1	1	51200	0	51200	0	53248	1	0.7	51200	red	blue	1	0	ml	2.7.3	bip	sub-05_ses-01_task-ml_proj-bip_2020-11-10-10-27-07.056097
22	5	1	1	23	volatile	2	40	3	vs	red	blue	blue	red	right	left	0.30000000000000004	0.7	2	2	0.6000000000000001	1.4	0	1	0.7	0.30000000000000004	2	2	1.4	0.6000000000000001	valid	1.133014929999263	51200	0	0	2	51200	1	51200	1	53248	0	0.7	51200	red	blue	1	2	ml	2.7.3	bip	sub-05_ses-01_task-ml_proj-bip_2020-11-10-10-27-07.056097
23	5	1	1	24	volatile	2	40	4	vs	blue	red	blue	red	left	right	0.30000000000000004	0.7	2	4	0.6000000000000001	2.8	0	1	0.30000000000000004	0.7	2	4	0.6000000000000001	2.8	valid	0.6998304429998825	53248	0	1	2	53248	1	53248	1	53248	1	0.7	53248	red	blue	1	4	ml	2.7.3	bip	sub-05_ses-01_task-ml_proj-bip_2020-11-10-10-27-07.056097
24	5	1	1	25	volatile	2	40	5	vs	red	blue	blue	red	right	left	0.30000000000000004	0.7	4	6	1.2000000000000002	4.199999999999998	0	1	0.7	0.30000000000000004	6	4	4.199999999999998	1.2000000000000002	valid	0.6998182690003887	51200	0	0	2	51200	1	51200	1	51200	1	0.7	51200	red	blue	1	6	ml	2.7.3	bip	sub-05_ses-01_task-ml_proj-bip_2020-11-10-10-27-07.056097
25	5	1	1	26	volatile	2	40	6	vs	red	blue	blue	red	right	left	0.30000000000000004	0.7	2	4	0.6000000000000001	2.8	0	1	0.7	0.30000000000000004	4	2	2.8	0.6000000000000001	valid	0.8664330370011157	51200	0	0	2	51200	1	51200	1	51200	1	0.7	51200	red	blue	1	4	ml	2.7.3	bip	sub-05_ses-01_task-ml_proj-bip_2020-11-10-10-27-07.056097
26	5	1	1	27	volatile	2	40	7	vs	blue	red	blue	red	left	right	0.30000000000000004	0.7	6	6	1.8000000000000005	4.199999999999998	0	1	0.30000000000000004	0.7	6	6	1.8000000000000005	4.199999999999998	valid	0.5832031530007953	53248	0	1	2	53248	1	53248	1	53248	1	0.7	53248	red	blue	0	6	ml	2.7.3	bip	sub-05_ses-01_task-ml_proj-bip_2020-11-10-10-27-07.056097
27	5	1	1	28	volatile	2	40	8	vs	blue	red	blue	red	left	right	0.30000000000000004	0.7	2	6	0.6000000000000001	4.199999999999998	0	1	0.30000000000000004	0.7	2	6	0.6000000000000001	4.199999999999998	valid	0.5998976230002881	53248	0	1	2	53248	1	53248	1	53248	1	0.7	53248	red	blue	1	6	ml	2.7.3	bip	sub-05_ses-01_task-ml_proj-bip_2020-11-10-10-27-07.056097
28	5	1	1	29	volatile	2	40	9	vs	red	blue	blue	red	right	left	0.30000000000000004	0.7	6	2	1.8000000000000005	1.4	0	1	0.7	0.30000000000000004	2	6	1.4	1.8000000000000005	valid	1.3496343940005318	53248	0	1	1	53248	1	51200	0	53248	1	0.7	51200	red	blue	0	0	ml	2.7.3	bip	sub-05_ses-01_task-ml_proj-bip_2020-11-10-10-27-07.056097
29	5	1	1	30	volatile	2	40	10	vs	blue	red	blue	red	left	right	0.30000000000000004	0.7	10	2	3.0000000000000004	1.4	0	1	0.30000000000000004	0.7	10	2	3.0000000000000004	1.4	valid	0.6998168970003462	51200	0	0	1	51200	1	53248	0	51200	1	0.7	53248	red	blue	0	0	ml	2.7.3	bip	sub-05_ses-01_task-ml_proj-bip_2020-11-10-10-27-07.056097
30	5	1	1	31	volatile	2	40	11	vs	blue	red	blue	red	left	right	0.30000000000000004	0.7	4	2	1.2000000000000002	1.4	0	1	0.30000000000000004	0.7	4	2	1.2000000000000002	1.4	valid	0.7164892170003441	53248	0	1	2	53248	1	53248	1	51200	0	0.7	53248	red	blue	0	2	ml	2.7.3	bip	sub-05_ses-01_task-ml_proj-bip_2020-11-10-10-27-07.056097
31	5	1	1	32	volatile	2	40	12	vs	red	blue	blue	red	right	left	0.30000000000000004	0.7	2	2	0.6000000000000001	1.4	1	0	0.7	0.30000000000000004	2	2	1.4	0.6000000000000001	invalid	0.8164440969994757	51200	0	0	2	51200	1	51200	1	53248	0	0.7	51200	red	blue	1	0	ml	2.7.3	bip	sub-05_ses-01_task-ml_proj-bip_2020-11-10-10-27-07.056097
32	5	1	1	33	volatile	2	40	13	vs	red	blue	blue	red	right	left	0.30000000000000004	0.7	2	6	0.6000000000000001	4.199999999999998	0	1	0.7	0.30000000000000004	6	2	4.199999999999998	0.6000000000000001	valid	0.5831836930010468	51200	0	0	2	51200	1	51200	1	51200	1	0.7	51200	red	blue	1	6	ml	2.7.3	bip	sub-05_ses-01_task-ml_proj-bip_2020-11-10-10-27-07.056097
33	5	1	1	34	volatile	2	40	14	vs	red	blue	blue	red	right	left	0.30000000000000004	0.7	10	2	3.0000000000000004	1.4	0	1	0.7	0.30000000000000004	2	10	1.4	3.0000000000000004	valid	0.8997692720004125	53248	0	1	1	53248	1	51200	0	53248	1	0.7	51200	red	blue	0	0	ml	2.7.3	bip	sub-05_ses-01_task-ml_proj-bip_2020-11-10-10-27-07.056097
34	5	1	1	35	volatile	2	40	15	vs	red	blue	blue	red	right	left	0.30000000000000004	0.7	6	2	1.8000000000000005	1.4	0	1	0.7	0.30000000000000004	2	6	1.4	1.8000000000000005	valid	0.949755109000762	53248	0	1	1	53248	1	51200	0	53248	1	0.7	51200	red	blue	0	0	ml	2.7.3	bip	sub-05_ses-01_task-ml_proj-bip_2020-11-10-10-27-07.056097
35	5	1	1	36	volatile	2	40	16	vs	blue	red	blue	red	left	right	0.30000000000000004	0.7	6	2	1.8000000000000005	1.4	1	0	0.30000000000000004	0.7	6	2	1.8000000000000005	1.4	invalid	2.082746355999916	51200	0	0	1	51200	1	53248	0	51200	1	0.7	53248	red	blue	0	6	ml	2.7.3	bip	sub-05_ses-01_task-ml_proj-bip_2020-11-10-10-27-07.056097
36	5	1	1	37	volatile	2	40	17	vs	red	blue	blue	red	right	left	0.30000000000000004	0.7	2	6	0.6000000000000001	4.199999999999998	0	1	0.7	0.30000000000000004	6	2	4.199999999999998	0.6000000000000001	valid	0.8497687190010765	51200	0	0	2	51200	1	51200	1	51200	1	0.7	51200	red	blue	1	6	ml	2.7.3	bip	sub-05_ses-01_task-ml_proj-bip_2020-11-10-10-27-07.056097
37	5	1	1	38	volatile	2	40	18	vs	blue	red	blue	red	left	right	0.30000000000000004	0.7	2	2	0.6000000000000001	1.4	0	1	0.30000000000000004	0.7	2	2	0.6000000000000001	1.4	valid	0.8164544069986732	53248	0	1	2	53248	1	53248	1	53248	1	0.7	53248	red	blue	0	2	ml	2.7.3	bip	sub-05_ses-01_task-ml_proj-bip_2020-11-10-10-27-07.056097
38	5	1	1	39	volatile	2	40	19	vs	red	blue	blue	red	right	left	0.30000000000000004	0.7	6	4	1.8000000000000005	2.8	0	1	0.7	0.30000000000000004	4	6	2.8	1.8000000000000005	valid	0.6831550580009207	51200	0	0	2	51200	1	51200	1	53248	0	0.7	51200	red	blue	0	4	ml	2.7.3	bip	sub-05_ses-01_task-ml_proj-bip_2020-11-10-10-27-07.056097
39	5	1	1	40	volatile	2	40	20	vs	red	blue	blue	red	right	left	0.30000000000000004	0.7	6	6	1.8000000000000005	4.199999999999998	0	1	0.7	0.30000000000000004	6	6	4.199999999999998	1.8000000000000005	valid	0.5998418340004719	51200	0	0	2	51200	1	51200	1	53248	0	0.7	51200	red	blue	1	6	ml	2.7.3	bip	sub-05_ses-01_task-ml_proj-bip_2020-11-10-10-27-07.056097
40	5	1	1	41	volatile	2	40	21	vs	red	blue	blue	red	right	left	0.30000000000000004	0.7	4	6	1.2000000000000002	4.199999999999998	1	0	0.7	0.30000000000000004	6	4	4.199999999999998	1.2000000000000002	invalid	0.5665290540000569	51200	0	0	2	51200	1	51200	1	51200	1	0.7	51200	red	blue	1	0	ml	2.7.3	bip	sub-05_ses-01_task-ml_proj-bip_2020-11-10-10-27-07.056097
41	5	1	1	42	volatile	2	40	22	vs	red	blue	blue	red	right	left	0.30000000000000004	0.7	2	6	0.6000000000000001	4.199999999999998	1	0	0.7	0.30000000000000004	6	2	4.199999999999998	0.6000000000000001	invalid	0.5831853250001586	51200	0	0	2	51200	1	51200	1	51200	1	0.7	51200	red	blue	1	0	ml	2.7.3	bip	sub-05_ses-01_task-ml_proj-bip_2020-11-10-10-27-07.056097
42	5	1	1	43	volatile	2	40	23	vs	blue	red	blue	red	left	right	0.30000000000000004	0.7	2	10	0.6000000000000001	7.0	0	1	0.30000000000000004	0.7	2	10	0.6000000000000001	7.0	valid	1.0663852280013089	53248	0	1	2	53248	1	53248	1	53248	1	0.7	53248	red	blue	1	10	ml	2.7.3	bip	sub-05_ses-01_task-ml_proj-bip_2020-11-10-10-27-07.056097
43	5	1	1	44	volatile	2	40	24	vs	blue	red	blue	red	left	right	0.30000000000000004	0.7	4	2	1.2000000000000002	1.4	1	0	0.30000000000000004	0.7	4	2	1.2000000000000002	1.4	invalid	0.966403177999382	51200	0	0	1	53248	0	53248	0	51200	1	0.7	53248	red	blue	0	4	ml	2.7.3	bip	sub-05_ses-01_task-ml_proj-bip_2020-11-10-10-27-07.056097
44	5	1	1	45	volatile	2	40	25	vs	blue	red	blue	red	left	right	0.30000000000000004	0.7	4	6	1.2000000000000002	4.199999999999998	1	0	0.30000000000000004	0.7	4	6	1.2000000000000002	4.199999999999998	invalid	0.8331082500008051	51200	0	0	1	53248	0	53248	0	53248	0	0.7	53248	red	blue	1	4	ml	2.7.3	bip	sub-05_ses-01_task-ml_proj-bip_2020-11-10-10-27-07.056097
45	5	1	1	46	volatile	2	40	26	vs	blue	red	blue	red	left	right	0.30000000000000004	0.7	6	4	1.8000000000000005	2.8	0	1	0.30000000000000004	0.7	6	4	1.8000000000000005	2.8	valid	0.5665257919990836	51200	0	0	1	53248	0	53248	0	51200	1	0.7	53248	red	blue	0	0	ml	2.7.3	bip	sub-05_ses-01_task-ml_proj-bip_2020-11-10-10-27-07.056097
46	5	1	1	47	volatile	2	40	27	vs	blue	red	blue	red	left	right	0.30000000000000004	0.7	2	10	0.6000000000000001	7.0	1	0	0.30000000000000004	0.7	2	10	0.6000000000000001	7.0	invalid	0.6831702990002668	53248	0	1	2	53248	1	53248	1	53248	1	0.7	53248	red	blue	1	0	ml	2.7.3	bip	sub-05_ses-01_task-ml_proj-bip_2020-11-10-10-27-07.056097
47	5	1	1	48	volatile	2	40	28	vs	red	blue	blue	red	right	left	0.30000000000000004	0.7	2	4	0.6000000000000001	2.8	0	1	0.7	0.30000000000000004	4	2	2.8	0.6000000000000001	valid	2.449309913999969	53248	0	1	1	51200	0	51200	0	51200	0	0.7	51200	red	blue	1	0	ml	2.7.3	bip	sub-05_ses-01_task-ml_proj-bip_2020-11-10-10-27-07.056097
48	5	1	1	49	volatile	2	40	29	vs	blue	red	blue	red	left	right	0.30000000000000004	0.7	2	10	0.6000000000000001	7.0	0	1	0.30000000000000004	0.7	2	10	0.6000000000000001	7.0	valid	0.4832256580011745	53248	0	1	2	53248	1	53248	1	53248	1	0.7	53248	red	blue	1	10	ml	2.7.3	bip	sub-05_ses-01_task-ml_proj-bip_2020-11-10-10-27-07.056097
49	5	1	1	50	volatile	2	40	30	vs	red	blue	blue	red	right	left	0.30000000000000004	0.7	2	2	0.6000000000000001	1.4	0	1	0.7	0.30000000000000004	2	2	1.4	0.6000000000000001	valid	0.6331715960004658	51200	0	0	2	51200	1	51200	1	53248	0	0.7	51200	red	blue	1	2	ml	2.7.3	bip	sub-05_ses-01_task-ml_proj-bip_2020-11-10-10-27-07.056097
50	5	1	2	51	volatile	2	40	31	vs	red	blue	blue	red	right	left	0.30000000000000004	0.7	4	2	1.2000000000000002	1.4	1	0	0.7	0.30000000000000004	2	4	1.4	1.2000000000000002	invalid	1.0164000610002404	53248	0	1	1	51200	0	51200	0	53248	1	0.7	51200	red	blue	0	4	ml	2.7.3	bip	sub-05_ses-01_task-ml_proj-bip_2020-11-10-10-27-07.056097
51	5	1	2	52	volatile	2	40	32	vs	red	blue	blue	red	right	left	0.30000000000000004	0.7	2	10	0.6000000000000001	7.0	0	1	0.7	0.30000000000000004	10	2	7.0	0.6000000000000001	valid	0.766463283000121	51200	0	0	2	51200	1	51200	1	51200	1	0.7	51200	red	blue	1	10	ml	2.7.3	bip	sub-05_ses-01_task-ml_proj-bip_2020-11-10-10-27-07.056097
52	5	1	2	53	volatile	2	40	33	vs	blue	red	blue	red	left	right	0.30000000000000004	0.7	6	6	1.8000000000000005	4.199999999999998	1	0	0.30000000000000004	0.7	6	6	1.8000000000000005	4.199999999999998	invalid	2.1160616490014945	51200	0	0	1	53248	0	53248	0	53248	0	0.7	53248	red	blue	0	6	ml	2.7.3	bip	sub-05_ses-01_task-ml_proj-bip_2020-11-10-10-27-07.056097
53	5	1	2	54	volatile	2	40	34	vs	blue	red	blue	red	left	right	0.30000000000000004	0.7	2	4	0.6000000000000001	2.8	0	1	0.30000000000000004	0.7	2	4	0.6000000000000001	2.8	valid	2.0827493090000644	53248	0	1	2	53248	1	53248	1	53248	1	0.7	53248	red	blue	1	4	ml	2.7.3	bip	sub-05_ses-01_task-ml_proj-bip_2020-11-10-10-27-07.056097
54	5	1	2	55	volatile	2	40	35	vs	red	blue	blue	red	right	left	0.30000000000000004	0.7	2	10	0.6000000000000001	7.0	1	0	0.7	0.30000000000000004	10	2	7.0	0.6000000000000001	invalid	0.9497401860007813	51200	0	0	2	51200	1	51200	1	51200	1	0.7	51200	red	blue	1	0	ml	2.7.3	bip	sub-05_ses-01_task-ml_proj-bip_2020-11-10-10-27-07.056097
55	5	1	2	56	volatile	2	40	36	vs	blue	red	blue	red	left	right	0.30000000000000004	0.7	6	4	1.8000000000000005	2.8	0	1	0.30000000000000004	0.7	6	4	1.8000000000000005	2.8	valid	1.1496907339987956	51200	0	0	1	53248	0	53248	0	51200	1	0.7	53248	red	blue	0	0	ml	2.7.3	bip	sub-05_ses-01_task-ml_proj-bip_2020-11-10-10-27-07.056097
56	5	1	2	57	volatile	2	40	37	vs	blue	red	blue	red	left	right	0.30000000000000004	0.7	2	4	0.6000000000000001	2.8	0	1	0.30000000000000004	0.7	2	4	0.6000000000000001	2.8	valid	1.6662090930003617	53248	0	1	2	53248	1	53248	1	53248	1	0.7	53248	red	blue	1	4	ml	2.7.3	bip	sub-05_ses-01_task-ml_proj-bip_2020-11-10-10-27-07.056097
57	5	1	2	58	volatile	2	40	38	vs	blue	red	blue	red	left	right	0.30000000000000004	0.7	2	6	0.6000000000000001	4.199999999999998	1	0	0.30000000000000004	0.7	2	6	0.6000000000000001	4.199999999999998	invalid	0.4998868710008537	53248	0	1	2	53248	1	53248	1	53248	1	0.7	53248	red	blue	1	0	ml	2.7.3	bip	sub-05_ses-01_task-ml_proj-bip_2020-11-10-10-27-07.056097
58	5	1	2	59	volatile	2	40	39	vs	red	blue	blue	red	right	left	0.30000000000000004	0.7	2	10	0.6000000000000001	7.0	1	0	0.7	0.30000000000000004	10	2	7.0	0.6000000000000001	invalid	0.5665207599995483	51200	0	0	2	51200	1	51200	1	51200	1	0.7	51200	red	blue	1	0	ml	2.7.3	bip	sub-05_ses-01_task-ml_proj-bip_2020-11-10-10-27-07.056097
59	5	1	2	60	volatile	2	40	40	vs	blue	red	blue	red	left	right	0.30000000000000004	0.7	4	6	1.2000000000000002	4.199999999999998	0	1	0.30000000000000004	0.7	4	6	1.2000000000000002	4.199999999999998	valid	1.466257250000126	51200	0	0	1	53248	0	53248	0	53248	0	0.7	53248	red	blue	1	0	ml	2.7.3	bip	sub-05_ses-01_task-ml_proj-bip_2020-11-10-10-27-07.056097
60	5	1	2	61	volatile	3	40	1	vs	red	blue	blue	red	right	left	0.7	0.30000000000000004	6	6	4.199999999999998	1.8000000000000005	1	0	0.30000000000000004	0.7	6	6	1.8000000000000005	4.199999999999998	valid	0.5831848729994817	51200	0	0	2	53248	0	53248	0	53248	0	0.7	53248	blue	red	0	0	ml	2.7.3	bip	sub-05_ses-01_task-ml_proj-bip_2020-11-10-10-27-07.056097
61	5	1	2	62	volatile	3	40	2	vs	red	blue	blue	red	right	left	0.7	0.30000000000000004	6	2	4.199999999999998	0.6000000000000001	0	1	0.30000000000000004	0.7	2	6	0.6000000000000001	4.199999999999998	invalid	0.9664128079984948	53248	0	1	1	53248	1	53248	1	53248	1	0.7	53248	blue	red	1	0	ml	2.7.3	bip	sub-05_ses-01_task-ml_proj-bip_2020-11-10-10-27-07.056097
62	5	1	2	63	volatile	3	40	3	vs	blue	red	blue	red	left	right	0.7	0.30000000000000004	2	2	1.4	0.6000000000000001	1	0	0.7	0.30000000000000004	2	2	1.4	0.6000000000000001	valid	1.7661757770001714	53248	0	1	2	51200	0	51200	0	53248	1	0.7	51200	blue	red	1	0	ml	2.7.3	bip	sub-05_ses-01_task-ml_proj-bip_2020-11-10-10-27-07.056097
63	5	1	2	64	volatile	3	40	4	vs	red	blue	blue	red	right	left	0.7	0.30000000000000004	2	10	1.4	3.0000000000000004	1	0	0.30000000000000004	0.7	10	2	3.0000000000000004	1.4	valid	1.1330255530010618	51200	0	0	2	51200	1	53248	0	51200	1	0.7	53248	blue	red	0	0	ml	2.7.3	bip	sub-05_ses-01_task-ml_proj-bip_2020-11-10-10-27-07.056097
64	5	1	2	65	volatile	3	40	5	vs	blue	red	blue	red	left	right	0.7	0.30000000000000004	2	2	1.4	0.6000000000000001	0	1	0.7	0.30000000000000004	2	2	1.4	0.6000000000000001	invalid	1.1830071889999092	51200	0	0	1	51200	1	51200	1	53248	0	0.7	51200	blue	red	1	0	ml	2.7.3	bip	sub-05_ses-01_task-ml_proj-bip_2020-11-10-10-27-07.056097
65	5	1	2	66	volatile	3	40	6	vs	blue	red	blue	red	left	right	0.7	0.30000000000000004	10	2	7.0	0.6000000000000001	0	1	0.7	0.30000000000000004	10	2	7.0	0.6000000000000001	invalid	0.6998188920006214	51200	0	0	1	51200	1	51200	1	51200	1	0.7	51200	blue	red	1	0	ml	2.7.3	bip	sub-05_ses-01_task-ml_proj-bip_2020-11-10-10-27-07.056097
66	5	1	2	67	volatile	3	40	7	vs	blue	red	blue	red	left	right	0.7	0.30000000000000004	10	2	7.0	0.6000000000000001	1	0	0.7	0.30000000000000004	10	2	7.0	0.6000000000000001	valid	0.7498018900005263	51200	0	0	1	51200	1	51200	1	51200	1	0.7	51200	blue	red	1	10	ml	2.7.3	bip	sub-05_ses-01_task-ml_proj-bip_2020-11-10-10-27-07.056097
67	5	1	2	68	volatile	3	40	8	vs	blue	red	blue	red	left	right	0.7	0.30000000000000004	2	10	1.4	3.0000000000000004	1	0	0.7	0.30000000000000004	2	10	1.4	3.0000000000000004	valid	0.5165503480002371	53248	0	1	2	53248	1	51200	0	53248	1	0.7	51200	blue	red	0	0	ml	2.7.3	bip	sub-05_ses-01_task-ml_proj-bip_2020-11-10-10-27-07.056097
68	5	1	2	69	volatile	3	40	9	vs	blue	red	blue	red	left	right	0.7	0.30000000000000004	4	6	2.8	1.8000000000000005	1	0	0.7	0.30000000000000004	4	6	2.8	1.8000000000000005	valid	1.3163181700001587	53248	0	1	2	51200	0	51200	0	53248	1	0.7	51200	blue	red	0	0	ml	2.7.3	bip	sub-05_ses-01_task-ml_proj-bip_2020-11-10-10-27-07.056097
69	5	1	2	70	volatile	3	40	10	vs	blue	red	blue	red	left	right	0.7	0.30000000000000004	6	4	4.199999999999998	1.2000000000000002	0	1	0.7	0.30000000000000004	6	4	4.199999999999998	1.2000000000000002	invalid	0.4332249600010982	51200	0	0	1	51200	1	51200	1	51200	1	0.7	51200	blue	red	1	0	ml	2.7.3	bip	sub-05_ses-01_task-ml_proj-bip_2020-11-10-10-27-07.056097
70	5	1	2	71	volatile	3	40	11	vs	red	blue	blue	red	right	left	0.7	0.30000000000000004	2	6	1.4	1.8000000000000005	1	0	0.30000000000000004	0.7	6	2	1.8000000000000005	1.4	valid	2.049414777999118	51200	0	0	2	51200	1	53248	0	51200	1	0.7	53248	blue	red	0	0	ml	2.7.3	bip	sub-05_ses-01_task-ml_proj-bip_2020-11-10-10-27-07.056097
71	5	1	2	72	volatile	3	40	12	vs	blue	red	blue	red	left	right	0.7	0.30000000000000004	4	2	2.8	0.6000000000000001	0	1	0.7	0.30000000000000004	4	2	2.8	0.6000000000000001	invalid	1.0663609670009464	51200	0	0	1	51200	1	51200	1	51200	1	0.7	51200	blue	red	1	0	ml	2.7.3	bip	sub-05_ses-01_task-ml_proj-bip_2020-11-10-10-27-07.056097
72	5	1	2	73	volatile	3	40	13	vs	red	blue	blue	red	right	left	0.7	0.30000000000000004	10	2	7.0	0.6000000000000001	0	1	0.30000000000000004	0.7	2	10	0.6000000000000001	7.0	invalid	0.6998345169995446	53248	0	1	1	53248	1	53248	1	53248	1	0.7	53248	blue	red	1	0	ml	2.7.3	bip	sub-05_ses-01_task-ml_proj-bip_2020-11-10-10-27-07.056097
73	5	1	2	74	volatile	3	40	14	vs	red	blue	blue	red	right	left	0.7	0.30000000000000004	6	2	4.199999999999998	0.6000000000000001	1	0	0.30000000000000004	0.7	2	6	0.6000000000000001	4.199999999999998	valid	0.766474546999234	53248	0	1	1	53248	1	53248	1	53248	1	0.7	53248	blue	red	1	6	ml	2.7.3	bip	sub-05_ses-01_task-ml_proj-bip_2020-11-10-10-27-07.056097
74	5	1	2	75	volatile	3	40	15	vs	red	blue	blue	red	right	left	0.7	0.30000000000000004	4	6	2.8	1.8000000000000005	1	0	0.30000000000000004	0.7	6	4	1.8000000000000005	2.8	valid	1.616210543999841	51200	0	0	2	53248	0	53248	0	51200	1	0.7	53248	blue	red	0	0	ml	2.7.3	bip	sub-05_ses-01_task-ml_proj-bip_2020-11-10-10-27-07.056097
75	5	1	2	76	volatile	3	40	16	vs	red	blue	blue	red	right	left	0.7	0.30000000000000004	6	2	4.199999999999998	0.6000000000000001	0	1	0.30000000000000004	0.7	2	6	0.6000000000000001	4.199999999999998	invalid	0.7831367349990614	53248	0	1	1	53248	1	53248	1	53248	1	0.7	53248	blue	red	1	0	ml	2.7.3	bip	sub-05_ses-01_task-ml_proj-bip_2020-11-10-10-27-07.056097
76	5	1	2	77	volatile	3	40	17	vs	blue	red	blue	red	left	right	0.7	0.30000000000000004	4	6	2.8	1.8000000000000005	1	0	0.7	0.30000000000000004	4	6	2.8	1.8000000000000005	valid	0.7997862989996065	51200	0	0	1	51200	1	51200	1	53248	0	0.7	51200	blue	red	0	4	ml	2.7.3	bip	sub-05_ses-01_task-ml_proj-bip_2020-11-10-10-27-07.056097
77	5	1	2	78	volatile	3	40	18	vs	red	blue	blue	red	right	left	0.7	0.30000000000000004	2	6	1.4	1.8000000000000005	1	0	0.30000000000000004	0.7	6	2	1.8000000000000005	1.4	valid	1.5662244470004223	51200	0	0	2	51200	1	53248	0	51200	1	0.7	53248	blue	red	0	0	ml	2.7.3	bip	sub-05_ses-01_task-ml_proj-bip_2020-11-10-10-27-07.056097
78	5	1	2	79	volatile	3	40	19	vs	blue	red	blue	red	left	right	0.7	0.30000000000000004	4	6	2.8	1.8000000000000005	1	0	0.7	0.30000000000000004	4	6	2.8	1.8000000000000005	valid	0.6831523279997782	51200	0	0	1	51200	1	51200	1	53248	0	0.7	51200	blue	red	0	4	ml	2.7.3	bip	sub-05_ses-01_task-ml_proj-bip_2020-11-10-10-27-07.056097
79	5	1	2	80	volatile	3	40	20	vs	red	blue	blue	red	right	left	0.7	0.30000000000000004	2	4	1.4	1.2000000000000002	0	1	0.30000000000000004	0.7	4	2	1.2000000000000002	1.4	invalid	0.6998206259995641	53248	0	1	1	53248	1	53248	1	51200	0	0.7	53248	blue	red	0	0	ml	2.7.3	bip	sub-05_ses-01_task-ml_proj-bip_2020-11-10-10-27-07.056097
80	5	1	2	81	volatile	3	40	21	vs	blue	red	blue	red	left	right	0.7	0.30000000000000004	6	6	4.199999999999998	1.8000000000000005	1	0	0.7	0.30000000000000004	6	6	4.199999999999998	1.8000000000000005	valid	2.266029606000302	53248	0	1	2	51200	0	51200	0	53248	1	0.7	51200	blue	red	1	0	ml	2.7.3	bip	sub-05_ses-01_task-ml_proj-bip_2020-11-10-10-27-07.056097
81	5	1	2	82	volatile	3	40	22	vs	blue	red	blue	red	left	right	0.7	0.30000000000000004	2	10	1.4	3.0000000000000004	1	0	0.7	0.30000000000000004	2	10	1.4	3.0000000000000004	valid	0.7498170149992802	53248	0	1	2	53248	1	51200	0	53248	1	0.7	51200	blue	red	0	0	ml	2.7.3	bip	sub-05_ses-01_task-ml_proj-bip_2020-11-10-10-27-07.056097
82	5	1	2	83	volatile	3	40	23	vs	blue	red	blue	red	left	right	0.7	0.30000000000000004	6	4	4.199999999999998	1.2000000000000002	1	0	0.7	0.30000000000000004	6	4	4.199999999999998	1.2000000000000002	valid	1.332963080998525	51200	0	0	1	51200	1	51200	1	51200	1	0.7	51200	blue	red	1	6	ml	2.7.3	bip	sub-05_ses-01_task-ml_proj-bip_2020-11-10-10-27-07.056097
83	5	1	2	84	volatile	3	40	24	vs	red	blue	blue	red	right	left	0.7	0.30000000000000004	2	4	1.4	1.2000000000000002	0	1	0.30000000000000004	0.7	4	2	1.2000000000000002	1.4	invalid	1.1663588890005483	53248	0	1	1	53248	1	53248	1	51200	0	0.7	53248	blue	red	0	0	ml	2.7.3	bip	sub-05_ses-01_task-ml_proj-bip_2020-11-10-10-27-07.056097
84	5	1	2	85	volatile	3	40	25	vs	blue	red	blue	red	left	right	0.7	0.30000000000000004	2	4	1.4	1.2000000000000002	1	0	0.7	0.30000000000000004	2	4	1.4	1.2000000000000002	valid	1.9161279029995055	53248	0	1	2	51200	0	51200	0	53248	1	0.7	51200	blue	red	0	0	ml	2.7.3	bip	sub-05_ses-01_task-ml_proj-bip_2020-11-10-10-27-07.056097
85	5	1	2	86	volatile	3	40	26	vs	blue	red	blue	red	left	right	0.7	0.30000000000000004	2	4	1.4	1.2000000000000002	0	1	0.7	0.30000000000000004	2	4	1.4	1.2000000000000002	invalid	0.9164216450008098	51200	0	0	1	51200	1	51200	1	53248	0	0.7	51200	blue	red	0	0	ml	2.7.3	bip	sub-05_ses-01_task-ml_proj-bip_2020-11-10-10-27-07.056097
86	5	1	2	87	volatile	3	40	27	vs	red	blue	blue	red	right	left	0.7	0.30000000000000004	2	6	1.4	1.8000000000000005	1	0	0.30000000000000004	0.7	6	2	1.8000000000000005	1.4	valid	0.6498374629991304	51200	0	0	2	51200	1	53248	0	51200	1	0.7	53248	blue	red	0	0	ml	2.7.3	bip	sub-05_ses-01_task-ml_proj-bip_2020-11-10-10-27-07.056097
87	5	1	2	88	volatile	3	40	28	vs	red	blue	blue	red	right	left	0.7	0.30000000000000004	10	2	7.0	0.6000000000000001	1	0	0.30000000000000004	0.7	2	10	0.6000000000000001	7.0	valid	0.7331570160004048	53248	0	1	1	53248	1	53248	1	53248	1	0.7	53248	blue	red	1	10	ml	2.7.3	bip	sub-05_ses-01_task-ml_proj-bip_2020-11-10-10-27-07.056097
88	5	1	2	89	volatile	3	40	29	vs	red	blue	blue	red	right	left	0.7	0.30000000000000004	6	6	4.199999999999998	1.8000000000000005	1	0	0.30000000000000004	0.7	6	6	1.8000000000000005	4.199999999999998	valid	1.2163371790011297	53248	0	1	1	53248	1	53248	1	53248	1	0.7	53248	blue	red	0	6	ml	2.7.3	bip	sub-05_ses-01_task-ml_proj-bip_2020-11-10-10-27-07.056097
89	5	1	2	90	volatile	3	40	30	vs	red	blue	blue	red	right	left	0.7	0.30000000000000004	2	2	1.4	0.6000000000000001	1	0	0.30000000000000004	0.7	2	2	0.6000000000000001	1.4	valid	0.8331220770014625	53248	0	1	1	53248	1	53248	1	53248	1	0.7	53248	blue	red	0	2	ml	2.7.3	bip	sub-05_ses-01_task-ml_proj-bip_2020-11-10-10-27-07.056097
90	5	1	2	91	volatile	3	40	31	vs	red	blue	blue	red	right	left	0.7	0.30000000000000004	2	6	1.4	1.8000000000000005	1	0	0.30000000000000004	0.7	6	2	1.8000000000000005	1.4	valid	0.7331423649993667	51200	0	0	2	51200	1	53248	0	51200	1	0.7	53248	blue	red	0	0	ml	2.7.3	bip	sub-05_ses-01_task-ml_proj-bip_2020-11-10-10-27-07.056097
91	5	1	2	92	volatile	3	40	32	vs	red	blue	blue	red	right	left	0.7	0.30000000000000004	6	6	4.199999999999998	1.8000000000000005	0	1	0.30000000000000004	0.7	6	6	1.8000000000000005	4.199999999999998	invalid	1.0830484150010309	53248	0	1	1	53248	1	53248	1	53248	1	0.7	53248	blue	red	0	0	ml	2.7.3	bip	sub-05_ses-01_task-ml_proj-bip_2020-11-10-10-27-07.056097
92	5	1	2	93	volatile	3	40	33	vs	blue	red	blue	red	left	right	0.7	0.30000000000000004	4	6	2.8	1.8000000000000005	1	0	0.7	0.30000000000000004	4	6	2.8	1.8000000000000005	valid	0.6498309159997007	51200	0	0	1	51200	1	51200	1	53248	0	0.7	51200	blue	red	0	4	ml	2.7.3	bip	sub-05_ses-01_task-ml_proj-bip_2020-11-10-10-27-07.056097
93	5	1	2	94	volatile	3	40	34	vs	red	blue	blue	red	right	left	0.7	0.30000000000000004	6	2	4.199999999999998	0.6000000000000001	1	0	0.30000000000000004	0.7	2	6	0.6000000000000001	4.199999999999998	valid	0.5332104099998105	53248	0	1	1	53248	1	53248	1	53248	1	0.7	53248	blue	red	1	6	ml	2.7.3	bip	sub-05_ses-01_task-ml_proj-bip_2020-11-10-10-27-07.056097
94	5	1	2	95	volatile	3	40	35	vs	blue	red	blue	red	left	right	0.7	0.30000000000000004	2	4	1.4	1.2000000000000002	0	1	0.7	0.30000000000000004	2	4	1.4	1.2000000000000002	invalid	2.4159848660001444	53248	0	1	2	51200	0	51200	0	53248	1	0.7	51200	blue	red	0	4	ml	2.7.3	bip	sub-05_ses-01_task-ml_proj-bip_2020-11-10-10-27-07.056097
95	5	1	2	96	volatile	3	40	36	vs	blue	red	blue	red	left	right	0.7	0.30000000000000004	6	4	4.199999999999998	1.2000000000000002	1	0	0.7	0.30000000000000004	6	4	4.199999999999998	1.2000000000000002	valid	1.1830127909997827	51200	0	0	1	51200	1	51200	1	51200	1	0.7	51200	blue	red	1	6	ml	2.7.3	bip	sub-05_ses-01_task-ml_proj-bip_2020-11-10-10-27-07.056097
96	5	1	2	97	volatile	3	40	37	vs	red	blue	blue	red	right	left	0.7	0.30000000000000004	2	4	1.4	1.2000000000000002	1	0	0.30000000000000004	0.7	4	2	1.2000000000000002	1.4	valid	0.7331549080008699	53248	0	1	1	53248	1	53248	1	51200	0	0.7	53248	blue	red	0	2	ml	2.7.3	bip	sub-05_ses-01_task-ml_proj-bip_2020-11-10-10-27-07.056097
97	5	1	2	98	volatile	3	40	38	vs	blue	red	blue	red	left	right	0.7	0.30000000000000004	2	4	1.4	1.2000000000000002	1	0	0.7	0.30000000000000004	2	4	1.4	1.2000000000000002	valid	2.049419273998865	53248	0	1	2	51200	0	51200	0	53248	1	0.7	51200	blue	red	0	0	ml	2.7.3	bip	sub-05_ses-01_task-ml_proj-bip_2020-11-10-10-27-07.056097
98	5	1	2	99	volatile	3	40	39	vs	red	blue	blue	red	right	left	0.7	0.30000000000000004	2	10	1.4	3.0000000000000004	1	0	0.30000000000000004	0.7	10	2	3.0000000000000004	1.4	valid	0.649830562999341	51200	0	0	2	51200	1	53248	0	51200	1	0.7	53248	blue	red	0	0	ml	2.7.3	bip	sub-05_ses-01_task-ml_proj-bip_2020-11-10-10-27-07.056097
99	5	1	2	100	volatile	3	40	40	vs	blue	red	blue	red	left	right	0.7	0.30000000000000004	2	2	1.4	0.6000000000000001	1	0	0.7	0.30000000000000004	2	2	1.4	0.6000000000000001	valid	0.7664646579996771	51200	0	0	1	51200	1	51200	1	53248	0	0.7	51200	blue	red	1	2	ml	2.7.3	bip	sub-05_ses-01_task-ml_proj-bip_2020-11-10-10-27-07.056097
100	5	1	3	101	volatile	4	20	1	vs	red	blue	blue	red	right	left	0.30000000000000004	0.7	4	2	1.2000000000000002	1.4	0	1	0.7	0.30000000000000004	2	4	1.4	1.2000000000000002	valid	1.083052078000037	53248	0	1	1	51200	0	51200	0	53248	1	0.7	51200	red	blue	0	0	ml	2.7.3	bip	sub-05_ses-01_task-ml_proj-bip_2020-11-10-10-27-07.056097
101	5	1	3	102	volatile	4	20	2	vs	red	blue	blue	red	right	left	0.30000000000000004	0.7	2	10	0.6000000000000001	7.0	0	1	0.7	0.30000000000000004	10	2	7.0	0.6000000000000001	valid	0.6664935490007338	51200	0	0	2	51200	1	51200	1	51200	1	0.7	51200	red	blue	1	10	ml	2.7.3	bip	sub-05_ses-01_task-ml_proj-bip_2020-11-10-10-27-07.056097
102	5	1	3	103	volatile	4	20	3	vs	blue	red	blue	red	left	right	0.30000000000000004	0.7	2	6	0.6000000000000001	4.199999999999998	1	0	0.30000000000000004	0.7	2	6	0.6000000000000001	4.199999999999998	invalid	0.4832261379997362	53248	0	1	2	53248	1	53248	1	53248	1	0.7	53248	red	blue	1	0	ml	2.7.3	bip	sub-05_ses-01_task-ml_proj-bip_2020-11-10-10-27-07.056097
103	5	1	3	104	volatile	4	20	4	vs	red	blue	blue	red	right	left	0.30000000000000004	0.7	6	6	1.8000000000000005	4.199999999999998	1	0	0.7	0.30000000000000004	6	6	4.199999999999998	1.8000000000000005	invalid	0.5831846639994183	51200	0	0	2	51200	1	51200	1	53248	0	0.7	51200	red	blue	1	0	ml	2.7.3	bip	sub-05_ses-01_task-ml_proj-bip_2020-11-10-10-27-07.056097
104	5	1	3	105	volatile	4	20	5	vs	red	blue	blue	red	right	left	0.30000000000000004	0.7	6	4	1.8000000000000005	2.8	0	1	0.7	0.30000000000000004	4	6	2.8	1.8000000000000005	valid	0.683166828001049	53248	0	1	1	51200	0	51200	0	53248	1	0.7	51200	red	blue	0	0	ml	2.7.3	bip	sub-05_ses-01_task-ml_proj-bip_2020-11-10-10-27-07.056097
105	5	1	3	106	volatile	4	20	6	vs	red	blue	blue	red	right	left	0.30000000000000004	0.7	6	4	1.8000000000000005	2.8	1	0	0.7	0.30000000000000004	4	6	2.8	1.8000000000000005	invalid	0.5831972109990602	53248	0	1	1	51200	0	51200	0	53248	1	0.7	51200	red	blue	0	6	ml	2.7.3	bip	sub-05_ses-01_task-ml_proj-bip_2020-11-10-10-27-07.056097
106	5	1	3	107	volatile	4	20	7	vs	red	blue	blue	red	right	left	0.30000000000000004	0.7	2	2	0.6000000000000001	1.4	0	1	0.7	0.30000000000000004	2	2	1.4	0.6000000000000001	valid	0.8997697579998203	53248	0	1	1	51200	0	51200	0	53248	1	0.7	51200	red	blue	1	0	ml	2.7.3	bip	sub-05_ses-01_task-ml_proj-bip_2020-11-10-10-27-07.056097
107	5	1	3	108	volatile	4	20	8	vs	red	blue	blue	red	right	left	0.30000000000000004	0.7	6	6	1.8000000000000005	4.199999999999998	0	1	0.7	0.30000000000000004	6	6	4.199999999999998	1.8000000000000005	valid	1.5995427050002036	51200	0	0	2	51200	1	51200	1	53248	0	0.7	51200	red	blue	1	6	ml	2.7.3	bip	sub-05_ses-01_task-ml_proj-bip_2020-11-10-10-27-07.056097
108	5	1	3	109	volatile	4	20	9	vs	red	blue	blue	red	right	left	0.30000000000000004	0.7	2	4	0.6000000000000001	2.8	0	1	0.7	0.30000000000000004	4	2	2.8	0.6000000000000001	valid	0.5831943369994406	51200	0	0	2	51200	1	51200	1	51200	1	0.7	51200	red	blue	1	4	ml	2.7.3	bip	sub-05_ses-01_task-ml_proj-bip_2020-11-10-10-27-07.056097
109	5	1	3	110	volatile	4	20	10	vs	blue	red	blue	red	left	right	0.30000000000000004	0.7	6	2	1.8000000000000005	1.4	1	0	0.30000000000000004	0.7	6	2	1.8000000000000005	1.4	invalid	0.8830904300011753	51200	0	0	1	51200	1	53248	0	51200	1	0.7	53248	red	blue	0	6	ml	2.7.3	bip	sub-05_ses-01_task-ml_proj-bip_2020-11-10-10-27-07.056097
110	5	1	3	111	volatile	4	20	11	vs	blue	red	blue	red	left	right	0.30000000000000004	0.7	6	4	1.8000000000000005	2.8	0	1	0.30000000000000004	0.7	6	4	1.8000000000000005	2.8	valid	0.6498305850000179	51200	0	0	1	53248	0	53248	0	51200	1	0.7	53248	red	blue	0	0	ml	2.7.3	bip	sub-05_ses-01_task-ml_proj-bip_2020-11-10-10-27-07.056097
111	5	1	3	112	volatile	4	20	12	vs	blue	red	blue	red	left	right	0.30000000000000004	0.7	2	4	0.6000000000000001	2.8	0	1	0.30000000000000004	0.7	2	4	0.6000000000000001	2.8	valid	1.416280358000222	53248	0	1	2	53248	1	53248	1	53248	1	0.7	53248	red	blue	1	4	ml	2.7.3	bip	sub-05_ses-01_task-ml_proj-bip_2020-11-10-10-27-07.056097
112	5	1	3	113	volatile	4	20	13	vs	blue	red	blue	red	left	right	0.30000000000000004	0.7	6	2	1.8000000000000005	1.4	0	1	0.30000000000000004	0.7	6	2	1.8000000000000005	1.4	valid	1.2496485730007407	51200	0	0	1	51200	1	53248	0	51200	1	0.7	53248	red	blue	0	0	ml	2.7.3	bip	sub-05_ses-01_task-ml_proj-bip_2020-11-10-10-27-07.056097
113	5	1	3	114	volatile	4	20	14	vs	blue	red	blue	red	left	right	0.30000000000000004	0.7	10	2	3.0000000000000004	1.4	0	1	0.30000000000000004	0.7	10	2	3.0000000000000004	1.4	valid	1.0163922969986745	51200	0	0	1	51200	1	53248	0	51200	1	0.7	53248	red	blue	0	0	ml	2.7.3	bip	sub-05_ses-01_task-ml_proj-bip_2020-11-10-10-27-07.056097
114	5	1	3	115	volatile	4	20	15	vs	red	blue	blue	red	right	left	0.30000000000000004	0.7	2	4	0.6000000000000001	2.8	1	0	0.7	0.30000000000000004	4	2	2.8	0.6000000000000001	invalid	0.5498606229994039	51200	0	0	2	51200	1	51200	1	51200	1	0.7	51200	red	blue	1	0	ml	2.7.3	bip	sub-05_ses-01_task-ml_proj-bip_2020-11-10-10-27-07.056097
115	5	1	3	116	volatile	4	20	16	vs	red	blue	blue	red	right	left	0.30000000000000004	0.7	6	2	1.8000000000000005	1.4	0	1	0.7	0.30000000000000004	2	6	1.4	1.8000000000000005	valid	1.3829590430013925	53248	0	1	1	53248	1	51200	0	53248	1	0.7	51200	red	blue	0	0	ml	2.7.3	bip	sub-05_ses-01_task-ml_proj-bip_2020-11-10-10-27-07.056097
116	5	1	3	117	volatile	4	20	17	vs	blue	red	blue	red	left	right	0.30000000000000004	0.7	2	2	0.6000000000000001	1.4	0	1	0.30000000000000004	0.7	2	2	0.6000000000000001	1.4	valid	0.7498083250011405	53248	0	1	2	53248	1	53248	1	53248	1	0.7	53248	red	blue	0	2	ml	2.7.3	bip	sub-05_ses-01_task-ml_proj-bip_2020-11-10-10-27-07.056097
117	5	1	3	118	volatile	4	20	18	vs	blue	red	blue	red	left	right	0.30000000000000004	0.7	2	10	0.6000000000000001	7.0	0	1	0.30000000000000004	0.7	2	10	0.6000000000000001	7.0	valid	0.7831361230000766	53248	0	1	2	53248	1	53248	1	53248	1	0.7	53248	red	blue	1	10	ml	2.7.3	bip	sub-05_ses-01_task-ml_proj-bip_2020-11-10-10-27-07.056097
118	5	1	3	119	volatile	4	20	19	vs	blue	red	blue	red	left	right	0.30000000000000004	0.7	2	10	0.6000000000000001	7.0	0	1	0.30000000000000004	0.7	2	10	0.6000000000000001	7.0	valid	0.7664777669997421	53248	0	1	2	53248	1	53248	1	53248	1	0.7	53248	red	blue	1	10	ml	2.7.3	bip	sub-05_ses-01_task-ml_proj-bip_2020-11-10-10-27-07.056097
119	5	1	3	120	volatile	4	20	20	vs	blue	red	blue	red	left	right	0.30000000000000004	0.7	6	4	1.8000000000000005	2.8	1	0	0.30000000000000004	0.7	6	4	1.8000000000000005	2.8	invalid	1.3663034700002754	53248	0	1	2	53248	1	53248	1	51200	0	0.7	53248	red	blue	0	0	ml	2.7.3	bip	sub-05_ses-01_task-ml_proj-bip_2020-11-10-10-27-07.056097
120	5	1	3	121	volatile	5	40	1	vs	blue	red	blue	red	left	right	0.7	0.30000000000000004	6	6	4.199999999999998	1.8000000000000005	0	1	0.7	0.30000000000000004	6	6	4.199999999999998	1.8000000000000005	invalid	0.6331722340000852	53248	0	1	2	51200	0	51200	0	53248	1	0.7	51200	blue	red	1	6	ml	2.7.3	bip	sub-05_ses-01_task-ml_proj-bip_2020-11-10-10-27-07.056097
121	5	1	3	122	volatile	5	40	2	vs	blue	red	blue	red	left	right	0.7	0.30000000000000004	6	4	4.199999999999998	1.2000000000000002	1	0	0.7	0.30000000000000004	6	4	4.199999999999998	1.2000000000000002	valid	1.1830176370003755	53248	0	1	2	51200	0	51200	0	51200	0	0.7	51200	blue	red	1	0	ml	2.7.3	bip	sub-05_ses-01_task-ml_proj-bip_2020-11-10-10-27-07.056097
122	5	1	3	123	volatile	5	40	3	vs	red	blue	blue	red	right	left	0.7	0.30000000000000004	2	2	1.4	0.6000000000000001	0	1	0.30000000000000004	0.7	2	2	0.6000000000000001	1.4	invalid	1.3163006089998817	51200	0	0	2	53248	0	53248	0	53248	0	0.7	53248	blue	red	0	2	ml	2.7.3	bip	sub-05_ses-01_task-ml_proj-bip_2020-11-10-10-27-07.056097
123	5	1	3	124	volatile	5	40	4	vs	red	blue	blue	red	right	left	0.7	0.30000000000000004	2	2	1.4	0.6000000000000001	1	0	0.30000000000000004	0.7	2	2	0.6000000000000001	1.4	valid	0.7498042269999132	51200	0	0	2	53248	0	53248	0	53248	0	0.7	53248	blue	red	0	0	ml	2.7.3	bip	sub-05_ses-01_task-ml_proj-bip_2020-11-10-10-27-07.056097
124	5	1	3	125	volatile	5	40	5	vs	blue	red	blue	red	left	right	0.7	0.30000000000000004	6	6	4.199999999999998	1.8000000000000005	1	0	0.7	0.30000000000000004	6	6	4.199999999999998	1.8000000000000005	valid	1.3163116880004964	53248	0	1	2	51200	0	51200	0	53248	1	0.7	51200	blue	red	1	0	ml	2.7.3	bip	sub-05_ses-01_task-ml_proj-bip_2020-11-10-10-27-07.056097
125	5	1	3	126	volatile	5	40	6	vs	red	blue	blue	red	right	left	0.7	0.30000000000000004	10	2	7.0	0.6000000000000001	1	0	0.30000000000000004	0.7	2	10	0.6000000000000001	7.0	valid	0.5332129130001704	53248	0	1	1	53248	1	53248	1	53248	1	0.7	53248	blue	red	1	10	ml	2.7.3	bip	sub-05_ses-01_task-ml_proj-bip_2020-11-10-10-27-07.056097
126	5	1	3	127	volatile	5	40	7	vs	red	blue	blue	red	right	left	0.7	0.30000000000000004	10	2	7.0	0.6000000000000001	1	0	0.30000000000000004	0.7	2	10	0.6000000000000001	7.0	valid	0.4665675030009879	53248	0	1	1	53248	1	53248	1	53248	1	0.7	53248	blue	red	1	10	ml	2.7.3	bip	sub-05_ses-01_task-ml_proj-bip_2020-11-10-10-27-07.056097
127	5	1	3	128	volatile	5	40	8	vs	blue	red	blue	red	left	right	0.7	0.30000000000000004	4	6	2.8	1.8000000000000005	1	0	0.7	0.30000000000000004	4	6	2.8	1.8000000000000005	valid	0.6664975029998459	51200	0	0	1	51200	1	51200	1	53248	0	0.7	51200	blue	red	0	4	ml	2.7.3	bip	sub-05_ses-01_task-ml_proj-bip_2020-11-10-10-27-07.056097
128	5	1	3	129	volatile	5	40	9	vs	red	blue	blue	red	right	left	0.7	0.30000000000000004	2	4	1.4	1.2000000000000002	0	1	0.30000000000000004	0.7	4	2	1.2000000000000002	1.4	invalid	0.9830852659997618	53248	0	1	1	53248	1	53248	1	51200	0	0.7	53248	blue	red	0	0	ml	2.7.3	bip	sub-05_ses-01_task-ml_proj-bip_2020-11-10-10-27-07.056097
129	5	1	3	130	volatile	5	40	10	vs	blue	red	blue	red	left	right	0.7	0.30000000000000004	6	4	4.199999999999998	1.2000000000000002	1	0	0.7	0.30000000000000004	6	4	4.199999999999998	1.2000000000000002	valid	0.5665227879999293	51200	0	0	1	51200	1	51200	1	51200	1	0.7	51200	blue	red	1	6	ml	2.7.3	bip	sub-05_ses-01_task-ml_proj-bip_2020-11-10-10-27-07.056097
130	5	1	3	131	volatile	5	40	11	vs	red	blue	blue	red	right	left	0.7	0.30000000000000004	4	2	2.8	0.6000000000000001	1	0	0.30000000000000004	0.7	2	4	0.6000000000000001	2.8	valid	0.5498689609994472	53248	0	1	1	53248	1	53248	1	53248	1	0.7	53248	blue	red	1	4	ml	2.7.3	bip	sub-05_ses-01_task-ml_proj-bip_2020-11-10-10-27-07.056097
131	5	1	3	132	volatile	5	40	12	vs	blue	red	blue	red	left	right	0.7	0.30000000000000004	2	2	1.4	0.6000000000000001	1	0	0.7	0.30000000000000004	2	2	1.4	0.6000000000000001	valid	0.5998488580007688	51200	0	0	1	51200	1	51200	1	53248	0	0.7	51200	blue	red	1	2	ml	2.7.3	bip	sub-05_ses-01_task-ml_proj-bip_2020-11-10-10-27-07.056097
132	5	1	3	133	volatile	5	40	13	vs	red	blue	blue	red	right	left	0.7	0.30000000000000004	6	4	4.199999999999998	1.2000000000000002	1	0	0.30000000000000004	0.7	4	6	1.2000000000000002	4.199999999999998	valid	0.6498417820002942	53248	0	1	1	53248	1	53248	1	53248	1	0.7	53248	blue	red	1	6	ml	2.7.3	bip	sub-05_ses-01_task-ml_proj-bip_2020-11-10-10-27-07.056097
133	5	1	3	134	volatile	5	40	14	vs	blue	red	blue	red	left	right	0.7	0.30000000000000004	6	4	4.199999999999998	1.2000000000000002	1	0	0.7	0.30000000000000004	6	4	4.199999999999998	1.2000000000000002	valid	0.583185028999651	51200	0	0	1	51200	1	51200	1	51200	1	0.7	51200	blue	red	1	6	ml	2.7.3	bip	sub-05_ses-01_task-ml_proj-bip_2020-11-10-10-27-07.056097
134	5	1	3	135	volatile	5	40	15	vs	red	blue	blue	red	right	left	0.7	0.30000000000000004	6	6	4.199999999999998	1.8000000000000005	1	0	0.30000000000000004	0.7	6	6	1.8000000000000005	4.199999999999998	valid	0.5998575089997757	53248	0	1	1	53248	1	53248	1	53248	1	0.7	53248	blue	red	0	6	ml	2.7.3	bip	sub-05_ses-01_task-ml_proj-bip_2020-11-10-10-27-07.056097
135	5	1	3	136	volatile	5	40	16	vs	blue	red	blue	red	left	right	0.7	0.30000000000000004	2	6	1.4	1.8000000000000005	1	0	0.7	0.30000000000000004	2	6	1.4	1.8000000000000005	valid	1.1496885669985204	53248	0	1	2	53248	1	51200	0	53248	1	0.7	51200	blue	red	0	0	ml	2.7.3	bip	sub-05_ses-01_task-ml_proj-bip_2020-11-10-10-27-07.056097
136	5	1	3	137	volatile	5	40	17	vs	red	blue	blue	red	right	left	0.7	0.30000000000000004	4	2	2.8	0.6000000000000001	0	1	0.30000000000000004	0.7	2	4	0.6000000000000001	2.8	invalid	0.7831367910002882	53248	0	1	1	53248	1	53248	1	53248	1	0.7	53248	blue	red	1	0	ml	2.7.3	bip	sub-05_ses-01_task-ml_proj-bip_2020-11-10-10-27-07.056097
137	5	1	3	138	volatile	5	40	18	vs	blue	red	blue	red	left	right	0.7	0.30000000000000004	10	2	7.0	0.6000000000000001	1	0	0.7	0.30000000000000004	10	2	7.0	0.6000000000000001	valid	0.4832113900010882	51200	0	0	1	51200	1	51200	1	51200	1	0.7	51200	blue	red	1	10	ml	2.7.3	bip	sub-05_ses-01_task-ml_proj-bip_2020-11-10-10-27-07.056097
138	5	1	3	139	volatile	5	40	19	vs	blue	red	blue	red	left	right	0.7	0.30000000000000004	2	10	1.4	3.0000000000000004	1	0	0.7	0.30000000000000004	2	10	1.4	3.0000000000000004	valid	0.6665112509999744	53248	0	1	2	53248	1	51200	0	53248	1	0.7	51200	blue	red	0	0	ml	2.7.3	bip	sub-05_ses-01_task-ml_proj-bip_2020-11-10-10-27-07.056097
139	5	1	3	140	volatile	5	40	20	vs	red	blue	blue	red	right	left	0.7	0.30000000000000004	2	4	1.4	1.2000000000000002	1	0	0.30000000000000004	0.7	4	2	1.2000000000000002	1.4	valid	0.8997617830009403	53248	0	1	1	53248	1	53248	1	51200	0	0.7	53248	blue	red	0	2	ml	2.7.3	bip	sub-05_ses-01_task-ml_proj-bip_2020-11-10-10-27-07.056097
140	5	1	3	141	volatile	5	40	21	vs	red	blue	blue	red	right	left	0.7	0.30000000000000004	2	6	1.4	1.8000000000000005	0	1	0.30000000000000004	0.7	6	2	1.8000000000000005	1.4	invalid	1.5995672659992124	53248	0	1	1	51200	0	53248	1	51200	0	0.7	53248	blue	red	0	0	ml	2.7.3	bip	sub-05_ses-01_task-ml_proj-bip_2020-11-10-10-27-07.056097
141	5	1	3	142	volatile	5	40	22	vs	blue	red	blue	red	left	right	0.7	0.30000000000000004	4	2	2.8	0.6000000000000001	1	0	0.7	0.30000000000000004	4	2	2.8	0.6000000000000001	valid	0.7997787509993941	51200	0	0	1	51200	1	51200	1	51200	1	0.7	51200	blue	red	1	4	ml	2.7.3	bip	sub-05_ses-01_task-ml_proj-bip_2020-11-10-10-27-07.056097
142	5	1	3	143	volatile	5	40	23	vs	red	blue	blue	red	right	left	0.7	0.30000000000000004	6	6	4.199999999999998	1.8000000000000005	1	0	0.30000000000000004	0.7	6	6	1.8000000000000005	4.199999999999998	valid	0.6665063459986413	53248	0	1	1	53248	1	53248	1	53248	1	0.7	53248	blue	red	0	6	ml	2.7.3	bip	sub-05_ses-01_task-ml_proj-bip_2020-11-10-10-27-07.056097
143	5	1	3	144	volatile	5	40	24	vs	blue	red	blue	red	left	right	0.7	0.30000000000000004	6	2	4.199999999999998	0.6000000000000001	1	0	0.7	0.30000000000000004	6	2	4.199999999999998	0.6000000000000001	valid	0.6831556680008362	51200	0	0	1	51200	1	51200	1	51200	1	0.7	51200	blue	red	1	6	ml	2.7.3	bip	sub-05_ses-01_task-ml_proj-bip_2020-11-10-10-27-07.056097
144	5	1	3	145	volatile	5	40	25	vs	blue	red	blue	red	left	right	0.7	0.30000000000000004	10	2	7.0	0.6000000000000001	1	0	0.7	0.30000000000000004	10	2	7.0	0.6000000000000001	valid	0.6831576660006249	51200	0	0	1	51200	1	51200	1	51200	1	0.7	51200	blue	red	1	10	ml	2.7.3	bip	sub-05_ses-01_task-ml_proj-bip_2020-11-10-10-27-07.056097
145	5	1	3	146	volatile	5	40	26	vs	blue	red	blue	red	left	right	0.7	0.30000000000000004	6	4	4.199999999999998	1.2000000000000002	0	1	0.7	0.30000000000000004	6	4	4.199999999999998	1.2000000000000002	invalid	0.616513708999264	51200	0	0	1	51200	1	51200	1	51200	1	0.7	51200	blue	red	1	0	ml	2.7.3	bip	sub-05_ses-01_task-ml_proj-bip_2020-11-10-10-27-07.056097
146	5	1	3	147	volatile	5	40	27	vs	red	blue	blue	red	right	left	0.7	0.30000000000000004	6	2	4.199999999999998	0.6000000000000001	1	0	0.30000000000000004	0.7	2	6	0.6000000000000001	4.199999999999998	valid	0.4832246200003283	53248	0	1	1	53248	1	53248	1	53248	1	0.7	53248	blue	red	1	6	ml	2.7.3	bip	sub-05_ses-01_task-ml_proj-bip_2020-11-10-10-27-07.056097
147	5	1	3	148	volatile	5	40	28	vs	blue	red	blue	red	left	right	0.7	0.30000000000000004	10	2	7.0	0.6000000000000001	0	1	0.7	0.30000000000000004	10	2	7.0	0.6000000000000001	invalid	0.6331705709999369	51200	0	0	1	51200	1	51200	1	51200	1	0.7	51200	blue	red	1	0	ml	2.7.3	bip	sub-05_ses-01_task-ml_proj-bip_2020-11-10-10-27-07.056097
148	5	1	3	149	volatile	5	40	29	vs	red	blue	blue	red	right	left	0.7	0.30000000000000004	6	2	4.199999999999998	0.6000000000000001	1	0	0.30000000000000004	0.7	2	6	0.6000000000000001	4.199999999999998	valid	0.5498690309996164	53248	0	1	1	53248	1	53248	1	53248	1	0.7	53248	blue	red	1	6	ml	2.7.3	bip	sub-05_ses-01_task-ml_proj-bip_2020-11-10-10-27-07.056097
149	5	1	3	150	volatile	5	40	30	vs	red	blue	blue	red	right	left	0.7	0.30000000000000004	6	4	4.199999999999998	1.2000000000000002	1	0	0.30000000000000004	0.7	4	6	1.2000000000000002	4.199999999999998	valid	0.6831673260003299	53248	0	1	1	53248	1	53248	1	53248	1	0.7	53248	blue	red	1	6	ml	2.7.3	bip	sub-05_ses-01_task-ml_proj-bip_2020-11-10-10-27-07.056097
150	5	1	4	151	volatile	5	40	31	vs	blue	red	blue	red	left	right	0.7	0.30000000000000004	2	6	1.4	1.8000000000000005	1	0	0.7	0.30000000000000004	2	6	1.4	1.8000000000000005	valid	1.066378038998664	53248	0	1	2	53248	1	51200	0	53248	1	0.7	51200	blue	red	0	0	ml	2.7.3	bip	sub-05_ses-01_task-ml_proj-bip_2020-11-10-10-27-07.056097
151	5	1	4	152	volatile	5	40	32	vs	blue	red	blue	red	left	right	0.7	0.30000000000000004	6	2	4.199999999999998	0.6000000000000001	1	0	0.7	0.30000000000000004	6	2	4.199999999999998	0.6000000000000001	valid	0.8664432069999748	51200	0	0	1	51200	1	51200	1	51200	1	0.7	51200	blue	red	1	6	ml	2.7.3	bip	sub-05_ses-01_task-ml_proj-bip_2020-11-10-10-27-07.056097
152	5	1	4	153	volatile	5	40	33	vs	red	blue	blue	red	right	left	0.7	0.30000000000000004	2	4	1.4	1.2000000000000002	1	0	0.30000000000000004	0.7	4	2	1.2000000000000002	1.4	valid	0.7998049399993761	53248	0	1	1	53248	1	53248	1	51200	0	0.7	53248	blue	red	0	2	ml	2.7.3	bip	sub-05_ses-01_task-ml_proj-bip_2020-11-10-10-27-07.056097
153	5	1	4	154	volatile	5	40	34	vs	blue	red	blue	red	left	right	0.7	0.30000000000000004	2	2	1.4	0.6000000000000001	0	1	0.7	0.30000000000000004	2	2	1.4	0.6000000000000001	invalid	0.6331710840004234	51200	0	0	1	51200	1	51200	1	53248	0	0.7	51200	blue	red	1	0	ml	2.7.3	bip	sub-05_ses-01_task-ml_proj-bip_2020-11-10-10-27-07.056097
154	5	1	4	155	volatile	5	40	35	vs	red	blue	blue	red	right	left	0.7	0.30000000000000004	10	2	7.0	0.6000000000000001	0	1	0.30000000000000004	0.7	2	10	0.6000000000000001	7.0	invalid	0.4998832820001553	53248	0	1	1	53248	1	53248	1	53248	1	0.7	53248	blue	red	1	0	ml	2.7.3	bip	sub-05_ses-01_task-ml_proj-bip_2020-11-10-10-27-07.056097
155	5	1	4	156	volatile	5	40	36	vs	blue	red	blue	red	left	right	0.7	0.30000000000000004	10	2	7.0	0.6000000000000001	0	1	0.7	0.30000000000000004	10	2	7.0	0.6000000000000001	invalid	1.1996790740013241	51200	0	0	1	51200	1	51200	1	51200	1	0.7	51200	blue	red	1	0	ml	2.7.3	bip	sub-05_ses-01_task-ml_proj-bip_2020-11-10-10-27-07.056097
156	5	1	4	157	volatile	5	40	37	vs	red	blue	blue	red	right	left	0.7	0.30000000000000004	6	4	4.199999999999998	1.2000000000000002	0	1	0.30000000000000004	0.7	4	6	1.2000000000000002	4.199999999999998	invalid	2.7825375770007668	51200	0	0	2	53248	0	53248	0	53248	0	0.7	53248	blue	red	1	4	ml	2.7.3	bip	sub-05_ses-01_task-ml_proj-bip_2020-11-10-10-27-07.056097
157	5	1	4	158	volatile	5	40	38	vs	red	blue	blue	red	right	left	0.7	0.30000000000000004	4	2	2.8	0.6000000000000001	1	0	0.30000000000000004	0.7	2	4	0.6000000000000001	2.8	valid	1.0330570030000672	51200	0	0	2	53248	0	53248	0	53248	0	0.7	53248	blue	red	1	0	ml	2.7.3	bip	sub-05_ses-01_task-ml_proj-bip_2020-11-10-10-27-07.056097
158	5	1	4	159	volatile	5	40	39	vs	red	blue	blue	red	right	left	0.7	0.30000000000000004	2	6	1.4	1.8000000000000005	1	0	0.30000000000000004	0.7	6	2	1.8000000000000005	1.4	valid	0.5665256919983221	51200	0	0	2	51200	1	53248	0	51200	1	0.7	53248	blue	red	0	0	ml	2.7.3	bip	sub-05_ses-01_task-ml_proj-bip_2020-11-10-10-27-07.056097
159	5	1	4	160	volatile	5	40	40	vs	blue	red	blue	red	left	right	0.7	0.30000000000000004	2	4	1.4	1.2000000000000002	0	1	0.7	0.30000000000000004	2	4	1.4	1.2000000000000002	invalid	2.2660198119992856	51200	0	0	1	51200	1	51200	1	53248	0	0.7	51200	blue	red	0	0	ml	2.7.3	bip	sub-05_ses-01_task-ml_proj-bip_2020-11-10-10-27-07.056097
160	5	1	4	161	volatile	6	20	1	vs	red	blue	blue	red	right	left	0.30000000000000004	0.7	4	2	1.2000000000000002	1.4	0	1	0.7	0.30000000000000004	2	4	1.4	1.2000000000000002	valid	0.5498536480008624	53248	0	1	1	51200	0	51200	0	53248	1	0.7	51200	red	blue	0	0	ml	2.7.3	bip	sub-05_ses-01_task-ml_proj-bip_2020-11-10-10-27-07.056097
161	5	1	4	162	volatile	6	20	2	vs	red	blue	blue	red	right	left	0.30000000000000004	0.7	2	2	0.6000000000000001	1.4	0	1	0.7	0.30000000000000004	2	2	1.4	0.6000000000000001	valid	0.6831556060005823	51200	0	0	2	51200	1	51200	1	53248	0	0.7	51200	red	blue	1	2	ml	2.7.3	bip	sub-05_ses-01_task-ml_proj-bip_2020-11-10-10-27-07.056097
162	5	1	4	163	volatile	6	20	3	vs	red	blue	blue	red	right	left	0.30000000000000004	0.7	2	10	0.6000000000000001	7.0	0	1	0.7	0.30000000000000004	10	2	7.0	0.6000000000000001	valid	0.5498663759990451	51200	0	0	2	51200	1	51200	1	51200	1	0.7	51200	red	blue	1	10	ml	2.7.3	bip	sub-05_ses-01_task-ml_proj-bip_2020-11-10-10-27-07.056097
163	5	1	4	164	volatile	6	20	4	vs	blue	red	blue	red	left	right	0.30000000000000004	0.7	2	6	0.6000000000000001	4.199999999999998	1	0	0.30000000000000004	0.7	2	6	0.6000000000000001	4.199999999999998	invalid	0.5998567120004736	53248	0	1	2	53248	1	53248	1	53248	1	0.7	53248	red	blue	1	0	ml	2.7.3	bip	sub-05_ses-01_task-ml_proj-bip_2020-11-10-10-27-07.056097
164	5	1	4	165	volatile	6	20	5	vs	blue	red	blue	red	left	right	0.30000000000000004	0.7	6	4	1.8000000000000005	2.8	0	1	0.30000000000000004	0.7	6	4	1.8000000000000005	2.8	valid	1.2330040260003443	53248	0	1	2	53248	1	53248	1	51200	0	0.7	53248	red	blue	0	4	ml	2.7.3	bip	sub-05_ses-01_task-ml_proj-bip_2020-11-10-10-27-07.056097
165	5	1	4	166	volatile	6	20	6	vs	red	blue	blue	red	right	left	0.30000000000000004	0.7	6	4	1.8000000000000005	2.8	0	1	0.7	0.30000000000000004	4	6	2.8	1.8000000000000005	valid	0.7498023850002937	51200	0	0	2	51200	1	51200	1	53248	0	0.7	51200	red	blue	0	4	ml	2.7.3	bip	sub-05_ses-01_task-ml_proj-bip_2020-11-10-10-27-07.056097
166	5	1	4	167	volatile	6	20	7	vs	red	blue	blue	red	right	left	0.30000000000000004	0.7	6	2	1.8000000000000005	1.4	1	0	0.7	0.30000000000000004	2	6	1.4	1.8000000000000005	invalid	1.4995906019994436	53248	0	1	1	53248	1	51200	0	53248	1	0.7	51200	red	blue	0	6	ml	2.7.3	bip	sub-05_ses-01_task-ml_proj-bip_2020-11-10-10-27-07.056097
167	5	1	4	168	volatile	6	20	8	vs	red	blue	blue	red	right	left	0.30000000000000004	0.7	2	10	0.6000000000000001	7.0	1	0	0.7	0.30000000000000004	10	2	7.0	0.6000000000000001	invalid	0.5831852139999683	51200	0	0	2	51200	1	51200	1	51200	1	0.7	51200	red	blue	1	0	ml	2.7.3	bip	sub-05_ses-01_task-ml_proj-bip_2020-11-10-10-27-07.056097
168	5	1	4	169	volatile	6	20	9	vs	red	blue	blue	red	right	left	0.30000000000000004	0.7	4	2	1.2000000000000002	1.4	0	1	0.7	0.30000000000000004	2	4	1.4	1.2000000000000002	valid	1.083047482999973	53248	0	1	1	51200	0	51200	0	53248	1	0.7	51200	red	blue	0	0	ml	2.7.3	bip	sub-05_ses-01_task-ml_proj-bip_2020-11-10-10-27-07.056097
169	5	1	4	170	volatile	6	20	10	vs	blue	red	blue	red	left	right	0.30000000000000004	0.7	6	2	1.8000000000000005	1.4	0	1	0.30000000000000004	0.7	6	2	1.8000000000000005	1.4	valid	0.6831577850007307	51200	0	0	1	51200	1	53248	0	51200	1	0.7	53248	red	blue	0	0	ml	2.7.3	bip	sub-05_ses-01_task-ml_proj-bip_2020-11-10-10-27-07.056097
170	5	1	4	171	volatile	6	20	11	vs	blue	red	blue	red	left	right	0.30000000000000004	0.7	4	2	1.2000000000000002	1.4	0	1	0.30000000000000004	0.7	4	2	1.2000000000000002	1.4	valid	0.7997960680004326	53248	0	1	2	53248	1	53248	1	51200	0	0.7	53248	red	blue	0	2	ml	2.7.3	bip	sub-05_ses-01_task-ml_proj-bip_2020-11-10-10-27-07.056097
171	5	1	4	172	volatile	6	20	12	vs	red	blue	blue	red	right	left	0.30000000000000004	0.7	6	4	1.8000000000000005	2.8	0	1	0.7	0.30000000000000004	4	6	2.8	1.8000000000000005	valid	0.7997880900002201	51200	0	0	2	51200	1	51200	1	53248	0	0.7	51200	red	blue	0	4	ml	2.7.3	bip	sub-05_ses-01_task-ml_proj-bip_2020-11-10-10-27-07.056097
172	5	1	4	173	volatile	6	20	13	vs	blue	red	blue	red	left	right	0.30000000000000004	0.7	6	2	1.8000000000000005	1.4	0	1	0.30000000000000004	0.7	6	2	1.8000000000000005	1.4	valid	0.983069120999062	51200	0	0	1	51200	1	53248	0	51200	1	0.7	53248	red	blue	0	0	ml	2.7.3	bip	sub-05_ses-01_task-ml_proj-bip_2020-11-10-10-27-07.056097
173	5	1	4	174	volatile	6	20	14	vs	blue	red	blue	red	left	right	0.30000000000000004	0.7	6	6	1.8000000000000005	4.199999999999998	1	0	0.30000000000000004	0.7	6	6	1.8000000000000005	4.199999999999998	invalid	1.6828696470001887	53248	0	1	2	53248	1	53248	1	53248	1	0.7	53248	red	blue	0	0	ml	2.7.3	bip	sub-05_ses-01_task-ml_proj-bip_2020-11-10-10-27-07.056097
174	5	1	4	175	volatile	6	20	15	vs	blue	red	blue	red	left	right	0.30000000000000004	0.7	6	6	1.8000000000000005	4.199999999999998	0	1	0.30000000000000004	0.7	6	6	1.8000000000000005	4.199999999999998	valid	0.6998282429995015	53248	0	1	2	53248	1	53248	1	53248	1	0.7	53248	red	blue	0	6	ml	2.7.3	bip	sub-05_ses-01_task-ml_proj-bip_2020-11-10-10-27-07.056097
175	5	1	4	176	volatile	6	20	16	vs	red	blue	blue	red	right	left	0.30000000000000004	0.7	10	2	3.0000000000000004	1.4	1	0	0.7	0.30000000000000004	2	10	1.4	3.0000000000000004	invalid	0.7664774830009264	53248	0	1	1	53248	1	51200	0	53248	1	0.7	51200	red	blue	0	10	ml	2.7.3	bip	sub-05_ses-01_task-ml_proj-bip_2020-11-10-10-27-07.056097
176	5	1	4	177	volatile	6	20	17	vs	blue	red	blue	red	left	right	0.30000000000000004	0.7	2	10	0.6000000000000001	7.0	1	0	0.30000000000000004	0.7	2	10	0.6000000000000001	7.0	invalid	0.5665346709993173	53248	0	1	2	53248	1	53248	1	53248	1	0.7	53248	red	blue	1	0	ml	2.7.3	bip	sub-05_ses-01_task-ml_proj-bip_2020-11-10-10-27-07.056097
177	5	1	4	178	volatile	6	20	18	vs	red	blue	blue	red	right	left	0.30000000000000004	0.7	2	2	0.6000000000000001	1.4	0	1	0.7	0.30000000000000004	2	2	1.4	0.6000000000000001	valid	1.3662915240001894	51200	0	0	2	51200	1	51200	1	53248	0	0.7	51200	red	blue	1	2	ml	2.7.3	bip	sub-05_ses-01_task-ml_proj-bip_2020-11-10-10-27-07.056097
178	5	1	4	179	volatile	6	20	19	vs	blue	red	blue	red	left	right	0.30000000000000004	0.7	4	2	1.2000000000000002	1.4	0	1	0.30000000000000004	0.7	4	2	1.2000000000000002	1.4	valid	1.1163740909996704	53248	0	1	2	53248	1	53248	1	51200	0	0.7	53248	red	blue	0	2	ml	2.7.3	bip	sub-05_ses-01_task-ml_proj-bip_2020-11-10-10-27-07.056097
179	5	1	4	180	volatile	6	20	20	vs	blue	red	blue	red	left	right	0.30000000000000004	0.7	6	4	1.8000000000000005	2.8	0	1	0.30000000000000004	0.7	6	4	1.8000000000000005	2.8	valid	0.8664413309998054	53248	0	1	2	53248	1	53248	1	51200	0	0.7	53248	red	blue	0	4	ml	2.7.3	bip	sub-05_ses-01_task-ml_proj-bip_2020-11-10-10-27-07.056097
180	5	1	4	181	volatile	7	20	1	vs	red	blue	blue	red	right	left	0.7	0.30000000000000004	4	2	2.8	0.6000000000000001	1	0	0.30000000000000004	0.7	2	4	0.6000000000000001	2.8	valid	1.1496816879989638	51200	0	0	2	53248	0	53248	0	53248	0	0.7	53248	blue	red	1	0	ml	2.7.3	bip	sub-05_ses-01_task-ml_proj-bip_2020-11-10-10-27-07.056097
181	5	1	4	182	volatile	7	20	2	vs	blue	red	blue	red	left	right	0.7	0.30000000000000004	2	10	1.4	3.0000000000000004	0	1	0.7	0.30000000000000004	2	10	1.4	3.0000000000000004	invalid	0.5831965489996946	53248	0	1	2	53248	1	51200	0	53248	1	0.7	51200	blue	red	0	10	ml	2.7.3	bip	sub-05_ses-01_task-ml_proj-bip_2020-11-10-10-27-07.056097
182	5	1	4	183	volatile	7	20	3	vs	blue	red	blue	red	left	right	0.7	0.30000000000000004	2	6	1.4	1.8000000000000005	0	1	0.7	0.30000000000000004	2	6	1.4	1.8000000000000005	invalid	0.5832191779991263	53248	0	1	2	53248	1	51200	0	53248	1	0.7	51200	blue	red	0	6	ml	2.7.3	bip	sub-05_ses-01_task-ml_proj-bip_2020-11-10-10-27-07.056097
183	5	1	4	184	volatile	7	20	4	vs	red	blue	blue	red	right	left	0.7	0.30000000000000004	2	4	1.4	1.2000000000000002	1	0	0.30000000000000004	0.7	4	2	1.2000000000000002	1.4	valid	0.5665200590010501	51200	0	0	2	53248	0	53248	0	51200	1	0.7	53248	blue	red	0	0	ml	2.7.3	bip	sub-05_ses-01_task-ml_proj-bip_2020-11-10-10-27-07.056097
184	5	1	4	185	volatile	7	20	5	vs	blue	red	blue	red	left	right	0.7	0.30000000000000004	6	4	4.199999999999998	1.2000000000000002	1	0	0.7	0.30000000000000004	6	4	4.199999999999998	1.2000000000000002	valid	0.7164971189995413	53248	0	1	2	51200	0	51200	0	51200	0	0.7	51200	blue	red	1	0	ml	2.7.3	bip	sub-05_ses-01_task-ml_proj-bip_2020-11-10-10-27-07.056097
185	5	1	4	186	volatile	7	20	6	vs	blue	red	blue	red	left	right	0.7	0.30000000000000004	2	2	1.4	0.6000000000000001	1	0	0.7	0.30000000000000004	2	2	1.4	0.6000000000000001	valid	0.7831365579986596	53248	0	1	2	51200	0	51200	0	53248	1	0.7	51200	blue	red	1	0	ml	2.7.3	bip	sub-05_ses-01_task-ml_proj-bip_2020-11-10-10-27-07.056097
186	5	1	4	187	volatile	7	20	7	vs	red	blue	blue	red	right	left	0.7	0.30000000000000004	4	2	2.8	0.6000000000000001	1	0	0.30000000000000004	0.7	2	4	0.6000000000000001	2.8	valid	0.5832007699991664	53248	0	1	1	53248	1	53248	1	53248	1	0.7	53248	blue	red	1	4	ml	2.7.3	bip	sub-05_ses-01_task-ml_proj-bip_2020-11-10-10-27-07.056097
187	5	1	4	188	volatile	7	20	8	vs	red	blue	blue	red	right	left	0.7	0.30000000000000004	2	10	1.4	3.0000000000000004	0	1	0.30000000000000004	0.7	10	2	3.0000000000000004	1.4	invalid	0.8497748449990468	51200	0	0	2	51200	1	53248	0	51200	1	0.7	53248	blue	red	0	10	ml	2.7.3	bip	sub-05_ses-01_task-ml_proj-bip_2020-11-10-10-27-07.056097
188	5	1	4	189	volatile	7	20	9	vs	blue	red	blue	red	left	right	0.7	0.30000000000000004	4	2	2.8	0.6000000000000001	0	1	0.7	0.30000000000000004	4	2	2.8	0.6000000000000001	invalid	0.7498043349987711	51200	0	0	1	51200	1	51200	1	51200	1	0.7	51200	blue	red	1	0	ml	2.7.3	bip	sub-05_ses-01_task-ml_proj-bip_2020-11-10-10-27-07.056097
189	5	1	4	190	volatile	7	20	10	vs	blue	red	blue	red	left	right	0.7	0.30000000000000004	2	10	1.4	3.0000000000000004	1	0	0.7	0.30000000000000004	2	10	1.4	3.0000000000000004	valid	0.9830770919998032	53248	0	1	2	53248	1	51200	0	53248	1	0.7	51200	blue	red	0	0	ml	2.7.3	bip	sub-05_ses-01_task-ml_proj-bip_2020-11-10-10-27-07.056097
190	5	1	4	191	volatile	7	20	11	vs	red	blue	blue	red	right	left	0.7	0.30000000000000004	6	6	4.199999999999998	1.8000000000000005	1	0	0.30000000000000004	0.7	6	6	1.8000000000000005	4.199999999999998	valid	0.6998281850010244	53248	0	1	1	53248	1	53248	1	53248	1	0.7	53248	blue	red	0	6	ml	2.7.3	bip	sub-05_ses-01_task-ml_proj-bip_2020-11-10-10-27-07.056097
191	5	1	4	192	volatile	7	20	12	vs	red	blue	blue	red	right	left	0.7	0.30000000000000004	6	2	4.199999999999998	0.6000000000000001	1	0	0.30000000000000004	0.7	2	6	0.6000000000000001	4.199999999999998	valid	0.5331930949996604	53248	0	1	1	53248	1	53248	1	53248	1	0.7	53248	blue	red	1	6	ml	2.7.3	bip	sub-05_ses-01_task-ml_proj-bip_2020-11-10-10-27-07.056097
192	5	1	4	193	volatile	7	20	13	vs	blue	red	blue	red	left	right	0.7	0.30000000000000004	4	6	2.8	1.8000000000000005	1	0	0.7	0.30000000000000004	4	6	2.8	1.8000000000000005	valid	0.9830728229990201	51200	0	0	1	51200	1	51200	1	53248	0	0.7	51200	blue	red	0	4	ml	2.7.3	bip	sub-05_ses-01_task-ml_proj-bip_2020-11-10-10-27-07.056097
193	5	1	4	194	volatile	7	20	14	vs	blue	red	blue	red	left	right	0.7	0.30000000000000004	6	2	4.199999999999998	0.6000000000000001	1	0	0.7	0.30000000000000004	6	2	4.199999999999998	0.6000000000000001	valid	0.5831893969989324	51200	0	0	1	51200	1	51200	1	51200	1	0.7	51200	blue	red	1	6	ml	2.7.3	bip	sub-05_ses-01_task-ml_proj-bip_2020-11-10-10-27-07.056097
194	5	1	4	195	volatile	7	20	15	vs	blue	red	blue	red	left	right	0.7	0.30000000000000004	6	6	4.199999999999998	1.8000000000000005	1	0	0.7	0.30000000000000004	6	6	4.199999999999998	1.8000000000000005	valid	0.7331421810013126	51200	0	0	1	51200	1	51200	1	53248	0	0.7	51200	blue	red	1	6	ml	2.7.3	bip	sub-05_ses-01_task-ml_proj-bip_2020-11-10-10-27-07.056097
195	5	1	4	196	volatile	7	20	16	vs	red	blue	blue	red	right	left	0.7	0.30000000000000004	2	10	1.4	3.0000000000000004	0	1	0.30000000000000004	0.7	10	2	3.0000000000000004	1.4	invalid	0.6664939180009242	51200	0	0	2	51200	1	53248	0	51200	1	0.7	53248	blue	red	0	10	ml	2.7.3	bip	sub-05_ses-01_task-ml_proj-bip_2020-11-10-10-27-07.056097
196	5	1	4	197	volatile	7	20	17	vs	red	blue	blue	red	right	left	0.7	0.30000000000000004	6	4	4.199999999999998	1.2000000000000002	1	0	0.30000000000000004	0.7	4	6	1.2000000000000002	4.199999999999998	valid	0.8997676830003911	53248	0	1	1	53248	1	53248	1	53248	1	0.7	53248	blue	red	1	6	ml	2.7.3	bip	sub-05_ses-01_task-ml_proj-bip_2020-11-10-10-27-07.056097
197	5	1	4	198	volatile	7	20	18	vs	red	blue	blue	red	right	left	0.7	0.30000000000000004	4	6	2.8	1.8000000000000005	0	1	0.30000000000000004	0.7	6	4	1.8000000000000005	2.8	invalid	1.083046554000248	53248	0	1	1	53248	1	53248	1	51200	0	0.7	53248	blue	red	0	0	ml	2.7.3	bip	sub-05_ses-01_task-ml_proj-bip_2020-11-10-10-27-07.056097
198	5	1	4	199	volatile	7	20	19	vs	red	blue	blue	red	right	left	0.7	0.30000000000000004	2	6	1.4	1.8000000000000005	1	0	0.30000000000000004	0.7	6	2	1.8000000000000005	1.4	valid	0.949750990999746	51200	0	0	2	51200	1	53248	0	51200	1	0.7	53248	blue	red	0	0	ml	2.7.3	bip	sub-05_ses-01_task-ml_proj-bip_2020-11-10-10-27-07.056097
199	5	1	4	200	volatile	7	20	20	vs	blue	red	blue	red	left	right	0.7	0.30000000000000004	2	2	1.4	0.6000000000000001	1	0	0.7	0.30000000000000004	2	2	1.4	0.6000000000000001	valid	0.9830690640010288	51200	0	0	1	51200	1	51200	1	53248	0	0.7	51200	blue	red	1	2	ml	2.7.3	bip	sub-05_ses-01_task-ml_proj-bip_2020-11-10-10-27-07.056097
200	5	1	5	201	stable	8	200	1	vs	blue	red	blue	red	left	right	0.30000000000000004	0.7	2	4	0.6000000000000001	2.8	1	0	0.30000000000000004	0.7	2	4	0.6000000000000001	2.8	invalid	0.9997421960015344	53248	0	1	2	53248	1	53248	1	53248	1	0.7	53248	red	blue	1	0	ml	2.7.3	bip	sub-05_ses-01_task-ml_proj-bip_2020-11-10-10-27-07.056097
201	5	1	5	202	stable	8	200	2	vs	blue	red	blue	red	left	right	0.30000000000000004	0.7	2	10	0.6000000000000001	7.0	0	1	0.30000000000000004	0.7	2	10	0.6000000000000001	7.0	valid	0.8164611259999219	53248	0	1	2	53248	1	53248	1	53248	1	0.7	53248	red	blue	1	10	ml	2.7.3	bip	sub-05_ses-01_task-ml_proj-bip_2020-11-10-10-27-07.056097
202	5	1	5	203	stable	8	200	3	vs	red	blue	blue	red	right	left	0.30000000000000004	0.7	6	6	1.8000000000000005	4.199999999999998	0	1	0.7	0.30000000000000004	6	6	4.199999999999998	1.8000000000000005	valid	0.5665233439995063	51200	0	0	2	51200	1	51200	1	53248	0	0.7	51200	red	blue	1	6	ml	2.7.3	bip	sub-05_ses-01_task-ml_proj-bip_2020-11-10-10-27-07.056097
203	5	1	5	204	stable	8	200	4	vs	blue	red	blue	red	left	right	0.30000000000000004	0.7	2	2	0.6000000000000001	1.4	1	0	0.30000000000000004	0.7	2	2	0.6000000000000001	1.4	invalid	0.8164592100001755	53248	0	1	2	53248	1	53248	1	53248	1	0.7	53248	red	blue	0	0	ml	2.7.3	bip	sub-05_ses-01_task-ml_proj-bip_2020-11-10-10-27-07.056097
204	5	1	5	205	stable	8	200	5	vs	blue	red	blue	red	left	right	0.30000000000000004	0.7	2	2	0.6000000000000001	1.4	0	1	0.30000000000000004	0.7	2	2	0.6000000000000001	1.4	valid	1.0497146819998306	51200	0	0	1	53248	0	53248	0	53248	0	0.7	53248	red	blue	0	0	ml	2.7.3	bip	sub-05_ses-01_task-ml_proj-bip_2020-11-10-10-27-07.056097
205	5	1	5	206	stable	8	200	6	vs	red	blue	blue	red	right	left	0.30000000000000004	0.7	2	4	0.6000000000000001	2.8	1	0	0.7	0.30000000000000004	4	2	2.8	0.6000000000000001	invalid	0.5998558150004101	51200	0	0	2	51200	1	51200	1	51200	1	0.7	51200	red	blue	1	0	ml	2.7.3	bip	sub-05_ses-01_task-ml_proj-bip_2020-11-10-10-27-07.056097
206	5	1	5	207	stable	8	200	7	vs	blue	red	blue	red	left	right	0.30000000000000004	0.7	6	4	1.8000000000000005	2.8	1	0	0.30000000000000004	0.7	6	4	1.8000000000000005	2.8	invalid	0.5831872859998839	51200	0	0	1	53248	0	53248	0	51200	1	0.7	53248	red	blue	0	6	ml	2.7.3	bip	sub-05_ses-01_task-ml_proj-bip_2020-11-10-10-27-07.056097
207	5	1	5	208	stable	8	200	8	vs	blue	red	blue	red	left	right	0.30000000000000004	0.7	6	4	1.8000000000000005	2.8	0	1	0.30000000000000004	0.7	6	4	1.8000000000000005	2.8	valid	0.5831860050002433	51200	0	0	1	53248	0	53248	0	51200	1	0.7	53248	red	blue	0	0	ml	2.7.3	bip	sub-05_ses-01_task-ml_proj-bip_2020-11-10-10-27-07.056097
208	5	1	5	209	stable	8	200	9	vs	red	blue	blue	red	right	left	0.30000000000000004	0.7	2	10	0.6000000000000001	7.0	0	1	0.7	0.30000000000000004	10	2	7.0	0.6000000000000001	valid	1.1330257879999408	51200	0	0	2	51200	1	51200	1	51200	1	0.7	51200	red	blue	1	10	ml	2.7.3	bip	sub-05_ses-01_task-ml_proj-bip_2020-11-10-10-27-07.056097
209	5	1	5	210	stable	8	200	10	vs	blue	red	blue	red	left	right	0.30000000000000004	0.7	2	2	0.6000000000000001	1.4	1	0	0.30000000000000004	0.7	2	2	0.6000000000000001	1.4	invalid	0.7998103159989114	53248	0	1	2	53248	1	53248	1	53248	1	0.7	53248	red	blue	0	0	ml	2.7.3	bip	sub-05_ses-01_task-ml_proj-bip_2020-11-10-10-27-07.056097
210	5	1	5	211	stable	8	200	11	vs	red	blue	blue	red	right	left	0.30000000000000004	0.7	10	2	3.0000000000000004	1.4	0	1	0.7	0.30000000000000004	2	10	1.4	3.0000000000000004	valid	0.8164698150012555	53248	0	1	1	53248	1	51200	0	53248	1	0.7	51200	red	blue	0	0	ml	2.7.3	bip	sub-05_ses-01_task-ml_proj-bip_2020-11-10-10-27-07.056097
211	5	1	5	212	stable	8	200	12	vs	blue	red	blue	red	left	right	0.30000000000000004	0.7	2	4	0.6000000000000001	2.8	0	1	0.30000000000000004	0.7	2	4	0.6000000000000001	2.8	valid	0.6331799460003822	53248	0	1	2	53248	1	53248	1	53248	1	0.7	53248	red	blue	1	4	ml	2.7.3	bip	sub-05_ses-01_task-ml_proj-bip_2020-11-10-10-27-07.056097
212	5	1	5	213	stable	8	200	13	vs	red	blue	blue	red	right	left	0.30000000000000004	0.7	6	6	1.8000000000000005	4.199999999999998	1	0	0.7	0.30000000000000004	6	6	4.199999999999998	1.8000000000000005	invalid	0.5331974460004858	51200	0	0	2	51200	1	51200	1	53248	0	0.7	51200	red	blue	1	0	ml	2.7.3	bip	sub-05_ses-01_task-ml_proj-bip_2020-11-10-10-27-07.056097
213	5	1	5	214	stable	8	200	14	vs	blue	red	blue	red	left	right	0.30000000000000004	0.7	2	4	0.6000000000000001	2.8	0	1	0.30000000000000004	0.7	2	4	0.6000000000000001	2.8	valid	0.699841870000455	53248	0	1	2	53248	1	53248	1	53248	1	0.7	53248	red	blue	1	4	ml	2.7.3	bip	sub-05_ses-01_task-ml_proj-bip_2020-11-10-10-27-07.056097
214	5	1	5	215	stable	8	200	15	vs	red	blue	blue	red	right	left	0.30000000000000004	0.7	6	2	1.8000000000000005	1.4	0	1	0.7	0.30000000000000004	2	6	1.4	1.8000000000000005	valid	0.9997389790005401	53248	0	1	1	53248	1	51200	0	53248	1	0.7	51200	red	blue	0	0	ml	2.7.3	bip	sub-05_ses-01_task-ml_proj-bip_2020-11-10-10-27-07.056097
215	5	1	5	216	stable	8	200	16	vs	blue	red	blue	red	left	right	0.30000000000000004	0.7	6	6	1.8000000000000005	4.199999999999998	0	1	0.30000000000000004	0.7	6	6	1.8000000000000005	4.199999999999998	valid	2.8491872760005217	53248	0	1	2	53248	1	53248	1	53248	1	0.7	53248	red	blue	0	6	ml	2.7.3	bip	sub-05_ses-01_task-ml_proj-bip_2020-11-10-10-27-07.056097
216	5	1	5	217	stable	8	200	17	vs	red	blue	blue	red	right	left	0.30000000000000004	0.7	4	2	1.2000000000000002	1.4	0	1	0.7	0.30000000000000004	2	4	1.4	1.2000000000000002	valid	1.2163335829991408	53248	0	1	1	51200	0	51200	0	53248	1	0.7	51200	red	blue	0	0	ml	2.7.3	bip	sub-05_ses-01_task-ml_proj-bip_2020-11-10-10-27-07.056097
217	5	1	5	218	stable	8	200	18	vs	red	blue	blue	red	right	left	0.30000000000000004	0.7	4	6	1.2000000000000002	4.199999999999998	0	1	0.7	0.30000000000000004	6	4	4.199999999999998	1.2000000000000002	valid	0.5831900409993978	51200	0	0	2	51200	1	51200	1	51200	1	0.7	51200	red	blue	1	6	ml	2.7.3	bip	sub-05_ses-01_task-ml_proj-bip_2020-11-10-10-27-07.056097
218	5	1	5	219	stable	8	200	19	vs	blue	red	blue	red	left	right	0.30000000000000004	0.7	2	10	0.6000000000000001	7.0	0	1	0.30000000000000004	0.7	2	10	0.6000000000000001	7.0	valid	0.4998894700001984	53248	0	1	2	53248	1	53248	1	53248	1	0.7	53248	red	blue	1	10	ml	2.7.3	bip	sub-05_ses-01_task-ml_proj-bip_2020-11-10-10-27-07.056097
219	5	1	5	220	stable	8	200	20	vs	red	blue	blue	red	right	left	0.30000000000000004	0.7	2	10	0.6000000000000001	7.0	0	1	0.7	0.30000000000000004	10	2	7.0	0.6000000000000001	valid	0.5165412529986497	51200	0	0	2	51200	1	51200	1	51200	1	0.7	51200	red	blue	1	10	ml	2.7.3	bip	sub-05_ses-01_task-ml_proj-bip_2020-11-10-10-27-07.056097
220	5	1	5	221	stable	8	200	21	vs	blue	red	blue	red	left	right	0.30000000000000004	0.7	4	6	1.2000000000000002	4.199999999999998	1	0	0.30000000000000004	0.7	4	6	1.2000000000000002	4.199999999999998	invalid	0.7664729859989166	53248	0	1	2	53248	1	53248	1	53248	1	0.7	53248	red	blue	1	0	ml	2.7.3	bip	sub-05_ses-01_task-ml_proj-bip_2020-11-10-10-27-07.056097
221	5	1	5	222	stable	8	200	22	vs	blue	red	blue	red	left	right	0.30000000000000004	0.7	6	4	1.8000000000000005	2.8	1	0	0.30000000000000004	0.7	6	4	1.8000000000000005	2.8	invalid	0.9664160390002507	53248	0	1	2	53248	1	53248	1	51200	0	0.7	53248	red	blue	0	0	ml	2.7.3	bip	sub-05_ses-01_task-ml_proj-bip_2020-11-10-10-27-07.056097
222	5	1	5	223	stable	8	200	23	vs	red	blue	blue	red	right	left	0.30000000000000004	0.7	2	4	0.6000000000000001	2.8	0	1	0.7	0.30000000000000004	4	2	2.8	0.6000000000000001	valid	0.6165102319992002	51200	0	0	2	51200	1	51200	1	51200	1	0.7	51200	red	blue	1	4	ml	2.7.3	bip	sub-05_ses-01_task-ml_proj-bip_2020-11-10-10-27-07.056097
223	5	1	5	224	stable	8	200	24	vs	red	blue	blue	red	right	left	0.30000000000000004	0.7	6	2	1.8000000000000005	1.4	1	0	0.7	0.30000000000000004	2	6	1.4	1.8000000000000005	invalid	0.849791673999789	53248	0	1	1	53248	1	51200	0	53248	1	0.7	51200	red	blue	0	6	ml	2.7.3	bip	sub-05_ses-01_task-ml_proj-bip_2020-11-10-10-27-07.056097
224	5	1	5	225	stable	8	200	25	vs	blue	red	blue	red	left	right	0.30000000000000004	0.7	10	2	3.0000000000000004	1.4	0	1	0.30000000000000004	0.7	10	2	3.0000000000000004	1.4	valid	0.6331785980000859	51200	0	0	1	51200	1	53248	0	51200	1	0.7	53248	red	blue	0	0	ml	2.7.3	bip	sub-05_ses-01_task-ml_proj-bip_2020-11-10-10-27-07.056097
225	5	1	5	226	stable	8	200	26	vs	blue	red	blue	red	left	right	0.30000000000000004	0.7	2	6	0.6000000000000001	4.199999999999998	1	0	0.30000000000000004	0.7	2	6	0.6000000000000001	4.199999999999998	invalid	0.7498164540011203	53248	0	1	2	53248	1	53248	1	53248	1	0.7	53248	red	blue	1	0	ml	2.7.3	bip	sub-05_ses-01_task-ml_proj-bip_2020-11-10-10-27-07.056097
226	5	1	5	227	stable	8	200	27	vs	blue	red	blue	red	left	right	0.30000000000000004	0.7	10	2	3.0000000000000004	1.4	0	1	0.30000000000000004	0.7	10	2	3.0000000000000004	1.4	valid	0.7331444049996207	51200	0	0	1	51200	1	53248	0	51200	1	0.7	53248	red	blue	0	0	ml	2.7.3	bip	sub-05_ses-01_task-ml_proj-bip_2020-11-10-10-27-07.056097
227	5	1	5	228	stable	8	200	28	vs	blue	red	blue	red	left	right	0.30000000000000004	0.7	4	2	1.2000000000000002	1.4	0	1	0.30000000000000004	0.7	4	2	1.2000000000000002	1.4	valid	2.282688204999431	51200	0	0	1	53248	0	53248	0	51200	1	0.7	53248	red	blue	0	0	ml	2.7.3	bip	sub-05_ses-01_task-ml_proj-bip_2020-11-10-10-27-07.056097
228	5	1	5	229	stable	8	200	29	vs	red	blue	blue	red	right	left	0.30000000000000004	0.7	2	4	0.6000000000000001	2.8	0	1	0.7	0.30000000000000004	4	2	2.8	0.6000000000000001	valid	0.5165396210013569	51200	0	0	2	51200	1	51200	1	51200	1	0.7	51200	red	blue	1	4	ml	2.7.3	bip	sub-05_ses-01_task-ml_proj-bip_2020-11-10-10-27-07.056097
229	5	1	5	230	stable	8	200	30	vs	red	blue	blue	red	right	left	0.30000000000000004	0.7	2	2	0.6000000000000001	1.4	1	0	0.7	0.30000000000000004	2	2	1.4	0.6000000000000001	invalid	0.7664684459996352	51200	0	0	2	51200	1	51200	1	53248	0	0.7	51200	red	blue	1	0	ml	2.7.3	bip	sub-05_ses-01_task-ml_proj-bip_2020-11-10-10-27-07.056097
230	5	1	5	231	stable	8	200	31	vs	blue	red	blue	red	left	right	0.30000000000000004	0.7	4	2	1.2000000000000002	1.4	0	1	0.30000000000000004	0.7	4	2	1.2000000000000002	1.4	valid	1.2996520619999499	53248	0	1	2	53248	1	53248	1	51200	0	0.7	53248	red	blue	0	2	ml	2.7.3	bip	sub-05_ses-01_task-ml_proj-bip_2020-11-10-10-27-07.056097
231	5	1	5	232	stable	8	200	32	vs	red	blue	blue	red	right	left	0.30000000000000004	0.7	2	2	0.6000000000000001	1.4	0	1	0.7	0.30000000000000004	2	2	1.4	0.6000000000000001	valid	0.6498350099991512	51200	0	0	2	51200	1	51200	1	53248	0	0.7	51200	red	blue	1	2	ml	2.7.3	bip	sub-05_ses-01_task-ml_proj-bip_2020-11-10-10-27-07.056097
232	5	1	5	233	stable	8	200	33	vs	blue	red	blue	red	left	right	0.30000000000000004	0.7	6	6	1.8000000000000005	4.199999999999998	0	1	0.30000000000000004	0.7	6	6	1.8000000000000005	4.199999999999998	valid	0.6665168729996367	53248	0	1	2	53248	1	53248	1	53248	1	0.7	53248	red	blue	0	6	ml	2.7.3	bip	sub-05_ses-01_task-ml_proj-bip_2020-11-10-10-27-07.056097
233	5	1	5	234	stable	8	200	34	vs	red	blue	blue	red	right	left	0.30000000000000004	0.7	2	4	0.6000000000000001	2.8	0	1	0.7	0.30000000000000004	4	2	2.8	0.6000000000000001	valid	0.5665446490002068	51200	0	0	2	51200	1	51200	1	51200	1	0.7	51200	red	blue	1	4	ml	2.7.3	bip	sub-05_ses-01_task-ml_proj-bip_2020-11-10-10-27-07.056097
234	5	1	5	235	stable	8	200	35	vs	blue	red	blue	red	left	right	0.30000000000000004	0.7	10	2	3.0000000000000004	1.4	0	1	0.30000000000000004	0.7	10	2	3.0000000000000004	1.4	valid	0.7664639460017497	51200	0	0	1	51200	1	53248	0	51200	1	0.7	53248	red	blue	0	0	ml	2.7.3	bip	sub-05_ses-01_task-ml_proj-bip_2020-11-10-10-27-07.056097
235	5	1	5	236	stable	8	200	36	vs	red	blue	blue	red	right	left	0.30000000000000004	0.7	6	4	1.8000000000000005	2.8	1	0	0.7	0.30000000000000004	4	6	2.8	1.8000000000000005	invalid	0.8497680170003149	51200	0	0	2	51200	1	51200	1	53248	0	0.7	51200	red	blue	0	0	ml	2.7.3	bip	sub-05_ses-01_task-ml_proj-bip_2020-11-10-10-27-07.056097
236	5	1	5	237	stable	8	200	37	vs	red	blue	blue	red	right	left	0.30000000000000004	0.7	10	2	3.0000000000000004	1.4	0	1	0.7	0.30000000000000004	2	10	1.4	3.0000000000000004	valid	0.6165200609993917	53248	0	1	1	53248	1	51200	0	53248	1	0.7	51200	red	blue	0	0	ml	2.7.3	bip	sub-05_ses-01_task-ml_proj-bip_2020-11-10-10-27-07.056097
237	5	1	5	238	stable	8	200	38	vs	red	blue	blue	red	right	left	0.30000000000000004	0.7	2	2	0.6000000000000001	1.4	0	1	0.7	0.30000000000000004	2	2	1.4	0.6000000000000001	valid	1.9161241449983208	51200	0	0	2	51200	1	51200	1	53248	0	0.7	51200	red	blue	1	2	ml	2.7.3	bip	sub-05_ses-01_task-ml_proj-bip_2020-11-10-10-27-07.056097
238	5	1	5	239	stable	8	200	39	vs	red	blue	blue	red	right	left	0.30000000000000004	0.7	6	2	1.8000000000000005	1.4	0	1	0.7	0.30000000000000004	2	6	1.4	1.8000000000000005	valid	1.2329979670012108	53248	0	1	1	53248	1	51200	0	53248	1	0.7	51200	red	blue	0	0	ml	2.7.3	bip	sub-05_ses-01_task-ml_proj-bip_2020-11-10-10-27-07.056097
239	5	1	5	240	stable	8	200	40	vs	blue	red	blue	red	left	right	0.30000000000000004	0.7	2	6	0.6000000000000001	4.199999999999998	1	0	0.30000000000000004	0.7	2	6	0.6000000000000001	4.199999999999998	invalid	0.5831958070011751	53248	0	1	2	53248	1	53248	1	53248	1	0.7	53248	red	blue	1	0	ml	2.7.3	bip	sub-05_ses-01_task-ml_proj-bip_2020-11-10-10-27-07.056097
240	5	1	5	241	stable	8	200	41	vs	blue	red	blue	red	left	right	0.30000000000000004	0.7	2	4	0.6000000000000001	2.8	0	1	0.30000000000000004	0.7	2	4	0.6000000000000001	2.8	valid	0.5332134290001704	53248	0	1	2	53248	1	53248	1	53248	1	0.7	53248	red	blue	1	4	ml	2.7.3	bip	sub-05_ses-01_task-ml_proj-bip_2020-11-10-10-27-07.056097
241	5	1	5	242	stable	8	200	42	vs	red	blue	blue	red	right	left	0.30000000000000004	0.7	2	10	0.6000000000000001	7.0	0	1	0.7	0.30000000000000004	10	2	7.0	0.6000000000000001	valid	0.5498636039992562	51200	0	0	2	51200	1	51200	1	51200	1	0.7	51200	red	blue	1	10	ml	2.7.3	bip	sub-05_ses-01_task-ml_proj-bip_2020-11-10-10-27-07.056097
242	5	1	5	243	stable	8	200	43	vs	blue	red	blue	red	left	right	0.30000000000000004	0.7	10	2	3.0000000000000004	1.4	0	1	0.30000000000000004	0.7	10	2	3.0000000000000004	1.4	valid	0.7664705719998892	51200	0	0	1	51200	1	53248	0	51200	1	0.7	53248	red	blue	0	0	ml	2.7.3	bip	sub-05_ses-01_task-ml_proj-bip_2020-11-10-10-27-07.056097
243	5	1	5	244	stable	8	200	44	vs	blue	red	blue	red	left	right	0.30000000000000004	0.7	2	6	0.6000000000000001	4.199999999999998	0	1	0.30000000000000004	0.7	2	6	0.6000000000000001	4.199999999999998	valid	0.5332055279995984	53248	0	1	2	53248	1	53248	1	53248	1	0.7	53248	red	blue	1	6	ml	2.7.3	bip	sub-05_ses-01_task-ml_proj-bip_2020-11-10-10-27-07.056097
244	5	1	5	245	stable	8	200	45	vs	blue	red	blue	red	left	right	0.30000000000000004	0.7	2	4	0.6000000000000001	2.8	0	1	0.30000000000000004	0.7	2	4	0.6000000000000001	2.8	valid	0.5498686459995952	53248	0	1	2	53248	1	53248	1	53248	1	0.7	53248	red	blue	1	4	ml	2.7.3	bip	sub-05_ses-01_task-ml_proj-bip_2020-11-10-10-27-07.056097
245	5	1	5	246	stable	8	200	46	vs	blue	red	blue	red	left	right	0.30000000000000004	0.7	10	2	3.0000000000000004	1.4	1	0	0.30000000000000004	0.7	10	2	3.0000000000000004	1.4	invalid	0.9830806059999304	51200	0	0	1	51200	1	53248	0	51200	1	0.7	53248	red	blue	0	10	ml	2.7.3	bip	sub-05_ses-01_task-ml_proj-bip_2020-11-10-10-27-07.056097
246	5	1	5	247	stable	8	200	47	vs	red	blue	blue	red	right	left	0.30000000000000004	0.7	2	4	0.6000000000000001	2.8	0	1	0.7	0.30000000000000004	4	2	2.8	0.6000000000000001	valid	0.6998160200000711	51200	0	0	2	51200	1	51200	1	51200	1	0.7	51200	red	blue	1	4	ml	2.7.3	bip	sub-05_ses-01_task-ml_proj-bip_2020-11-10-10-27-07.056097
247	5	1	5	248	stable	8	200	48	vs	red	blue	blue	red	right	left	0.30000000000000004	0.7	4	6	1.2000000000000002	4.199999999999998	0	1	0.7	0.30000000000000004	6	4	4.199999999999998	1.2000000000000002	valid	0.5665253860006487	51200	0	0	2	51200	1	51200	1	51200	1	0.7	51200	red	blue	1	6	ml	2.7.3	bip	sub-05_ses-01_task-ml_proj-bip_2020-11-10-10-27-07.056097
248	5	1	5	249	stable	8	200	49	vs	red	blue	blue	red	right	left	0.30000000000000004	0.7	2	4	0.6000000000000001	2.8	0	1	0.7	0.30000000000000004	4	2	2.8	0.6000000000000001	valid	0.6664944679996552	51200	0	0	2	51200	1	51200	1	51200	1	0.7	51200	red	blue	1	4	ml	2.7.3	bip	sub-05_ses-01_task-ml_proj-bip_2020-11-10-10-27-07.056097
249	5	1	5	250	stable	8	200	50	vs	blue	red	blue	red	left	right	0.30000000000000004	0.7	2	4	0.6000000000000001	2.8	1	0	0.30000000000000004	0.7	2	4	0.6000000000000001	2.8	invalid	0.6165242779989057	53248	0	1	2	53248	1	53248	1	53248	1	0.7	53248	red	blue	1	0	ml	2.7.3	bip	sub-05_ses-01_task-ml_proj-bip_2020-11-10-10-27-07.056097
250	5	1	6	251	stable	8	200	51	vs	blue	red	blue	red	left	right	0.30000000000000004	0.7	4	6	1.2000000000000002	4.199999999999998	1	0	0.30000000000000004	0.7	4	6	1.2000000000000002	4.199999999999998	invalid	0.8164575410010002	53248	0	1	2	53248	1	53248	1	53248	1	0.7	53248	red	blue	1	0	ml	2.7.3	bip	sub-05_ses-01_task-ml_proj-bip_2020-11-10-10-27-07.056097
251	5	1	6	252	stable	8	200	52	vs	blue	red	blue	red	left	right	0.30000000000000004	0.7	6	6	1.8000000000000005	4.199999999999998	1	0	0.30000000000000004	0.7	6	6	1.8000000000000005	4.199999999999998	invalid	0.5331988929992804	51200	0	0	1	53248	0	53248	0	53248	0	0.7	53248	red	blue	0	6	ml	2.7.3	bip	sub-05_ses-01_task-ml_proj-bip_2020-11-10-10-27-07.056097
252	5	1	6	253	stable	8	200	53	vs	red	blue	blue	red	right	left	0.30000000000000004	0.7	6	2	1.8000000000000005	1.4	1	0	0.7	0.30000000000000004	2	6	1.4	1.8000000000000005	invalid	0.5665363269999943	53248	0	1	1	53248	1	51200	0	53248	1	0.7	51200	red	blue	0	6	ml	2.7.3	bip	sub-05_ses-01_task-ml_proj-bip_2020-11-10-10-27-07.056097
253	5	1	6	254	stable	8	200	54	vs	red	blue	blue	red	right	left	0.30000000000000004	0.7	2	10	0.6000000000000001	7.0	1	0	0.7	0.30000000000000004	10	2	7.0	0.6000000000000001	invalid	0.7331496819988388	51200	0	0	2	51200	1	51200	1	51200	1	0.7	51200	red	blue	1	0	ml	2.7.3	bip	sub-05_ses-01_task-ml_proj-bip_2020-11-10-10-27-07.056097
254	5	1	6	255	stable	8	200	55	vs	red	blue	blue	red	right	left	0.30000000000000004	0.7	6	2	1.8000000000000005	1.4	0	1	0.7	0.30000000000000004	2	6	1.4	1.8000000000000005	valid	0.499887576999754	53248	0	1	1	53248	1	51200	0	53248	1	0.7	51200	red	blue	0	0	ml	2.7.3	bip	sub-05_ses-01_task-ml_proj-bip_2020-11-10-10-27-07.056097
255	5	1	6	256	stable	8	200	56	vs	red	blue	blue	red	right	left	0.30000000000000004	0.7	4	6	1.2000000000000002	4.199999999999998	1	0	0.7	0.30000000000000004	6	4	4.199999999999998	1.2000000000000002	invalid	0.7331463919999806	53248	0	1	1	51200	0	51200	0	51200	0	0.7	51200	red	blue	1	4	ml	2.7.3	bip	sub-05_ses-01_task-ml_proj-bip_2020-11-10-10-27-07.056097
256	5	1	6	257	stable	8	200	57	vs	blue	red	blue	red	left	right	0.30000000000000004	0.7	6	6	1.8000000000000005	4.199999999999998	0	1	0.30000000000000004	0.7	6	6	1.8000000000000005	4.199999999999998	valid	0.7664649150010518	51200	0	0	1	53248	0	53248	0	53248	0	0.7	53248	red	blue	0	0	ml	2.7.3	bip	sub-05_ses-01_task-ml_proj-bip_2020-11-10-10-27-07.056097
257	5	1	6	258	stable	8	200	58	vs	red	blue	blue	red	right	left	0.30000000000000004	0.7	6	4	1.8000000000000005	2.8	0	1	0.7	0.30000000000000004	4	6	2.8	1.8000000000000005	valid	0.5165434770005959	53248	0	1	1	51200	0	51200	0	53248	1	0.7	51200	red	blue	0	0	ml	2.7.3	bip	sub-05_ses-01_task-ml_proj-bip_2020-11-10-10-27-07.056097
258	5	1	6	259	stable	8	200	59	vs	red	blue	blue	red	right	left	0.30000000000000004	0.7	6	6	1.8000000000000005	4.199999999999998	0	1	0.7	0.30000000000000004	6	6	4.199999999999998	1.8000000000000005	valid	0.5998489889989287	51200	0	0	2	51200	1	51200	1	53248	0	0.7	51200	red	blue	1	6	ml	2.7.3	bip	sub-05_ses-01_task-ml_proj-bip_2020-11-10-10-27-07.056097
259	5	1	6	260	stable	8	200	60	vs	blue	red	blue	red	left	right	0.30000000000000004	0.7	2	10	0.6000000000000001	7.0	0	1	0.30000000000000004	0.7	2	10	0.6000000000000001	7.0	valid	0.4665655280005012	53248	0	1	2	53248	1	53248	1	53248	1	0.7	53248	red	blue	1	10	ml	2.7.3	bip	sub-05_ses-01_task-ml_proj-bip_2020-11-10-10-27-07.056097
260	5	1	6	261	stable	8	200	61	vs	red	blue	blue	red	right	left	0.30000000000000004	0.7	2	6	0.6000000000000001	4.199999999999998	1	0	0.7	0.30000000000000004	6	2	4.199999999999998	0.6000000000000001	invalid	0.9164202450010634	51200	0	0	2	51200	1	51200	1	51200	1	0.7	51200	red	blue	1	0	ml	2.7.3	bip	sub-05_ses-01_task-ml_proj-bip_2020-11-10-10-27-07.056097
261	5	1	6	262	stable	8	200	62	vs	blue	red	blue	red	left	right	0.30000000000000004	0.7	6	4	1.8000000000000005	2.8	0	1	0.30000000000000004	0.7	6	4	1.8000000000000005	2.8	valid	0.9164322739998171	53248	0	1	2	53248	1	53248	1	51200	0	0.7	53248	red	blue	0	4	ml	2.7.3	bip	sub-05_ses-01_task-ml_proj-bip_2020-11-10-10-27-07.056097
262	5	1	6	263	stable	8	200	63	vs	blue	red	blue	red	left	right	0.30000000000000004	0.7	6	2	1.8000000000000005	1.4	0	1	0.30000000000000004	0.7	6	2	1.8000000000000005	1.4	valid	1.7661611090006772	51200	0	0	1	51200	1	53248	0	51200	1	0.7	53248	red	blue	0	0	ml	2.7.3	bip	sub-05_ses-01_task-ml_proj-bip_2020-11-10-10-27-07.056097
263	5	1	6	264	stable	8	200	64	vs	red	blue	blue	red	right	left	0.30000000000000004	0.7	2	6	0.6000000000000001	4.199999999999998	0	1	0.7	0.30000000000000004	6	2	4.199999999999998	0.6000000000000001	valid	0.7664701199992123	51200	0	0	2	51200	1	51200	1	51200	1	0.7	51200	red	blue	1	6	ml	2.7.3	bip	sub-05_ses-01_task-ml_proj-bip_2020-11-10-10-27-07.056097
264	5	1	6	265	stable	8	200	65	vs	blue	red	blue	red	left	right	0.30000000000000004	0.7	4	6	1.2000000000000002	4.199999999999998	1	0	0.30000000000000004	0.7	4	6	1.2000000000000002	4.199999999999998	invalid	0.5498743659991305	53248	0	1	2	53248	1	53248	1	53248	1	0.7	53248	red	blue	1	0	ml	2.7.3	bip	sub-05_ses-01_task-ml_proj-bip_2020-11-10-10-27-07.056097
265	5	1	6	266	stable	8	200	66	vs	blue	red	blue	red	left	right	0.30000000000000004	0.7	10	2	3.0000000000000004	1.4	0	1	0.30000000000000004	0.7	10	2	3.0000000000000004	1.4	valid	0.8830960420000338	51200	0	0	1	51200	1	53248	0	51200	1	0.7	53248	red	blue	0	0	ml	2.7.3	bip	sub-05_ses-01_task-ml_proj-bip_2020-11-10-10-27-07.056097
266	5	1	6	267	stable	8	200	67	vs	red	blue	blue	red	right	left	0.30000000000000004	0.7	2	4	0.6000000000000001	2.8	1	0	0.7	0.30000000000000004	4	2	2.8	0.6000000000000001	invalid	0.6498286800015194	51200	0	0	2	51200	1	51200	1	51200	1	0.7	51200	red	blue	1	0	ml	2.7.3	bip	sub-05_ses-01_task-ml_proj-bip_2020-11-10-10-27-07.056097
267	5	1	6	268	stable	8	200	68	vs	blue	red	blue	red	left	right	0.30000000000000004	0.7	2	6	0.6000000000000001	4.199999999999998	0	1	0.30000000000000004	0.7	2	6	0.6000000000000001	4.199999999999998	valid	0.466567211000438	53248	0	1	2	53248	1	53248	1	53248	1	0.7	53248	red	blue	1	6	ml	2.7.3	bip	sub-05_ses-01_task-ml_proj-bip_2020-11-10-10-27-07.056097
268	5	1	6	269	stable	8	200	69	vs	red	blue	blue	red	right	left	0.30000000000000004	0.7	2	2	0.6000000000000001	1.4	1	0	0.7	0.30000000000000004	2	2	1.4	0.6000000000000001	invalid	0.7164807970002585	51200	0	0	2	51200	1	51200	1	53248	0	0.7	51200	red	blue	1	0	ml	2.7.3	bip	sub-05_ses-01_task-ml_proj-bip_2020-11-10-10-27-07.056097
269	5	1	6	270	stable	8	200	70	vs	blue	red	blue	red	left	right	0.30000000000000004	0.7	2	4	0.6000000000000001	2.8	1	0	0.30000000000000004	0.7	2	4	0.6000000000000001	2.8	invalid	0.5165496689987776	53248	0	1	2	53248	1	53248	1	53248	1	0.7	53248	red	blue	1	0	ml	2.7.3	bip	sub-05_ses-01_task-ml_proj-bip_2020-11-10-10-27-07.056097
270	5	1	6	271	stable	8	200	71	vs	blue	red	blue	red	left	right	0.30000000000000004	0.7	2	6	0.6000000000000001	4.199999999999998	0	1	0.30000000000000004	0.7	2	6	0.6000000000000001	4.199999999999998	valid	2.299345468998581	53248	0	1	2	53248	1	53248	1	53248	1	0.7	53248	red	blue	1	6	ml	2.7.3	bip	sub-05_ses-01_task-ml_proj-bip_2020-11-10-10-27-07.056097
271	5	1	6	272	stable	8	200	72	vs	red	blue	blue	red	right	left	0.30000000000000004	0.7	6	4	1.8000000000000005	2.8	0	1	0.7	0.30000000000000004	4	6	2.8	1.8000000000000005	valid	0.9330939880001096	53248	0	1	1	51200	0	51200	0	53248	1	0.7	51200	red	blue	0	0	ml	2.7.3	bip	sub-05_ses-01_task-ml_proj-bip_2020-11-10-10-27-07.056097
272	5	1	6	273	stable	8	200	73	vs	blue	red	blue	red	left	right	0.30000000000000004	0.7	6	2	1.8000000000000005	1.4	1	0	0.30000000000000004	0.7	6	2	1.8000000000000005	1.4	invalid	1.5329040430005991	51200	0	0	1	51200	1	53248	0	51200	1	0.7	53248	red	blue	0	6	ml	2.7.3	bip	sub-05_ses-01_task-ml_proj-bip_2020-11-10-10-27-07.056097
273	5	1	6	274	stable	8	200	74	vs	blue	red	blue	red	left	right	0.30000000000000004	0.7	6	4	1.8000000000000005	2.8	0	1	0.30000000000000004	0.7	6	4	1.8000000000000005	2.8	valid	0.5498693119989184	51200	0	0	1	53248	0	53248	0	51200	1	0.7	53248	red	blue	0	0	ml	2.7.3	bip	sub-05_ses-01_task-ml_proj-bip_2020-11-10-10-27-07.056097
274	5	1	6	275	stable	8	200	75	vs	blue	red	blue	red	left	right	0.30000000000000004	0.7	6	4	1.8000000000000005	2.8	0	1	0.30000000000000004	0.7	6	4	1.8000000000000005	2.8	valid	0.6331704579988582	51200	0	0	1	53248	0	53248	0	51200	1	0.7	53248	red	blue	0	0	ml	2.7.3	bip	sub-05_ses-01_task-ml_proj-bip_2020-11-10-10-27-07.056097
275	5	1	6	276	stable	8	200	76	vs	red	blue	blue	red	right	left	0.30000000000000004	0.7	2	10	0.6000000000000001	7.0	1	0	0.7	0.30000000000000004	10	2	7.0	0.6000000000000001	invalid	0.7497989450002933	51200	0	0	2	51200	1	51200	1	51200	1	0.7	51200	red	blue	1	0	ml	2.7.3	bip	sub-05_ses-01_task-ml_proj-bip_2020-11-10-10-27-07.056097
276	5	1	6	277	stable	8	200	77	vs	blue	red	blue	red	left	right	0.30000000000000004	0.7	10	2	3.0000000000000004	1.4	0	1	0.30000000000000004	0.7	10	2	3.0000000000000004	1.4	valid	0.7164821219994337	51200	0	0	1	51200	1	53248	0	51200	1	0.7	53248	red	blue	0	0	ml	2.7.3	bip	sub-05_ses-01_task-ml_proj-bip_2020-11-10-10-27-07.056097
277	5	1	6	278	stable	8	200	78	vs	blue	red	blue	red	left	right	0.30000000000000004	0.7	2	4	0.6000000000000001	2.8	0	1	0.30000000000000004	0.7	2	4	0.6000000000000001	2.8	valid	1.1163734500005376	53248	0	1	2	53248	1	53248	1	53248	1	0.7	53248	red	blue	1	4	ml	2.7.3	bip	sub-05_ses-01_task-ml_proj-bip_2020-11-10-10-27-07.056097
278	5	1	6	279	stable	8	200	79	vs	red	blue	blue	red	right	left	0.30000000000000004	0.7	10	2	3.0000000000000004	1.4	0	1	0.7	0.30000000000000004	2	10	1.4	3.0000000000000004	valid	0.6665045539994026	53248	0	1	1	53248	1	51200	0	53248	1	0.7	51200	red	blue	0	0	ml	2.7.3	bip	sub-05_ses-01_task-ml_proj-bip_2020-11-10-10-27-07.056097
279	5	1	6	280	stable	8	200	80	vs	blue	red	blue	red	left	right	0.30000000000000004	0.7	6	2	1.8000000000000005	1.4	0	1	0.30000000000000004	0.7	6	2	1.8000000000000005	1.4	valid	1.183010856000692	53248	0	1	2	51200	0	53248	1	51200	0	0.7	53248	red	blue	0	2	ml	2.7.3	bip	sub-05_ses-01_task-ml_proj-bip_2020-11-10-10-27-07.056097
280	5	1	6	281	stable	8	200	81	vs	blue	red	blue	red	left	right	0.30000000000000004	0.7	4	6	1.2000000000000002	4.199999999999998	0	1	0.30000000000000004	0.7	4	6	1.2000000000000002	4.199999999999998	valid	0.8164647489993513	53248	0	1	2	53248	1	53248	1	53248	1	0.7	53248	red	blue	1	6	ml	2.7.3	bip	sub-05_ses-01_task-ml_proj-bip_2020-11-10-10-27-07.056097
281	5	1	6	282	stable	8	200	82	vs	blue	red	blue	red	left	right	0.30000000000000004	0.7	2	4	0.6000000000000001	2.8	0	1	0.30000000000000004	0.7	2	4	0.6000000000000001	2.8	valid	0.7498201300004439	53248	0	1	2	53248	1	53248	1	53248	1	0.7	53248	red	blue	1	4	ml	2.7.3	bip	sub-05_ses-01_task-ml_proj-bip_2020-11-10-10-27-07.056097
282	5	1	6	283	stable	8	200	83	vs	blue	red	blue	red	left	right	0.30000000000000004	0.7	2	4	0.6000000000000001	2.8	0	1	0.30000000000000004	0.7	2	4	0.6000000000000001	2.8	valid	0.666504292999889	53248	0	1	2	53248	1	53248	1	53248	1	0.7	53248	red	blue	1	4	ml	2.7.3	bip	sub-05_ses-01_task-ml_proj-bip_2020-11-10-10-27-07.056097
283	5	1	6	284	stable	8	200	84	vs	blue	red	blue	red	left	right	0.30000000000000004	0.7	2	10	0.6000000000000001	7.0	1	0	0.30000000000000004	0.7	2	10	0.6000000000000001	7.0	invalid	0.5165520770005969	53248	0	1	2	53248	1	53248	1	53248	1	0.7	53248	red	blue	1	0	ml	2.7.3	bip	sub-05_ses-01_task-ml_proj-bip_2020-11-10-10-27-07.056097
284	5	1	6	285	stable	8	200	85	vs	blue	red	blue	red	left	right	0.30000000000000004	0.7	2	4	0.6000000000000001	2.8	0	1	0.30000000000000004	0.7	2	4	0.6000000000000001	2.8	valid	0.6165241840008093	53248	0	1	2	53248	1	53248	1	53248	1	0.7	53248	red	blue	1	4	ml	2.7.3	bip	sub-05_ses-01_task-ml_proj-bip_2020-11-10-10-27-07.056097
285	5	1	6	286	stable	8	200	86	vs	red	blue	blue	red	right	left	0.30000000000000004	0.7	10	2	3.0000000000000004	1.4	0	1	0.7	0.30000000000000004	2	10	1.4	3.0000000000000004	valid	0.7998025720007718	53248	0	1	1	53248	1	51200	0	53248	1	0.7	51200	red	blue	0	0	ml	2.7.3	bip	sub-05_ses-01_task-ml_proj-bip_2020-11-10-10-27-07.056097
286	5	1	6	287	stable	8	200	87	vs	red	blue	blue	red	right	left	0.30000000000000004	0.7	2	10	0.6000000000000001	7.0	1	0	0.7	0.30000000000000004	10	2	7.0	0.6000000000000001	invalid	0.5665258870012622	51200	0	0	2	51200	1	51200	1	51200	1	0.7	51200	red	blue	1	0	ml	2.7.3	bip	sub-05_ses-01_task-ml_proj-bip_2020-11-10-10-27-07.056097
287	5	1	6	288	stable	8	200	88	vs	red	blue	blue	red	right	left	0.30000000000000004	0.7	2	10	0.6000000000000001	7.0	1	0	0.7	0.30000000000000004	10	2	7.0	0.6000000000000001	invalid	0.483213783998508	51200	0	0	2	51200	1	51200	1	51200	1	0.7	51200	red	blue	1	0	ml	2.7.3	bip	sub-05_ses-01_task-ml_proj-bip_2020-11-10-10-27-07.056097
288	5	1	6	289	stable	8	200	89	vs	red	blue	blue	red	right	left	0.30000000000000004	0.7	2	6	0.6000000000000001	4.199999999999998	1	0	0.7	0.30000000000000004	6	2	4.199999999999998	0.6000000000000001	invalid	0.6498402889992576	51200	0	0	2	51200	1	51200	1	51200	1	0.7	51200	red	blue	1	0	ml	2.7.3	bip	sub-05_ses-01_task-ml_proj-bip_2020-11-10-10-27-07.056097
289	5	1	6	290	stable	8	200	90	vs	blue	red	blue	red	left	right	0.30000000000000004	0.7	2	10	0.6000000000000001	7.0	0	1	0.30000000000000004	0.7	2	10	0.6000000000000001	7.0	valid	0.6831688610000128	53248	0	1	2	53248	1	53248	1	53248	1	0.7	53248	red	blue	1	10	ml	2.7.3	bip	sub-05_ses-01_task-ml_proj-bip_2020-11-10-10-27-07.056097
290	5	1	6	291	stable	8	200	91	vs	red	blue	blue	red	right	left	0.30000000000000004	0.7	4	2	1.2000000000000002	1.4	0	1	0.7	0.30000000000000004	2	4	1.4	1.2000000000000002	valid	0.6831681739986379	53248	0	1	1	51200	0	51200	0	53248	1	0.7	51200	red	blue	0	0	ml	2.7.3	bip	sub-05_ses-01_task-ml_proj-bip_2020-11-10-10-27-07.056097
291	5	1	6	292	stable	8	200	92	vs	blue	red	blue	red	left	right	0.30000000000000004	0.7	4	6	1.2000000000000002	4.199999999999998	0	1	0.30000000000000004	0.7	4	6	1.2000000000000002	4.199999999999998	valid	1.266333865998604	53248	0	1	2	53248	1	53248	1	53248	1	0.7	53248	red	blue	1	6	ml	2.7.3	bip	sub-05_ses-01_task-ml_proj-bip_2020-11-10-10-27-07.056097
292	5	1	6	293	stable	8	200	93	vs	red	blue	blue	red	right	left	0.30000000000000004	0.7	4	6	1.2000000000000002	4.199999999999998	0	1	0.7	0.30000000000000004	6	4	4.199999999999998	1.2000000000000002	valid	0.6664947730005224	51200	0	0	2	51200	1	51200	1	51200	1	0.7	51200	red	blue	1	6	ml	2.7.3	bip	sub-05_ses-01_task-ml_proj-bip_2020-11-10-10-27-07.056097
293	5	1	6	294	stable	8	200	94	vs	red	blue	blue	red	right	left	0.30000000000000004	0.7	2	6	0.6000000000000001	4.199999999999998	0	1	0.7	0.30000000000000004	6	2	4.199999999999998	0.6000000000000001	valid	0.5165404019990092	51200	0	0	2	51200	1	51200	1	51200	1	0.7	51200	red	blue	1	6	ml	2.7.3	bip	sub-05_ses-01_task-ml_proj-bip_2020-11-10-10-27-07.056097
294	5	1	6	295	stable	8	200	95	vs	blue	red	blue	red	left	right	0.30000000000000004	0.7	2	2	0.6000000000000001	1.4	0	1	0.30000000000000004	0.7	2	2	0.6000000000000001	1.4	valid	0.7998018800008141	53248	0	1	2	53248	1	53248	1	53248	1	0.7	53248	red	blue	0	2	ml	2.7.3	bip	sub-05_ses-01_task-ml_proj-bip_2020-11-10-10-27-07.056097
295	5	1	6	296	stable	8	200	96	vs	red	blue	blue	red	right	left	0.30000000000000004	0.7	4	6	1.2000000000000002	4.199999999999998	0	1	0.7	0.30000000000000004	6	4	4.199999999999998	1.2000000000000002	valid	0.483215066999037	51200	0	0	2	51200	1	51200	1	51200	1	0.7	51200	red	blue	1	6	ml	2.7.3	bip	sub-05_ses-01_task-ml_proj-bip_2020-11-10-10-27-07.056097
296	5	1	6	297	stable	8	200	97	vs	blue	red	blue	red	left	right	0.30000000000000004	0.7	6	6	1.8000000000000005	4.199999999999998	0	1	0.30000000000000004	0.7	6	6	1.8000000000000005	4.199999999999998	valid	0.6165216100016551	53248	0	1	2	53248	1	53248	1	53248	1	0.7	53248	red	blue	0	6	ml	2.7.3	bip	sub-05_ses-01_task-ml_proj-bip_2020-11-10-10-27-07.056097
297	5	1	6	298	stable	8	200	98	vs	red	blue	blue	red	right	left	0.30000000000000004	0.7	2	2	0.6000000000000001	1.4	0	1	0.7	0.30000000000000004	2	2	1.4	0.6000000000000001	valid	0.616508678000173	51200	0	0	2	51200	1	51200	1	53248	0	0.7	51200	red	blue	1	2	ml	2.7.3	bip	sub-05_ses-01_task-ml_proj-bip_2020-11-10-10-27-07.056097
298	5	1	6	299	stable	8	200	99	vs	blue	red	blue	red	left	right	0.30000000000000004	0.7	2	10	0.6000000000000001	7.0	0	1	0.30000000000000004	0.7	2	10	0.6000000000000001	7.0	valid	0.4998804949991609	53248	0	1	2	53248	1	53248	1	53248	1	0.7	53248	red	blue	1	10	ml	2.7.3	bip	sub-05_ses-01_task-ml_proj-bip_2020-11-10-10-27-07.056097
