Unnamed: 0	sub_id	ses_id	block_no	trial_no	phase_type	phase_no	phase_length	trialInPhase_no	phase_type_order	color_left	color_right	color1	color2	position1	position2	prob1	prob2	mag1	mag2	ev1	ev2	outcome1	outcome2	prob_left	prob_right	mag_left	mag_right	ev_left	ev_right	reward_validity	resp_time	resp_key	timeout	choice_side	choice	ev_corr_resp	ev_correct	prob_corr_resp	prob_correct	mag_corr_resp	mag_correct	high_prob	high_prob_side	high_prob_color	low_prob_color	no_brain	reward	name	version	proj_id	logFileID
0	15	1	1	1	volatile	1	20	1	vs	blue	red	red	blue	right	left	0.7	0.30000000000000004	2	4	1.4	1.2000000000000002	1	0	0.30000000000000004	0.7	4	2	1.2000000000000002	1.4	valid	0.5665326210000785	53248	0	1	1	53248	1	53248	1	51200	0	0.7	53248	red	blue	0	2	ml	2.7.3	lorasick	sub-15_ses-01_task-ml_proj-lorasick_2021-03-24-14-11-31.529935
1	15	1	1	2	volatile	1	20	2	vs	blue	red	red	blue	right	left	0.7	0.30000000000000004	2	10	1.4	3.0000000000000004	1	0	0.30000000000000004	0.7	10	2	3.0000000000000004	1.4	valid	0.6165179930030718	53248	0	1	1	51200	0	53248	1	51200	0	0.7	53248	red	blue	0	2	ml	2.7.3	lorasick	sub-15_ses-01_task-ml_proj-lorasick_2021-03-24-14-11-31.529935
2	15	1	1	3	volatile	1	20	3	vs	blue	red	red	blue	right	left	0.7	0.30000000000000004	2	6	1.4	1.8000000000000005	1	0	0.30000000000000004	0.7	6	2	1.8000000000000005	1.4	valid	0.3332793180015869	53248	0	1	1	51200	0	53248	1	51200	0	0.7	53248	red	blue	0	2	ml	2.7.3	lorasick	sub-15_ses-01_task-ml_proj-lorasick_2021-03-24-14-11-31.529935
3	15	1	1	4	volatile	1	20	4	vs	blue	red	red	blue	right	left	0.7	0.30000000000000004	2	4	1.4	1.2000000000000002	1	0	0.30000000000000004	0.7	4	2	1.2000000000000002	1.4	valid	0.34993324899915024	53248	0	1	1	53248	1	53248	1	51200	0	0.7	53248	red	blue	0	2	ml	2.7.3	lorasick	sub-15_ses-01_task-ml_proj-lorasick_2021-03-24-14-11-31.529935
4	15	1	1	5	volatile	1	20	5	vs	red	blue	red	blue	left	right	0.7	0.30000000000000004	10	2	7.0	0.6000000000000001	1	0	0.7	0.30000000000000004	10	2	7.0	0.6000000000000001	valid	0.3332606009971641	51200	0	0	1	51200	1	51200	1	51200	1	0.7	51200	red	blue	1	10	ml	2.7.3	lorasick	sub-15_ses-01_task-ml_proj-lorasick_2021-03-24-14-11-31.529935
5	15	1	1	6	volatile	1	20	6	vs	blue	red	red	blue	right	left	0.7	0.30000000000000004	2	2	1.4	0.6000000000000001	1	0	0.30000000000000004	0.7	2	2	0.6000000000000001	1.4	valid	0.3999177719997533	53248	0	1	1	53248	1	53248	1	53248	1	0.7	53248	red	blue	0	2	ml	2.7.3	lorasick	sub-15_ses-01_task-ml_proj-lorasick_2021-03-24-14-11-31.529935
6	15	1	1	7	volatile	1	20	7	vs	red	blue	red	blue	left	right	0.7	0.30000000000000004	6	6	4.199999999999998	1.8000000000000005	1	0	0.7	0.30000000000000004	6	6	4.199999999999998	1.8000000000000005	valid	0.39989975199932815	51200	0	0	1	51200	1	51200	1	53248	0	0.7	51200	red	blue	1	6	ml	2.7.3	lorasick	sub-15_ses-01_task-ml_proj-lorasick_2021-03-24-14-11-31.529935
7	15	1	1	8	volatile	1	20	8	vs	red	blue	red	blue	left	right	0.7	0.30000000000000004	2	6	1.4	1.8000000000000005	1	0	0.7	0.30000000000000004	2	6	1.4	1.8000000000000005	valid	0.4665515039996535	51200	0	0	1	53248	0	51200	1	53248	0	0.7	51200	red	blue	0	2	ml	2.7.3	lorasick	sub-15_ses-01_task-ml_proj-lorasick_2021-03-24-14-11-31.529935
8	15	1	1	9	volatile	1	20	9	vs	red	blue	red	blue	left	right	0.7	0.30000000000000004	6	2	4.199999999999998	0.6000000000000001	0	1	0.7	0.30000000000000004	6	2	4.199999999999998	0.6000000000000001	invalid	0.3832435219992476	51200	0	0	1	51200	1	51200	1	51200	1	0.7	51200	red	blue	1	0	ml	2.7.3	lorasick	sub-15_ses-01_task-ml_proj-lorasick_2021-03-24-14-11-31.529935
9	15	1	1	10	volatile	1	20	10	vs	blue	red	red	blue	right	left	0.7	0.30000000000000004	4	2	2.8	0.6000000000000001	1	0	0.30000000000000004	0.7	2	4	0.6000000000000001	2.8	valid	0.3332746939995559	53248	0	1	1	53248	1	53248	1	53248	1	0.7	53248	red	blue	1	4	ml	2.7.3	lorasick	sub-15_ses-01_task-ml_proj-lorasick_2021-03-24-14-11-31.529935
10	15	1	1	11	volatile	1	20	11	vs	red	blue	red	blue	left	right	0.7	0.30000000000000004	4	6	2.8	1.8000000000000005	1	0	0.7	0.30000000000000004	4	6	2.8	1.8000000000000005	valid	0.3999027099998784	51200	0	0	1	51200	1	51200	1	53248	0	0.7	51200	red	blue	0	4	ml	2.7.3	lorasick	sub-15_ses-01_task-ml_proj-lorasick_2021-03-24-14-11-31.529935
11	15	1	1	12	volatile	1	20	12	vs	blue	red	red	blue	right	left	0.7	0.30000000000000004	6	6	4.199999999999998	1.8000000000000005	0	1	0.30000000000000004	0.7	6	6	1.8000000000000005	4.199999999999998	invalid	0.3665938900012407	53248	0	1	1	53248	1	53248	1	53248	1	0.7	53248	red	blue	0	0	ml	2.7.3	lorasick	sub-15_ses-01_task-ml_proj-lorasick_2021-03-24-14-11-31.529935
12	15	1	1	13	volatile	1	20	13	vs	red	blue	red	blue	left	right	0.7	0.30000000000000004	2	10	1.4	3.0000000000000004	1	0	0.7	0.30000000000000004	2	10	1.4	3.0000000000000004	valid	0.4332303060000413	51200	0	0	1	53248	0	51200	1	53248	0	0.7	51200	red	blue	0	2	ml	2.7.3	lorasick	sub-15_ses-01_task-ml_proj-lorasick_2021-03-24-14-11-31.529935
13	15	1	1	14	volatile	1	20	14	vs	blue	red	red	blue	right	left	0.7	0.30000000000000004	2	2	1.4	0.6000000000000001	0	1	0.30000000000000004	0.7	2	2	0.6000000000000001	1.4	invalid	0.3665945090033347	53248	0	1	1	53248	1	53248	1	53248	1	0.7	53248	red	blue	0	0	ml	2.7.3	lorasick	sub-15_ses-01_task-ml_proj-lorasick_2021-03-24-14-11-31.529935
14	15	1	1	15	volatile	1	20	15	vs	red	blue	red	blue	left	right	0.7	0.30000000000000004	4	6	2.8	1.8000000000000005	0	1	0.7	0.30000000000000004	4	6	2.8	1.8000000000000005	invalid	0.4332311479993223	51200	0	0	1	51200	1	51200	1	53248	0	0.7	51200	red	blue	0	0	ml	2.7.3	lorasick	sub-15_ses-01_task-ml_proj-lorasick_2021-03-24-14-11-31.529935
15	15	1	1	16	volatile	1	20	16	vs	blue	red	red	blue	right	left	0.7	0.30000000000000004	4	6	2.8	1.8000000000000005	1	0	0.30000000000000004	0.7	6	4	1.8000000000000005	2.8	valid	0.2999488310015295	53248	0	1	1	53248	1	53248	1	51200	0	0.7	53248	red	blue	0	4	ml	2.7.3	lorasick	sub-15_ses-01_task-ml_proj-lorasick_2021-03-24-14-11-31.529935
16	15	1	1	17	volatile	1	20	17	vs	blue	red	red	blue	right	left	0.7	0.30000000000000004	10	2	7.0	0.6000000000000001	0	1	0.30000000000000004	0.7	2	10	0.6000000000000001	7.0	invalid	0.4332845230019302	53248	0	1	1	53248	1	53248	1	53248	1	0.7	53248	red	blue	1	0	ml	2.7.3	lorasick	sub-15_ses-01_task-ml_proj-lorasick_2021-03-24-14-11-31.529935
17	15	1	1	18	volatile	1	20	18	vs	red	blue	red	blue	left	right	0.7	0.30000000000000004	6	4	4.199999999999998	1.2000000000000002	0	1	0.7	0.30000000000000004	6	4	4.199999999999998	1.2000000000000002	invalid	0.39990526299879997	51200	0	0	1	51200	1	51200	1	51200	1	0.7	51200	red	blue	1	0	ml	2.7.3	lorasick	sub-15_ses-01_task-ml_proj-lorasick_2021-03-24-14-11-31.529935
18	15	1	1	19	volatile	1	20	19	vs	red	blue	red	blue	left	right	0.7	0.30000000000000004	2	4	1.4	1.2000000000000002	1	0	0.7	0.30000000000000004	2	4	1.4	1.2000000000000002	valid	0.2666151649973472	51200	0	0	1	51200	1	51200	1	53248	0	0.7	51200	red	blue	0	2	ml	2.7.3	lorasick	sub-15_ses-01_task-ml_proj-lorasick_2021-03-24-14-11-31.529935
19	15	1	1	20	volatile	1	20	20	vs	red	blue	red	blue	left	right	0.7	0.30000000000000004	2	6	1.4	1.8000000000000005	1	0	0.7	0.30000000000000004	2	6	1.4	1.8000000000000005	valid	0.3665824700001393	51200	0	0	1	53248	0	51200	1	53248	0	0.7	51200	red	blue	0	2	ml	2.7.3	lorasick	sub-15_ses-01_task-ml_proj-lorasick_2021-03-24-14-11-31.529935
20	15	1	1	21	volatile	2	20	1	vs	red	blue	red	blue	left	right	0.30000000000000004	0.7	6	2	1.8000000000000005	1.4	1	0	0.30000000000000004	0.7	6	2	1.8000000000000005	1.4	invalid	0.3165987350002979	51200	0	0	1	51200	1	53248	0	51200	1	0.7	53248	blue	red	0	6	ml	2.7.3	lorasick	sub-15_ses-01_task-ml_proj-lorasick_2021-03-24-14-11-31.529935
21	15	1	1	22	volatile	2	20	2	vs	blue	red	red	blue	right	left	0.30000000000000004	0.7	2	2	0.6000000000000001	1.4	1	0	0.7	0.30000000000000004	2	2	1.4	0.6000000000000001	invalid	0.48322445799931296	53248	0	1	1	51200	0	51200	0	53248	1	0.7	51200	blue	red	1	2	ml	2.7.3	lorasick	sub-15_ses-01_task-ml_proj-lorasick_2021-03-24-14-11-31.529935
22	15	1	1	23	volatile	2	20	3	vs	red	blue	red	blue	left	right	0.30000000000000004	0.7	2	6	0.6000000000000001	4.199999999999998	0	1	0.30000000000000004	0.7	2	6	0.6000000000000001	4.199999999999998	valid	0.3165996570023708	51200	0	0	1	53248	0	53248	0	53248	0	0.7	53248	blue	red	1	0	ml	2.7.3	lorasick	sub-15_ses-01_task-ml_proj-lorasick_2021-03-24-14-11-31.529935
23	15	1	1	24	volatile	2	20	4	vs	blue	red	red	blue	right	left	0.30000000000000004	0.7	6	4	1.8000000000000005	2.8	0	1	0.7	0.30000000000000004	4	6	2.8	1.8000000000000005	valid	0.3665831449980033	51200	0	0	2	51200	1	51200	1	53248	0	0.7	51200	blue	red	0	4	ml	2.7.3	lorasick	sub-15_ses-01_task-ml_proj-lorasick_2021-03-24-14-11-31.529935
24	15	1	1	25	volatile	2	20	5	vs	blue	red	red	blue	right	left	0.30000000000000004	0.7	4	2	1.2000000000000002	1.4	1	0	0.7	0.30000000000000004	2	4	1.4	1.2000000000000002	invalid	0.4332477980024123	53248	0	1	1	51200	0	51200	0	53248	1	0.7	51200	blue	red	0	4	ml	2.7.3	lorasick	sub-15_ses-01_task-ml_proj-lorasick_2021-03-24-14-11-31.529935
25	15	1	1	26	volatile	2	20	6	vs	blue	red	red	blue	right	left	0.30000000000000004	0.7	2	10	0.6000000000000001	7.0	0	1	0.7	0.30000000000000004	10	2	7.0	0.6000000000000001	valid	0.6665057220016024	53248	0	1	1	51200	0	51200	0	51200	0	0.7	51200	blue	red	1	0	ml	2.7.3	lorasick	sub-15_ses-01_task-ml_proj-lorasick_2021-03-24-14-11-31.529935
26	15	1	1	27	volatile	2	20	7	vs	blue	red	red	blue	right	left	0.30000000000000004	0.7	6	6	1.8000000000000005	4.199999999999998	0	1	0.7	0.30000000000000004	6	6	4.199999999999998	1.8000000000000005	valid	0.5498767409990251	53248	0	1	1	51200	0	51200	0	53248	1	0.7	51200	blue	red	1	0	ml	2.7.3	lorasick	sub-15_ses-01_task-ml_proj-lorasick_2021-03-24-14-11-31.529935
27	15	1	1	28	volatile	2	20	8	vs	red	blue	red	blue	left	right	0.30000000000000004	0.7	6	4	1.8000000000000005	2.8	0	1	0.30000000000000004	0.7	6	4	1.8000000000000005	2.8	valid	0.433241229999112	53248	0	1	2	53248	1	53248	1	51200	0	0.7	53248	blue	red	0	4	ml	2.7.3	lorasick	sub-15_ses-01_task-ml_proj-lorasick_2021-03-24-14-11-31.529935
28	15	1	1	29	volatile	2	20	9	vs	red	blue	red	blue	left	right	0.30000000000000004	0.7	4	2	1.2000000000000002	1.4	0	1	0.30000000000000004	0.7	4	2	1.2000000000000002	1.4	valid	0.38325413199709146	53248	0	1	2	53248	1	53248	1	51200	0	0.7	53248	blue	red	0	2	ml	2.7.3	lorasick	sub-15_ses-01_task-ml_proj-lorasick_2021-03-24-14-11-31.529935
29	15	1	1	30	volatile	2	20	10	vs	red	blue	red	blue	left	right	0.30000000000000004	0.7	4	6	1.2000000000000002	4.199999999999998	0	1	0.30000000000000004	0.7	4	6	1.2000000000000002	4.199999999999998	valid	0.38326140100252815	53248	0	1	2	53248	1	53248	1	53248	1	0.7	53248	blue	red	1	6	ml	2.7.3	lorasick	sub-15_ses-01_task-ml_proj-lorasick_2021-03-24-14-11-31.529935
30	15	1	1	31	volatile	2	20	11	vs	red	blue	red	blue	left	right	0.30000000000000004	0.7	2	4	0.6000000000000001	2.8	0	1	0.30000000000000004	0.7	2	4	0.6000000000000001	2.8	valid	0.5998472129977017	53248	0	1	2	53248	1	53248	1	53248	1	0.7	53248	blue	red	1	4	ml	2.7.3	lorasick	sub-15_ses-01_task-ml_proj-lorasick_2021-03-24-14-11-31.529935
31	15	1	1	32	volatile	2	20	12	vs	blue	red	red	blue	right	left	0.30000000000000004	0.7	2	6	0.6000000000000001	4.199999999999998	0	1	0.7	0.30000000000000004	6	2	4.199999999999998	0.6000000000000001	valid	0.31659949900131323	51200	0	0	2	51200	1	51200	1	51200	1	0.7	51200	blue	red	1	6	ml	2.7.3	lorasick	sub-15_ses-01_task-ml_proj-lorasick_2021-03-24-14-11-31.529935
32	15	1	1	33	volatile	2	20	13	vs	red	blue	red	blue	left	right	0.30000000000000004	0.7	2	6	0.6000000000000001	4.199999999999998	1	0	0.30000000000000004	0.7	2	6	0.6000000000000001	4.199999999999998	invalid	0.383257378001872	53248	0	1	2	53248	1	53248	1	53248	1	0.7	53248	blue	red	1	0	ml	2.7.3	lorasick	sub-15_ses-01_task-ml_proj-lorasick_2021-03-24-14-11-31.529935
33	15	1	1	34	volatile	2	20	14	vs	blue	red	red	blue	right	left	0.30000000000000004	0.7	2	2	0.6000000000000001	1.4	0	1	0.7	0.30000000000000004	2	2	1.4	0.6000000000000001	valid	0.7997956500003056	53248	0	1	1	51200	0	51200	0	53248	1	0.7	51200	blue	red	1	0	ml	2.7.3	lorasick	sub-15_ses-01_task-ml_proj-lorasick_2021-03-24-14-11-31.529935
34	15	1	1	35	volatile	2	20	15	vs	blue	red	red	blue	right	left	0.30000000000000004	0.7	2	4	0.6000000000000001	2.8	1	0	0.7	0.30000000000000004	4	2	2.8	0.6000000000000001	invalid	0.4832144350002636	51200	0	0	2	51200	1	51200	1	51200	1	0.7	51200	blue	red	1	0	ml	2.7.3	lorasick	sub-15_ses-01_task-ml_proj-lorasick_2021-03-24-14-11-31.529935
35	15	1	1	36	volatile	2	20	16	vs	blue	red	red	blue	right	left	0.30000000000000004	0.7	6	6	1.8000000000000005	4.199999999999998	0	1	0.7	0.30000000000000004	6	6	4.199999999999998	1.8000000000000005	valid	0.3165964220024762	51200	0	0	2	51200	1	51200	1	53248	0	0.7	51200	blue	red	1	6	ml	2.7.3	lorasick	sub-15_ses-01_task-ml_proj-lorasick_2021-03-24-14-11-31.529935
36	15	1	1	37	volatile	2	20	17	vs	red	blue	red	blue	left	right	0.30000000000000004	0.7	10	2	3.0000000000000004	1.4	1	0	0.30000000000000004	0.7	10	2	3.0000000000000004	1.4	invalid	0.5498720950017741	53248	0	1	2	51200	0	53248	1	51200	0	0.7	53248	blue	red	0	0	ml	2.7.3	lorasick	sub-15_ses-01_task-ml_proj-lorasick_2021-03-24-14-11-31.529935
37	15	1	1	38	volatile	2	20	18	vs	red	blue	red	blue	left	right	0.30000000000000004	0.7	2	10	0.6000000000000001	7.0	0	1	0.30000000000000004	0.7	2	10	0.6000000000000001	7.0	valid	0.34993382100219605	53248	0	1	2	53248	1	53248	1	53248	1	0.7	53248	blue	red	1	10	ml	2.7.3	lorasick	sub-15_ses-01_task-ml_proj-lorasick_2021-03-24-14-11-31.529935
38	15	1	1	39	volatile	2	20	19	vs	blue	red	red	blue	right	left	0.30000000000000004	0.7	10	2	3.0000000000000004	1.4	0	1	0.7	0.30000000000000004	2	10	1.4	3.0000000000000004	valid	0.5831824369997776	51200	0	0	2	53248	0	51200	1	53248	0	0.7	51200	blue	red	0	2	ml	2.7.3	lorasick	sub-15_ses-01_task-ml_proj-lorasick_2021-03-24-14-11-31.529935
39	15	1	1	40	volatile	2	20	20	vs	red	blue	red	blue	left	right	0.30000000000000004	0.7	6	4	1.8000000000000005	2.8	0	1	0.30000000000000004	0.7	6	4	1.8000000000000005	2.8	valid	0.3832540510011313	53248	0	1	2	53248	1	53248	1	51200	0	0.7	53248	blue	red	0	4	ml	2.7.3	lorasick	sub-15_ses-01_task-ml_proj-lorasick_2021-03-24-14-11-31.529935
40	15	1	1	41	volatile	3	40	1	vs	blue	red	red	blue	right	left	0.7	0.30000000000000004	2	6	1.4	1.8000000000000005	0	1	0.30000000000000004	0.7	6	2	1.8000000000000005	1.4	invalid	0.34992204700029106	51200	0	0	2	51200	1	53248	0	51200	1	0.7	53248	red	blue	0	6	ml	2.7.3	lorasick	sub-15_ses-01_task-ml_proj-lorasick_2021-03-24-14-11-31.529935
41	15	1	1	42	volatile	3	40	2	vs	red	blue	red	blue	left	right	0.7	0.30000000000000004	6	4	4.199999999999998	1.2000000000000002	1	0	0.7	0.30000000000000004	6	4	4.199999999999998	1.2000000000000002	valid	0.4832248749989958	53248	0	1	2	51200	0	51200	0	51200	0	0.7	51200	red	blue	1	0	ml	2.7.3	lorasick	sub-15_ses-01_task-ml_proj-lorasick_2021-03-24-14-11-31.529935
42	15	1	1	43	volatile	3	40	3	vs	blue	red	red	blue	right	left	0.7	0.30000000000000004	6	6	4.199999999999998	1.8000000000000005	0	1	0.30000000000000004	0.7	6	6	1.8000000000000005	4.199999999999998	invalid	0.2999362230002589	51200	0	0	2	53248	0	53248	0	53248	0	0.7	53248	red	blue	0	6	ml	2.7.3	lorasick	sub-15_ses-01_task-ml_proj-lorasick_2021-03-24-14-11-31.529935
43	15	1	1	44	volatile	3	40	4	vs	blue	red	red	blue	right	left	0.7	0.30000000000000004	6	2	4.199999999999998	0.6000000000000001	1	0	0.30000000000000004	0.7	2	6	0.6000000000000001	4.199999999999998	valid	0.29993456200099894	51200	0	0	2	53248	0	53248	0	53248	0	0.7	53248	red	blue	1	0	ml	2.7.3	lorasick	sub-15_ses-01_task-ml_proj-lorasick_2021-03-24-14-11-31.529935
44	15	1	1	45	volatile	3	40	5	vs	blue	red	red	blue	right	left	0.7	0.30000000000000004	2	4	1.4	1.2000000000000002	1	0	0.30000000000000004	0.7	4	2	1.2000000000000002	1.4	valid	0.33326123699953314	51200	0	0	2	53248	0	53248	0	51200	1	0.7	53248	red	blue	0	0	ml	2.7.3	lorasick	sub-15_ses-01_task-ml_proj-lorasick_2021-03-24-14-11-31.529935
45	15	1	1	46	volatile	3	40	6	vs	red	blue	red	blue	left	right	0.7	0.30000000000000004	6	2	4.199999999999998	0.6000000000000001	0	1	0.7	0.30000000000000004	6	2	4.199999999999998	0.6000000000000001	invalid	0.5331898820004426	51200	0	0	1	51200	1	51200	1	51200	1	0.7	51200	red	blue	1	0	ml	2.7.3	lorasick	sub-15_ses-01_task-ml_proj-lorasick_2021-03-24-14-11-31.529935
46	15	1	1	47	volatile	3	40	7	vs	red	blue	red	blue	left	right	0.7	0.30000000000000004	6	6	4.199999999999998	1.8000000000000005	1	0	0.7	0.30000000000000004	6	6	4.199999999999998	1.8000000000000005	valid	0.3665983900027641	53248	0	1	2	51200	0	51200	0	53248	1	0.7	51200	red	blue	1	0	ml	2.7.3	lorasick	sub-15_ses-01_task-ml_proj-lorasick_2021-03-24-14-11-31.529935
47	15	1	1	48	volatile	3	40	8	vs	red	blue	red	blue	left	right	0.7	0.30000000000000004	2	10	1.4	3.0000000000000004	1	0	0.7	0.30000000000000004	2	10	1.4	3.0000000000000004	valid	0.5831857490011316	51200	0	0	1	53248	0	51200	1	53248	0	0.7	51200	red	blue	0	2	ml	2.7.3	lorasick	sub-15_ses-01_task-ml_proj-lorasick_2021-03-24-14-11-31.529935
48	15	1	1	49	volatile	3	40	9	vs	blue	red	red	blue	right	left	0.7	0.30000000000000004	2	10	1.4	3.0000000000000004	1	0	0.30000000000000004	0.7	10	2	3.0000000000000004	1.4	valid	0.3665954540010716	53248	0	1	1	51200	0	53248	1	51200	0	0.7	53248	red	blue	0	2	ml	2.7.3	lorasick	sub-15_ses-01_task-ml_proj-lorasick_2021-03-24-14-11-31.529935
49	15	1	1	50	volatile	3	40	10	vs	red	blue	red	blue	left	right	0.7	0.30000000000000004	6	4	4.199999999999998	1.2000000000000002	1	0	0.7	0.30000000000000004	6	4	4.199999999999998	1.2000000000000002	valid	0.2999348269986513	51200	0	0	1	51200	1	51200	1	51200	1	0.7	51200	red	blue	1	6	ml	2.7.3	lorasick	sub-15_ses-01_task-ml_proj-lorasick_2021-03-24-14-11-31.529935
50	15	1	2	51	volatile	3	40	11	vs	red	blue	red	blue	left	right	0.7	0.30000000000000004	4	2	2.8	0.6000000000000001	0	1	0.7	0.30000000000000004	4	2	2.8	0.6000000000000001	invalid	0.6998160200018901	51200	0	0	1	51200	1	51200	1	51200	1	0.7	51200	red	blue	1	0	ml	2.7.3	lorasick	sub-15_ses-01_task-ml_proj-lorasick_2021-03-24-14-11-31.529935
51	15	1	2	52	volatile	3	40	12	vs	blue	red	red	blue	right	left	0.7	0.30000000000000004	6	6	4.199999999999998	1.8000000000000005	1	0	0.30000000000000004	0.7	6	6	1.8000000000000005	4.199999999999998	valid	0.43322818000160623	51200	0	0	2	53248	0	53248	0	53248	0	0.7	53248	red	blue	0	0	ml	2.7.3	lorasick	sub-15_ses-01_task-ml_proj-lorasick_2021-03-24-14-11-31.529935
52	15	1	2	53	volatile	3	40	13	vs	blue	red	red	blue	right	left	0.7	0.30000000000000004	2	4	1.4	1.2000000000000002	0	1	0.30000000000000004	0.7	4	2	1.2000000000000002	1.4	invalid	0.6331816189995152	53248	0	1	1	53248	1	53248	1	51200	0	0.7	53248	red	blue	0	0	ml	2.7.3	lorasick	sub-15_ses-01_task-ml_proj-lorasick_2021-03-24-14-11-31.529935
53	15	1	2	54	volatile	3	40	14	vs	blue	red	red	blue	right	left	0.7	0.30000000000000004	2	10	1.4	3.0000000000000004	1	0	0.30000000000000004	0.7	10	2	3.0000000000000004	1.4	valid	0.49988567499895	53248	0	1	1	51200	0	53248	1	51200	0	0.7	53248	red	blue	0	2	ml	2.7.3	lorasick	sub-15_ses-01_task-ml_proj-lorasick_2021-03-24-14-11-31.529935
54	15	1	2	55	volatile	3	40	15	vs	red	blue	red	blue	left	right	0.7	0.30000000000000004	6	6	4.199999999999998	1.8000000000000005	1	0	0.7	0.30000000000000004	6	6	4.199999999999998	1.8000000000000005	valid	0.3165994549999596	51200	0	0	1	51200	1	51200	1	53248	0	0.7	51200	red	blue	1	6	ml	2.7.3	lorasick	sub-15_ses-01_task-ml_proj-lorasick_2021-03-24-14-11-31.529935
55	15	1	2	56	volatile	3	40	16	vs	red	blue	red	blue	left	right	0.7	0.30000000000000004	4	6	2.8	1.8000000000000005	1	0	0.7	0.30000000000000004	4	6	2.8	1.8000000000000005	valid	0.31660174900025595	51200	0	0	1	51200	1	51200	1	53248	0	0.7	51200	red	blue	0	4	ml	2.7.3	lorasick	sub-15_ses-01_task-ml_proj-lorasick_2021-03-24-14-11-31.529935
56	15	1	2	57	volatile	3	40	17	vs	blue	red	red	blue	right	left	0.7	0.30000000000000004	6	2	4.199999999999998	0.6000000000000001	0	1	0.30000000000000004	0.7	2	6	0.6000000000000001	4.199999999999998	invalid	0.33327233900126885	53248	0	1	1	53248	1	53248	1	53248	1	0.7	53248	red	blue	1	0	ml	2.7.3	lorasick	sub-15_ses-01_task-ml_proj-lorasick_2021-03-24-14-11-31.529935
57	15	1	2	58	volatile	3	40	18	vs	blue	red	red	blue	right	left	0.7	0.30000000000000004	2	2	1.4	0.6000000000000001	1	0	0.30000000000000004	0.7	2	2	0.6000000000000001	1.4	valid	0.4165799359980156	53248	0	1	1	53248	1	53248	1	53248	1	0.7	53248	red	blue	0	2	ml	2.7.3	lorasick	sub-15_ses-01_task-ml_proj-lorasick_2021-03-24-14-11-31.529935
58	15	1	2	59	volatile	3	40	19	vs	blue	red	red	blue	right	left	0.7	0.30000000000000004	2	6	1.4	1.8000000000000005	1	0	0.30000000000000004	0.7	6	2	1.8000000000000005	1.4	valid	0.3665949589994853	53248	0	1	1	51200	0	53248	1	51200	0	0.7	53248	red	blue	0	2	ml	2.7.3	lorasick	sub-15_ses-01_task-ml_proj-lorasick_2021-03-24-14-11-31.529935
59	15	1	2	60	volatile	3	40	20	vs	red	blue	red	blue	left	right	0.7	0.30000000000000004	2	10	1.4	3.0000000000000004	1	0	0.7	0.30000000000000004	2	10	1.4	3.0000000000000004	valid	0.383255933997134	51200	0	0	1	53248	0	51200	1	53248	0	0.7	51200	red	blue	0	2	ml	2.7.3	lorasick	sub-15_ses-01_task-ml_proj-lorasick_2021-03-24-14-11-31.529935
60	15	1	2	61	volatile	3	40	21	vs	red	blue	red	blue	left	right	0.7	0.30000000000000004	2	4	1.4	1.2000000000000002	1	0	0.7	0.30000000000000004	2	4	1.4	1.2000000000000002	valid	0.3832452809983806	51200	0	0	1	51200	1	51200	1	53248	0	0.7	51200	red	blue	0	2	ml	2.7.3	lorasick	sub-15_ses-01_task-ml_proj-lorasick_2021-03-24-14-11-31.529935
61	15	1	2	62	volatile	3	40	22	vs	red	blue	red	blue	left	right	0.7	0.30000000000000004	6	4	4.199999999999998	1.2000000000000002	0	1	0.7	0.30000000000000004	6	4	4.199999999999998	1.2000000000000002	invalid	0.3832543640019139	51200	0	0	1	51200	1	51200	1	51200	1	0.7	51200	red	blue	1	0	ml	2.7.3	lorasick	sub-15_ses-01_task-ml_proj-lorasick_2021-03-24-14-11-31.529935
62	15	1	2	63	volatile	3	40	23	vs	blue	red	red	blue	right	left	0.7	0.30000000000000004	6	2	4.199999999999998	0.6000000000000001	1	0	0.30000000000000004	0.7	2	6	0.6000000000000001	4.199999999999998	valid	0.5998560750012984	53248	0	1	1	53248	1	53248	1	53248	1	0.7	53248	red	blue	1	6	ml	2.7.3	lorasick	sub-15_ses-01_task-ml_proj-lorasick_2021-03-24-14-11-31.529935
63	15	1	2	64	volatile	3	40	24	vs	blue	red	red	blue	right	left	0.7	0.30000000000000004	2	2	1.4	0.6000000000000001	0	1	0.30000000000000004	0.7	2	2	0.6000000000000001	1.4	invalid	0.4332393479999155	53248	0	1	1	53248	1	53248	1	53248	1	0.7	53248	red	blue	0	0	ml	2.7.3	lorasick	sub-15_ses-01_task-ml_proj-lorasick_2021-03-24-14-11-31.529935
64	15	1	2	65	volatile	3	40	25	vs	blue	red	red	blue	right	left	0.7	0.30000000000000004	2	2	1.4	0.6000000000000001	1	0	0.30000000000000004	0.7	2	2	0.6000000000000001	1.4	valid	0.3999173689990129	53248	0	1	1	53248	1	53248	1	53248	1	0.7	53248	red	blue	0	2	ml	2.7.3	lorasick	sub-15_ses-01_task-ml_proj-lorasick_2021-03-24-14-11-31.529935
65	15	1	2	66	volatile	3	40	26	vs	red	blue	red	blue	left	right	0.7	0.30000000000000004	6	4	4.199999999999998	1.2000000000000002	1	0	0.7	0.30000000000000004	6	4	4.199999999999998	1.2000000000000002	valid	0.3332606250005483	51200	0	0	1	51200	1	51200	1	51200	1	0.7	51200	red	blue	1	6	ml	2.7.3	lorasick	sub-15_ses-01_task-ml_proj-lorasick_2021-03-24-14-11-31.529935
66	15	1	2	67	volatile	3	40	27	vs	red	blue	red	blue	left	right	0.7	0.30000000000000004	4	6	2.8	1.8000000000000005	0	1	0.7	0.30000000000000004	4	6	2.8	1.8000000000000005	invalid	0.43322323400207097	51200	0	0	1	51200	1	51200	1	53248	0	0.7	51200	red	blue	0	0	ml	2.7.3	lorasick	sub-15_ses-01_task-ml_proj-lorasick_2021-03-24-14-11-31.529935
67	15	1	2	68	volatile	3	40	28	vs	red	blue	red	blue	left	right	0.7	0.30000000000000004	4	2	2.8	0.6000000000000001	1	0	0.7	0.30000000000000004	4	2	2.8	0.6000000000000001	valid	0.3999086250005348	51200	0	0	1	51200	1	51200	1	51200	1	0.7	51200	red	blue	1	4	ml	2.7.3	lorasick	sub-15_ses-01_task-ml_proj-lorasick_2021-03-24-14-11-31.529935
68	15	1	2	69	volatile	3	40	29	vs	red	blue	red	blue	left	right	0.7	0.30000000000000004	2	4	1.4	1.2000000000000002	1	0	0.7	0.30000000000000004	2	4	1.4	1.2000000000000002	valid	0.4832158389981487	51200	0	0	1	51200	1	51200	1	53248	0	0.7	51200	red	blue	0	2	ml	2.7.3	lorasick	sub-15_ses-01_task-ml_proj-lorasick_2021-03-24-14-11-31.529935
69	15	1	2	70	volatile	3	40	30	vs	red	blue	red	blue	left	right	0.7	0.30000000000000004	2	10	1.4	3.0000000000000004	1	0	0.7	0.30000000000000004	2	10	1.4	3.0000000000000004	valid	0.6165216760018666	53248	0	1	2	53248	1	51200	0	53248	1	0.7	51200	red	blue	0	0	ml	2.7.3	lorasick	sub-15_ses-01_task-ml_proj-lorasick_2021-03-24-14-11-31.529935
70	15	1	2	71	volatile	3	40	31	vs	blue	red	red	blue	right	left	0.7	0.30000000000000004	4	2	2.8	0.6000000000000001	1	0	0.30000000000000004	0.7	2	4	0.6000000000000001	2.8	valid	0.44990072899963707	53248	0	1	1	53248	1	53248	1	53248	1	0.7	53248	red	blue	1	4	ml	2.7.3	lorasick	sub-15_ses-01_task-ml_proj-lorasick_2021-03-24-14-11-31.529935
71	15	1	2	72	volatile	3	40	32	vs	red	blue	red	blue	left	right	0.7	0.30000000000000004	4	6	2.8	1.8000000000000005	1	0	0.7	0.30000000000000004	4	6	2.8	1.8000000000000005	valid	0.4498910950023856	51200	0	0	1	51200	1	51200	1	53248	0	0.7	51200	red	blue	0	4	ml	2.7.3	lorasick	sub-15_ses-01_task-ml_proj-lorasick_2021-03-24-14-11-31.529935
72	15	1	2	73	volatile	3	40	33	vs	blue	red	red	blue	right	left	0.7	0.30000000000000004	2	10	1.4	3.0000000000000004	1	0	0.30000000000000004	0.7	10	2	3.0000000000000004	1.4	valid	0.7164810610011045	51200	0	0	2	51200	1	53248	0	51200	1	0.7	53248	red	blue	0	0	ml	2.7.3	lorasick	sub-15_ses-01_task-ml_proj-lorasick_2021-03-24-14-11-31.529935
73	15	1	2	74	volatile	3	40	34	vs	red	blue	red	blue	left	right	0.7	0.30000000000000004	2	10	1.4	3.0000000000000004	1	0	0.7	0.30000000000000004	2	10	1.4	3.0000000000000004	valid	0.5332008870027494	51200	0	0	1	53248	0	51200	1	53248	0	0.7	51200	red	blue	0	2	ml	2.7.3	lorasick	sub-15_ses-01_task-ml_proj-lorasick_2021-03-24-14-11-31.529935
74	15	1	2	75	volatile	3	40	35	vs	blue	red	red	blue	right	left	0.7	0.30000000000000004	2	6	1.4	1.8000000000000005	1	0	0.30000000000000004	0.7	6	2	1.8000000000000005	1.4	valid	0.4832343160014716	53248	0	1	1	51200	0	53248	1	51200	0	0.7	53248	red	blue	0	2	ml	2.7.3	lorasick	sub-15_ses-01_task-ml_proj-lorasick_2021-03-24-14-11-31.529935
75	15	1	2	76	volatile	3	40	36	vs	blue	red	red	blue	right	left	0.7	0.30000000000000004	2	10	1.4	3.0000000000000004	1	0	0.30000000000000004	0.7	10	2	3.0000000000000004	1.4	valid	0.5665252309991047	51200	0	0	2	51200	1	53248	0	51200	1	0.7	53248	red	blue	0	0	ml	2.7.3	lorasick	sub-15_ses-01_task-ml_proj-lorasick_2021-03-24-14-11-31.529935
76	15	1	2	77	volatile	3	40	37	vs	red	blue	red	blue	left	right	0.7	0.30000000000000004	2	6	1.4	1.8000000000000005	0	1	0.7	0.30000000000000004	2	6	1.4	1.8000000000000005	invalid	0.4998750990016561	51200	0	0	1	53248	0	51200	1	53248	0	0.7	51200	red	blue	0	0	ml	2.7.3	lorasick	sub-15_ses-01_task-ml_proj-lorasick_2021-03-24-14-11-31.529935
77	15	1	2	78	volatile	3	40	38	vs	red	blue	red	blue	left	right	0.7	0.30000000000000004	2	4	1.4	1.2000000000000002	0	1	0.7	0.30000000000000004	2	4	1.4	1.2000000000000002	invalid	0.3665841619986168	51200	0	0	1	51200	1	51200	1	53248	0	0.7	51200	red	blue	0	0	ml	2.7.3	lorasick	sub-15_ses-01_task-ml_proj-lorasick_2021-03-24-14-11-31.529935
78	15	1	2	79	volatile	3	40	39	vs	blue	red	red	blue	right	left	0.7	0.30000000000000004	2	2	1.4	0.6000000000000001	0	1	0.30000000000000004	0.7	2	2	0.6000000000000001	1.4	invalid	0.6498407459985174	53248	0	1	1	53248	1	53248	1	53248	1	0.7	53248	red	blue	0	0	ml	2.7.3	lorasick	sub-15_ses-01_task-ml_proj-lorasick_2021-03-24-14-11-31.529935
79	15	1	2	80	volatile	3	40	40	vs	blue	red	red	blue	right	left	0.7	0.30000000000000004	6	4	4.199999999999998	1.2000000000000002	1	0	0.30000000000000004	0.7	4	6	1.2000000000000002	4.199999999999998	valid	0.3665772599997581	51200	0	0	2	53248	0	53248	0	53248	0	0.7	53248	red	blue	1	0	ml	2.7.3	lorasick	sub-15_ses-01_task-ml_proj-lorasick_2021-03-24-14-11-31.529935
80	15	1	2	81	volatile	4	20	1	vs	blue	red	red	blue	right	left	0.30000000000000004	0.7	6	4	1.8000000000000005	2.8	0	1	0.7	0.30000000000000004	4	6	2.8	1.8000000000000005	valid	0.3499204190011369	51200	0	0	2	51200	1	51200	1	53248	0	0.7	51200	blue	red	0	4	ml	2.7.3	lorasick	sub-15_ses-01_task-ml_proj-lorasick_2021-03-24-14-11-31.529935
81	15	1	2	82	volatile	4	20	2	vs	blue	red	red	blue	right	left	0.30000000000000004	0.7	6	6	1.8000000000000005	4.199999999999998	1	0	0.7	0.30000000000000004	6	6	4.199999999999998	1.8000000000000005	invalid	0.3165941609986476	51200	0	0	2	51200	1	51200	1	53248	0	0.7	51200	blue	red	1	0	ml	2.7.3	lorasick	sub-15_ses-01_task-ml_proj-lorasick_2021-03-24-14-11-31.529935
82	15	1	2	83	volatile	4	20	3	vs	red	blue	red	blue	left	right	0.30000000000000004	0.7	10	2	3.0000000000000004	1.4	0	1	0.30000000000000004	0.7	10	2	3.0000000000000004	1.4	valid	0.4165789969993057	53248	0	1	2	51200	0	53248	1	51200	0	0.7	53248	blue	red	0	2	ml	2.7.3	lorasick	sub-15_ses-01_task-ml_proj-lorasick_2021-03-24-14-11-31.529935
83	15	1	2	84	volatile	4	20	4	vs	blue	red	red	blue	right	left	0.30000000000000004	0.7	2	6	0.6000000000000001	4.199999999999998	0	1	0.7	0.30000000000000004	6	2	4.199999999999998	0.6000000000000001	valid	0.29993905300216284	51200	0	0	2	51200	1	51200	1	51200	1	0.7	51200	blue	red	1	6	ml	2.7.3	lorasick	sub-15_ses-01_task-ml_proj-lorasick_2021-03-24-14-11-31.529935
84	15	1	2	85	volatile	4	20	5	vs	blue	red	red	blue	right	left	0.30000000000000004	0.7	2	4	0.6000000000000001	2.8	0	1	0.7	0.30000000000000004	4	2	2.8	0.6000000000000001	valid	0.3832465590021457	51200	0	0	2	51200	1	51200	1	51200	1	0.7	51200	blue	red	1	4	ml	2.7.3	lorasick	sub-15_ses-01_task-ml_proj-lorasick_2021-03-24-14-11-31.529935
85	15	1	2	86	volatile	4	20	6	vs	blue	red	red	blue	right	left	0.30000000000000004	0.7	6	2	1.8000000000000005	1.4	0	1	0.7	0.30000000000000004	2	6	1.4	1.8000000000000005	valid	0.26661286799935624	51200	0	0	2	53248	0	51200	1	53248	0	0.7	51200	blue	red	0	2	ml	2.7.3	lorasick	sub-15_ses-01_task-ml_proj-lorasick_2021-03-24-14-11-31.529935
86	15	1	2	87	volatile	4	20	7	vs	blue	red	red	blue	right	left	0.30000000000000004	0.7	6	6	1.8000000000000005	4.199999999999998	1	0	0.7	0.30000000000000004	6	6	4.199999999999998	1.8000000000000005	invalid	0.31659683600082644	51200	0	0	2	51200	1	51200	1	53248	0	0.7	51200	blue	red	1	0	ml	2.7.3	lorasick	sub-15_ses-01_task-ml_proj-lorasick_2021-03-24-14-11-31.529935
87	15	1	2	88	volatile	4	20	8	vs	red	blue	red	blue	left	right	0.30000000000000004	0.7	4	2	1.2000000000000002	1.4	0	1	0.30000000000000004	0.7	4	2	1.2000000000000002	1.4	valid	0.2999475010001333	53248	0	1	2	53248	1	53248	1	51200	0	0.7	53248	blue	red	0	2	ml	2.7.3	lorasick	sub-15_ses-01_task-ml_proj-lorasick_2021-03-24-14-11-31.529935
88	15	1	2	89	volatile	4	20	9	vs	red	blue	red	blue	left	right	0.30000000000000004	0.7	6	4	1.8000000000000005	2.8	0	1	0.30000000000000004	0.7	6	4	1.8000000000000005	2.8	valid	0.3665792630017677	53248	0	1	2	53248	1	53248	1	51200	0	0.7	53248	blue	red	0	4	ml	2.7.3	lorasick	sub-15_ses-01_task-ml_proj-lorasick_2021-03-24-14-11-31.529935
89	15	1	2	90	volatile	4	20	10	vs	red	blue	red	blue	left	right	0.30000000000000004	0.7	2	2	0.6000000000000001	1.4	1	0	0.30000000000000004	0.7	2	2	0.6000000000000001	1.4	invalid	0.333294821997697	53248	0	1	2	53248	1	53248	1	53248	1	0.7	53248	blue	red	0	0	ml	2.7.3	lorasick	sub-15_ses-01_task-ml_proj-lorasick_2021-03-24-14-11-31.529935
90	15	1	2	91	volatile	4	20	11	vs	blue	red	red	blue	right	left	0.30000000000000004	0.7	6	4	1.8000000000000005	2.8	0	1	0.7	0.30000000000000004	4	6	2.8	1.8000000000000005	valid	0.38324681199810573	51200	0	0	2	51200	1	51200	1	53248	0	0.7	51200	blue	red	0	4	ml	2.7.3	lorasick	sub-15_ses-01_task-ml_proj-lorasick_2021-03-24-14-11-31.529935
91	15	1	2	92	volatile	4	20	12	vs	red	blue	red	blue	left	right	0.30000000000000004	0.7	2	6	0.6000000000000001	4.199999999999998	0	1	0.30000000000000004	0.7	2	6	0.6000000000000001	4.199999999999998	valid	0.3499307250021957	53248	0	1	2	53248	1	53248	1	53248	1	0.7	53248	blue	red	1	6	ml	2.7.3	lorasick	sub-15_ses-01_task-ml_proj-lorasick_2021-03-24-14-11-31.529935
92	15	1	2	93	volatile	4	20	13	vs	blue	red	red	blue	right	left	0.30000000000000004	0.7	4	6	1.2000000000000002	4.199999999999998	1	0	0.7	0.30000000000000004	6	4	4.199999999999998	1.2000000000000002	invalid	0.2832727610002621	51200	0	0	2	51200	1	51200	1	51200	1	0.7	51200	blue	red	1	0	ml	2.7.3	lorasick	sub-15_ses-01_task-ml_proj-lorasick_2021-03-24-14-11-31.529935
93	15	1	2	94	volatile	4	20	14	vs	red	blue	red	blue	left	right	0.30000000000000004	0.7	2	10	0.6000000000000001	7.0	0	1	0.30000000000000004	0.7	2	10	0.6000000000000001	7.0	valid	0.3499275860012858	53248	0	1	2	53248	1	53248	1	53248	1	0.7	53248	blue	red	1	10	ml	2.7.3	lorasick	sub-15_ses-01_task-ml_proj-lorasick_2021-03-24-14-11-31.529935
94	15	1	2	95	volatile	4	20	15	vs	red	blue	red	blue	left	right	0.30000000000000004	0.7	2	10	0.6000000000000001	7.0	0	1	0.30000000000000004	0.7	2	10	0.6000000000000001	7.0	valid	0.4998921939986758	53248	0	1	2	53248	1	53248	1	53248	1	0.7	53248	blue	red	1	10	ml	2.7.3	lorasick	sub-15_ses-01_task-ml_proj-lorasick_2021-03-24-14-11-31.529935
95	15	1	2	96	volatile	4	20	16	vs	red	blue	red	blue	left	right	0.30000000000000004	0.7	2	4	0.6000000000000001	2.8	0	1	0.30000000000000004	0.7	2	4	0.6000000000000001	2.8	valid	0.4499044980002509	53248	0	1	2	53248	1	53248	1	53248	1	0.7	53248	blue	red	1	4	ml	2.7.3	lorasick	sub-15_ses-01_task-ml_proj-lorasick_2021-03-24-14-11-31.529935
96	15	1	2	97	volatile	4	20	17	vs	red	blue	red	blue	left	right	0.30000000000000004	0.7	10	2	3.0000000000000004	1.4	1	0	0.30000000000000004	0.7	10	2	3.0000000000000004	1.4	invalid	0.34993305299940397	53248	0	1	2	51200	0	53248	1	51200	0	0.7	53248	blue	red	0	0	ml	2.7.3	lorasick	sub-15_ses-01_task-ml_proj-lorasick_2021-03-24-14-11-31.529935
97	15	1	2	98	volatile	4	20	18	vs	blue	red	red	blue	right	left	0.30000000000000004	0.7	4	2	1.2000000000000002	1.4	0	1	0.7	0.30000000000000004	2	4	1.4	1.2000000000000002	valid	0.3999176750003244	53248	0	1	1	51200	0	51200	0	53248	1	0.7	51200	blue	red	0	0	ml	2.7.3	lorasick	sub-15_ses-01_task-ml_proj-lorasick_2021-03-24-14-11-31.529935
98	15	1	2	99	volatile	4	20	19	vs	red	blue	red	blue	left	right	0.30000000000000004	0.7	2	2	0.6000000000000001	1.4	1	0	0.30000000000000004	0.7	2	2	0.6000000000000001	1.4	invalid	0.5998435999972571	51200	0	0	1	53248	0	53248	0	53248	0	0.7	53248	blue	red	0	2	ml	2.7.3	lorasick	sub-15_ses-01_task-ml_proj-lorasick_2021-03-24-14-11-31.529935
99	15	1	2	100	volatile	4	20	20	vs	blue	red	red	blue	right	left	0.30000000000000004	0.7	2	6	0.6000000000000001	4.199999999999998	0	1	0.7	0.30000000000000004	6	2	4.199999999999998	0.6000000000000001	valid	0.4665630079980474	53248	0	1	1	51200	0	51200	0	51200	0	0.7	51200	blue	red	1	0	ml	2.7.3	lorasick	sub-15_ses-01_task-ml_proj-lorasick_2021-03-24-14-11-31.529935
100	15	1	3	101	volatile	5	40	1	vs	red	blue	red	blue	left	right	0.7	0.30000000000000004	6	4	4.199999999999998	1.2000000000000002	1	0	0.7	0.30000000000000004	6	4	4.199999999999998	1.2000000000000002	valid	0.6331701880008039	51200	0	0	1	51200	1	51200	1	51200	1	0.7	51200	red	blue	1	6	ml	2.7.3	lorasick	sub-15_ses-01_task-ml_proj-lorasick_2021-03-24-14-11-31.529935
101	15	1	3	102	volatile	5	40	2	vs	blue	red	red	blue	right	left	0.7	0.30000000000000004	4	6	2.8	1.8000000000000005	1	0	0.30000000000000004	0.7	6	4	1.8000000000000005	2.8	valid	0.3665933119991678	53248	0	1	1	53248	1	53248	1	51200	0	0.7	53248	red	blue	0	4	ml	2.7.3	lorasick	sub-15_ses-01_task-ml_proj-lorasick_2021-03-24-14-11-31.529935
102	15	1	3	103	volatile	5	40	3	vs	red	blue	red	blue	left	right	0.7	0.30000000000000004	2	10	1.4	3.0000000000000004	1	0	0.7	0.30000000000000004	2	10	1.4	3.0000000000000004	valid	0.2999342199982493	51200	0	0	1	53248	0	51200	1	53248	0	0.7	51200	red	blue	0	2	ml	2.7.3	lorasick	sub-15_ses-01_task-ml_proj-lorasick_2021-03-24-14-11-31.529935
103	15	1	3	104	volatile	5	40	4	vs	red	blue	red	blue	left	right	0.7	0.30000000000000004	2	4	1.4	1.2000000000000002	1	0	0.7	0.30000000000000004	2	4	1.4	1.2000000000000002	valid	0.4165685549996852	51200	0	0	1	51200	1	51200	1	53248	0	0.7	51200	red	blue	0	2	ml	2.7.3	lorasick	sub-15_ses-01_task-ml_proj-lorasick_2021-03-24-14-11-31.529935
104	15	1	3	105	volatile	5	40	5	vs	blue	red	red	blue	right	left	0.7	0.30000000000000004	6	6	4.199999999999998	1.8000000000000005	0	1	0.30000000000000004	0.7	6	6	1.8000000000000005	4.199999999999998	invalid	0.3499306510020688	53248	0	1	1	53248	1	53248	1	53248	1	0.7	53248	red	blue	0	0	ml	2.7.3	lorasick	sub-15_ses-01_task-ml_proj-lorasick_2021-03-24-14-11-31.529935
105	15	1	3	106	volatile	5	40	6	vs	blue	red	red	blue	right	left	0.7	0.30000000000000004	4	2	2.8	0.6000000000000001	1	0	0.30000000000000004	0.7	2	4	0.6000000000000001	2.8	valid	0.3499331630009692	53248	0	1	1	53248	1	53248	1	53248	1	0.7	53248	red	blue	1	4	ml	2.7.3	lorasick	sub-15_ses-01_task-ml_proj-lorasick_2021-03-24-14-11-31.529935
106	15	1	3	107	volatile	5	40	7	vs	blue	red	red	blue	right	left	0.7	0.30000000000000004	6	6	4.199999999999998	1.8000000000000005	1	0	0.30000000000000004	0.7	6	6	1.8000000000000005	4.199999999999998	valid	0.2666241430015361	53248	0	1	1	53248	1	53248	1	53248	1	0.7	53248	red	blue	0	6	ml	2.7.3	lorasick	sub-15_ses-01_task-ml_proj-lorasick_2021-03-24-14-11-31.529935
107	15	1	3	108	volatile	5	40	8	vs	red	blue	red	blue	left	right	0.7	0.30000000000000004	6	2	4.199999999999998	0.6000000000000001	1	0	0.7	0.30000000000000004	6	2	4.199999999999998	0.6000000000000001	valid	0.3332515779984533	51200	0	0	1	51200	1	51200	1	51200	1	0.7	51200	red	blue	1	6	ml	2.7.3	lorasick	sub-15_ses-01_task-ml_proj-lorasick_2021-03-24-14-11-31.529935
108	15	1	3	109	volatile	5	40	9	vs	blue	red	red	blue	right	left	0.7	0.30000000000000004	4	2	2.8	0.6000000000000001	1	0	0.30000000000000004	0.7	2	4	0.6000000000000001	2.8	valid	0.2999472789997526	53248	0	1	1	53248	1	53248	1	53248	1	0.7	53248	red	blue	1	4	ml	2.7.3	lorasick	sub-15_ses-01_task-ml_proj-lorasick_2021-03-24-14-11-31.529935
109	15	1	3	110	volatile	5	40	10	vs	red	blue	red	blue	left	right	0.7	0.30000000000000004	4	6	2.8	1.8000000000000005	0	1	0.7	0.30000000000000004	4	6	2.8	1.8000000000000005	invalid	0.2999346500000684	51200	0	0	1	51200	1	51200	1	53248	0	0.7	51200	red	blue	0	0	ml	2.7.3	lorasick	sub-15_ses-01_task-ml_proj-lorasick_2021-03-24-14-11-31.529935
110	15	1	3	111	volatile	5	40	11	vs	red	blue	red	blue	left	right	0.7	0.30000000000000004	2	2	1.4	0.6000000000000001	1	0	0.7	0.30000000000000004	2	2	1.4	0.6000000000000001	valid	0.4332334169994283	51200	0	0	1	51200	1	51200	1	53248	0	0.7	51200	red	blue	1	2	ml	2.7.3	lorasick	sub-15_ses-01_task-ml_proj-lorasick_2021-03-24-14-11-31.529935
111	15	1	3	112	volatile	5	40	12	vs	red	blue	red	blue	left	right	0.7	0.30000000000000004	6	4	4.199999999999998	1.2000000000000002	0	1	0.7	0.30000000000000004	6	4	4.199999999999998	1.2000000000000002	invalid	0.3165981199999805	51200	0	0	1	51200	1	51200	1	51200	1	0.7	51200	red	blue	1	0	ml	2.7.3	lorasick	sub-15_ses-01_task-ml_proj-lorasick_2021-03-24-14-11-31.529935
112	15	1	3	113	volatile	5	40	13	vs	blue	red	red	blue	right	left	0.7	0.30000000000000004	6	2	4.199999999999998	0.6000000000000001	1	0	0.30000000000000004	0.7	2	6	0.6000000000000001	4.199999999999998	valid	0.3499332770006731	53248	0	1	1	53248	1	53248	1	53248	1	0.7	53248	red	blue	1	6	ml	2.7.3	lorasick	sub-15_ses-01_task-ml_proj-lorasick_2021-03-24-14-11-31.529935
113	15	1	3	114	volatile	5	40	14	vs	red	blue	red	blue	left	right	0.7	0.30000000000000004	6	2	4.199999999999998	0.6000000000000001	1	0	0.7	0.30000000000000004	6	2	4.199999999999998	0.6000000000000001	valid	0.3332576030006749	51200	0	0	1	51200	1	51200	1	51200	1	0.7	51200	red	blue	1	6	ml	2.7.3	lorasick	sub-15_ses-01_task-ml_proj-lorasick_2021-03-24-14-11-31.529935
114	15	1	3	115	volatile	5	40	15	vs	blue	red	red	blue	right	left	0.7	0.30000000000000004	2	6	1.4	1.8000000000000005	1	0	0.30000000000000004	0.7	6	2	1.8000000000000005	1.4	valid	0.29994977499882225	53248	0	1	1	51200	0	53248	1	51200	0	0.7	53248	red	blue	0	2	ml	2.7.3	lorasick	sub-15_ses-01_task-ml_proj-lorasick_2021-03-24-14-11-31.529935
115	15	1	3	116	volatile	5	40	16	vs	blue	red	red	blue	right	left	0.7	0.30000000000000004	6	4	4.199999999999998	1.2000000000000002	1	0	0.30000000000000004	0.7	4	6	1.2000000000000002	4.199999999999998	valid	0.3499319020011171	53248	0	1	1	53248	1	53248	1	53248	1	0.7	53248	red	blue	1	6	ml	2.7.3	lorasick	sub-15_ses-01_task-ml_proj-lorasick_2021-03-24-14-11-31.529935
116	15	1	3	117	volatile	5	40	17	vs	blue	red	red	blue	right	left	0.7	0.30000000000000004	2	6	1.4	1.8000000000000005	0	1	0.30000000000000004	0.7	6	2	1.8000000000000005	1.4	invalid	0.3332687559995975	53248	0	1	1	51200	0	53248	1	51200	0	0.7	53248	red	blue	0	0	ml	2.7.3	lorasick	sub-15_ses-01_task-ml_proj-lorasick_2021-03-24-14-11-31.529935
117	15	1	3	118	volatile	5	40	18	vs	blue	red	red	blue	right	left	0.7	0.30000000000000004	2	4	1.4	1.2000000000000002	1	0	0.30000000000000004	0.7	4	2	1.2000000000000002	1.4	valid	0.2999408920004498	53248	0	1	1	53248	1	53248	1	51200	0	0.7	53248	red	blue	0	2	ml	2.7.3	lorasick	sub-15_ses-01_task-ml_proj-lorasick_2021-03-24-14-11-31.529935
118	15	1	3	119	volatile	5	40	19	vs	red	blue	red	blue	left	right	0.7	0.30000000000000004	4	2	2.8	0.6000000000000001	1	0	0.7	0.30000000000000004	4	2	2.8	0.6000000000000001	valid	0.3499235260023852	51200	0	0	1	51200	1	51200	1	51200	1	0.7	51200	red	blue	1	4	ml	2.7.3	lorasick	sub-15_ses-01_task-ml_proj-lorasick_2021-03-24-14-11-31.529935
119	15	1	3	120	volatile	5	40	20	vs	blue	red	red	blue	right	left	0.7	0.30000000000000004	2	2	1.4	0.6000000000000001	1	0	0.30000000000000004	0.7	2	2	0.6000000000000001	1.4	valid	0.3832551369996509	53248	0	1	1	53248	1	53248	1	53248	1	0.7	53248	red	blue	0	2	ml	2.7.3	lorasick	sub-15_ses-01_task-ml_proj-lorasick_2021-03-24-14-11-31.529935
120	15	1	3	121	volatile	5	40	21	vs	red	blue	red	blue	left	right	0.7	0.30000000000000004	10	2	7.0	0.6000000000000001	1	0	0.7	0.30000000000000004	10	2	7.0	0.6000000000000001	valid	0.2999370100005763	51200	0	0	1	51200	1	51200	1	51200	1	0.7	51200	red	blue	1	10	ml	2.7.3	lorasick	sub-15_ses-01_task-ml_proj-lorasick_2021-03-24-14-11-31.529935
121	15	1	3	122	volatile	5	40	22	vs	red	blue	red	blue	left	right	0.7	0.30000000000000004	2	6	1.4	1.8000000000000005	1	0	0.7	0.30000000000000004	2	6	1.4	1.8000000000000005	valid	0.5165403879982478	51200	0	0	1	53248	0	51200	1	53248	0	0.7	51200	red	blue	0	2	ml	2.7.3	lorasick	sub-15_ses-01_task-ml_proj-lorasick_2021-03-24-14-11-31.529935
122	15	1	3	123	volatile	5	40	23	vs	blue	red	red	blue	right	left	0.7	0.30000000000000004	6	6	4.199999999999998	1.8000000000000005	0	1	0.30000000000000004	0.7	6	6	1.8000000000000005	4.199999999999998	invalid	0.3665914780031017	53248	0	1	1	53248	1	53248	1	53248	1	0.7	53248	red	blue	0	0	ml	2.7.3	lorasick	sub-15_ses-01_task-ml_proj-lorasick_2021-03-24-14-11-31.529935
123	15	1	3	124	volatile	5	40	24	vs	blue	red	red	blue	right	left	0.7	0.30000000000000004	2	2	1.4	0.6000000000000001	1	0	0.30000000000000004	0.7	2	2	0.6000000000000001	1.4	valid	0.29994708899903344	53248	0	1	1	53248	1	53248	1	53248	1	0.7	53248	red	blue	0	2	ml	2.7.3	lorasick	sub-15_ses-01_task-ml_proj-lorasick_2021-03-24-14-11-31.529935
124	15	1	3	125	volatile	5	40	25	vs	red	blue	red	blue	left	right	0.7	0.30000000000000004	6	4	4.199999999999998	1.2000000000000002	1	0	0.7	0.30000000000000004	6	4	4.199999999999998	1.2000000000000002	valid	0.34992027500265976	51200	0	0	1	51200	1	51200	1	51200	1	0.7	51200	red	blue	1	6	ml	2.7.3	lorasick	sub-15_ses-01_task-ml_proj-lorasick_2021-03-24-14-11-31.529935
125	15	1	3	126	volatile	5	40	26	vs	red	blue	red	blue	left	right	0.7	0.30000000000000004	4	2	2.8	0.6000000000000001	0	1	0.7	0.30000000000000004	4	2	2.8	0.6000000000000001	invalid	0.3165989279987116	51200	0	0	1	51200	1	51200	1	51200	1	0.7	51200	red	blue	1	0	ml	2.7.3	lorasick	sub-15_ses-01_task-ml_proj-lorasick_2021-03-24-14-11-31.529935
126	15	1	3	127	volatile	5	40	27	vs	blue	red	red	blue	right	left	0.7	0.30000000000000004	6	6	4.199999999999998	1.8000000000000005	1	0	0.30000000000000004	0.7	6	6	1.8000000000000005	4.199999999999998	valid	0.3999178939993726	53248	0	1	1	53248	1	53248	1	53248	1	0.7	53248	red	blue	0	6	ml	2.7.3	lorasick	sub-15_ses-01_task-ml_proj-lorasick_2021-03-24-14-11-31.529935
127	15	1	3	128	volatile	5	40	28	vs	red	blue	red	blue	left	right	0.7	0.30000000000000004	2	10	1.4	3.0000000000000004	0	1	0.7	0.30000000000000004	2	10	1.4	3.0000000000000004	invalid	0.34992161199988914	51200	0	0	1	53248	0	51200	1	53248	0	0.7	51200	red	blue	0	0	ml	2.7.3	lorasick	sub-15_ses-01_task-ml_proj-lorasick_2021-03-24-14-11-31.529935
128	15	1	3	129	volatile	5	40	29	vs	blue	red	red	blue	right	left	0.7	0.30000000000000004	2	10	1.4	3.0000000000000004	1	0	0.30000000000000004	0.7	10	2	3.0000000000000004	1.4	valid	0.5165364329986915	51200	0	0	2	51200	1	53248	0	51200	1	0.7	53248	red	blue	0	0	ml	2.7.3	lorasick	sub-15_ses-01_task-ml_proj-lorasick_2021-03-24-14-11-31.529935
129	15	1	3	130	volatile	5	40	30	vs	red	blue	red	blue	left	right	0.7	0.30000000000000004	4	6	2.8	1.8000000000000005	1	0	0.7	0.30000000000000004	4	6	2.8	1.8000000000000005	valid	0.7497998210019432	51200	0	0	1	51200	1	51200	1	53248	0	0.7	51200	red	blue	0	4	ml	2.7.3	lorasick	sub-15_ses-01_task-ml_proj-lorasick_2021-03-24-14-11-31.529935
130	15	1	3	131	volatile	5	40	31	vs	blue	red	red	blue	right	left	0.7	0.30000000000000004	6	4	4.199999999999998	1.2000000000000002	0	1	0.30000000000000004	0.7	4	6	1.2000000000000002	4.199999999999998	invalid	0.4665639500017278	53248	0	1	1	53248	1	53248	1	53248	1	0.7	53248	red	blue	1	0	ml	2.7.3	lorasick	sub-15_ses-01_task-ml_proj-lorasick_2021-03-24-14-11-31.529935
131	15	1	3	132	volatile	5	40	32	vs	blue	red	red	blue	right	left	0.7	0.30000000000000004	6	2	4.199999999999998	0.6000000000000001	0	1	0.30000000000000004	0.7	2	6	0.6000000000000001	4.199999999999998	invalid	0.6331773229976534	53248	0	1	1	53248	1	53248	1	53248	1	0.7	53248	red	blue	1	0	ml	2.7.3	lorasick	sub-15_ses-01_task-ml_proj-lorasick_2021-03-24-14-11-31.529935
132	15	1	3	133	volatile	5	40	33	vs	red	blue	red	blue	left	right	0.7	0.30000000000000004	2	10	1.4	3.0000000000000004	1	0	0.7	0.30000000000000004	2	10	1.4	3.0000000000000004	valid	0.4665449089989124	51200	0	0	1	53248	0	51200	1	53248	0	0.7	51200	red	blue	0	2	ml	2.7.3	lorasick	sub-15_ses-01_task-ml_proj-lorasick_2021-03-24-14-11-31.529935
133	15	1	3	134	volatile	5	40	34	vs	red	blue	red	blue	left	right	0.7	0.30000000000000004	4	2	2.8	0.6000000000000001	1	0	0.7	0.30000000000000004	4	2	2.8	0.6000000000000001	valid	0.5831755569997767	51200	0	0	1	51200	1	51200	1	51200	1	0.7	51200	red	blue	1	4	ml	2.7.3	lorasick	sub-15_ses-01_task-ml_proj-lorasick_2021-03-24-14-11-31.529935
134	15	1	3	135	volatile	5	40	35	vs	red	blue	red	blue	left	right	0.7	0.30000000000000004	2	10	1.4	3.0000000000000004	0	1	0.7	0.30000000000000004	2	10	1.4	3.0000000000000004	invalid	0.5165606039990962	51200	0	0	1	53248	0	51200	1	53248	0	0.7	51200	red	blue	0	0	ml	2.7.3	lorasick	sub-15_ses-01_task-ml_proj-lorasick_2021-03-24-14-11-31.529935
135	15	1	3	136	volatile	5	40	36	vs	blue	red	red	blue	right	left	0.7	0.30000000000000004	4	2	2.8	0.6000000000000001	1	0	0.30000000000000004	0.7	2	4	0.6000000000000001	2.8	valid	0.516539467000257	51200	0	0	2	53248	0	53248	0	53248	0	0.7	53248	red	blue	1	0	ml	2.7.3	lorasick	sub-15_ses-01_task-ml_proj-lorasick_2021-03-24-14-11-31.529935
136	15	1	3	137	volatile	5	40	37	vs	blue	red	red	blue	right	left	0.7	0.30000000000000004	6	2	4.199999999999998	0.6000000000000001	0	1	0.30000000000000004	0.7	2	6	0.6000000000000001	4.199999999999998	invalid	0.56653234300029	53248	0	1	1	53248	1	53248	1	53248	1	0.7	53248	red	blue	1	0	ml	2.7.3	lorasick	sub-15_ses-01_task-ml_proj-lorasick_2021-03-24-14-11-31.529935
137	15	1	3	138	volatile	5	40	38	vs	blue	red	red	blue	right	left	0.7	0.30000000000000004	2	2	1.4	0.6000000000000001	1	0	0.30000000000000004	0.7	2	2	0.6000000000000001	1.4	valid	0.5332094660006987	53248	0	1	1	53248	1	53248	1	53248	1	0.7	53248	red	blue	0	2	ml	2.7.3	lorasick	sub-15_ses-01_task-ml_proj-lorasick_2021-03-24-14-11-31.529935
138	15	1	3	139	volatile	5	40	39	vs	red	blue	red	blue	left	right	0.7	0.30000000000000004	10	2	7.0	0.6000000000000001	0	1	0.7	0.30000000000000004	10	2	7.0	0.6000000000000001	invalid	0.4165724769991357	51200	0	0	1	51200	1	51200	1	51200	1	0.7	51200	red	blue	1	0	ml	2.7.3	lorasick	sub-15_ses-01_task-ml_proj-lorasick_2021-03-24-14-11-31.529935
139	15	1	3	140	volatile	5	40	40	vs	red	blue	red	blue	left	right	0.7	0.30000000000000004	10	2	7.0	0.6000000000000001	1	0	0.7	0.30000000000000004	10	2	7.0	0.6000000000000001	valid	0.5998508310003672	51200	0	0	1	51200	1	51200	1	51200	1	0.7	51200	red	blue	1	10	ml	2.7.3	lorasick	sub-15_ses-01_task-ml_proj-lorasick_2021-03-24-14-11-31.529935
140	15	1	3	141	volatile	6	40	1	vs	blue	red	red	blue	right	left	0.30000000000000004	0.7	4	6	1.2000000000000002	4.199999999999998	1	0	0.7	0.30000000000000004	6	4	4.199999999999998	1.2000000000000002	invalid	0.5165570190001745	53248	0	1	1	51200	0	51200	0	51200	0	0.7	51200	blue	red	1	4	ml	2.7.3	lorasick	sub-15_ses-01_task-ml_proj-lorasick_2021-03-24-14-11-31.529935
141	15	1	3	142	volatile	6	40	2	vs	blue	red	red	blue	right	left	0.30000000000000004	0.7	4	2	1.2000000000000002	1.4	1	0	0.7	0.30000000000000004	2	4	1.4	1.2000000000000002	invalid	0.5165412120004476	53248	0	1	1	51200	0	51200	0	53248	1	0.7	51200	blue	red	0	4	ml	2.7.3	lorasick	sub-15_ses-01_task-ml_proj-lorasick_2021-03-24-14-11-31.529935
142	15	1	3	143	volatile	6	40	3	vs	red	blue	red	blue	left	right	0.30000000000000004	0.7	2	10	0.6000000000000001	7.0	0	1	0.30000000000000004	0.7	2	10	0.6000000000000001	7.0	valid	0.3332564240008651	51200	0	0	1	53248	0	53248	0	53248	0	0.7	53248	blue	red	1	0	ml	2.7.3	lorasick	sub-15_ses-01_task-ml_proj-lorasick_2021-03-24-14-11-31.529935
143	15	1	3	144	volatile	6	40	4	vs	red	blue	red	blue	left	right	0.30000000000000004	0.7	4	6	1.2000000000000002	4.199999999999998	0	1	0.30000000000000004	0.7	4	6	1.2000000000000002	4.199999999999998	valid	0.433238863999577	53248	0	1	2	53248	1	53248	1	53248	1	0.7	53248	blue	red	1	6	ml	2.7.3	lorasick	sub-15_ses-01_task-ml_proj-lorasick_2021-03-24-14-11-31.529935
144	15	1	3	145	volatile	6	40	5	vs	red	blue	red	blue	left	right	0.30000000000000004	0.7	6	4	1.8000000000000005	2.8	1	0	0.30000000000000004	0.7	6	4	1.8000000000000005	2.8	invalid	0.3166074850014411	53248	0	1	2	53248	1	53248	1	51200	0	0.7	53248	blue	red	0	0	ml	2.7.3	lorasick	sub-15_ses-01_task-ml_proj-lorasick_2021-03-24-14-11-31.529935
145	15	1	3	146	volatile	6	40	6	vs	blue	red	red	blue	right	left	0.30000000000000004	0.7	2	2	0.6000000000000001	1.4	0	1	0.7	0.30000000000000004	2	2	1.4	0.6000000000000001	valid	0.5665214529981313	51200	0	0	2	51200	1	51200	1	53248	0	0.7	51200	blue	red	1	2	ml	2.7.3	lorasick	sub-15_ses-01_task-ml_proj-lorasick_2021-03-24-14-11-31.529935
146	15	1	3	147	volatile	6	40	7	vs	red	blue	red	blue	left	right	0.30000000000000004	0.7	10	2	3.0000000000000004	1.4	1	0	0.30000000000000004	0.7	10	2	3.0000000000000004	1.4	invalid	0.4332353329991747	53248	0	1	2	51200	0	53248	1	51200	0	0.7	53248	blue	red	0	0	ml	2.7.3	lorasick	sub-15_ses-01_task-ml_proj-lorasick_2021-03-24-14-11-31.529935
147	15	1	3	148	volatile	6	40	8	vs	blue	red	red	blue	right	left	0.30000000000000004	0.7	2	4	0.6000000000000001	2.8	0	1	0.7	0.30000000000000004	4	2	2.8	0.6000000000000001	valid	0.5831855020005605	51200	0	0	2	51200	1	51200	1	51200	1	0.7	51200	blue	red	1	4	ml	2.7.3	lorasick	sub-15_ses-01_task-ml_proj-lorasick_2021-03-24-14-11-31.529935
148	15	1	3	149	volatile	6	40	9	vs	red	blue	red	blue	left	right	0.30000000000000004	0.7	4	6	1.2000000000000002	4.199999999999998	0	1	0.30000000000000004	0.7	4	6	1.2000000000000002	4.199999999999998	valid	0.3832548339996721	53248	0	1	2	53248	1	53248	1	53248	1	0.7	53248	blue	red	1	6	ml	2.7.3	lorasick	sub-15_ses-01_task-ml_proj-lorasick_2021-03-24-14-11-31.529935
149	15	1	3	150	volatile	6	40	10	vs	red	blue	red	blue	left	right	0.30000000000000004	0.7	6	4	1.8000000000000005	2.8	1	0	0.30000000000000004	0.7	6	4	1.8000000000000005	2.8	invalid	0.4998886339999444	53248	0	1	2	53248	1	53248	1	51200	0	0.7	53248	blue	red	0	0	ml	2.7.3	lorasick	sub-15_ses-01_task-ml_proj-lorasick_2021-03-24-14-11-31.529935
150	15	1	4	151	volatile	6	40	11	vs	red	blue	red	blue	left	right	0.30000000000000004	0.7	2	10	0.6000000000000001	7.0	0	1	0.30000000000000004	0.7	2	10	0.6000000000000001	7.0	valid	0.6831682229967555	53248	0	1	2	53248	1	53248	1	53248	1	0.7	53248	blue	red	1	10	ml	2.7.3	lorasick	sub-15_ses-01_task-ml_proj-lorasick_2021-03-24-14-11-31.529935
151	15	1	4	152	volatile	6	40	12	vs	blue	red	red	blue	right	left	0.30000000000000004	0.7	6	2	1.8000000000000005	1.4	0	1	0.7	0.30000000000000004	2	6	1.4	1.8000000000000005	valid	0.5665345019988308	53248	0	1	1	53248	1	51200	0	53248	1	0.7	51200	blue	red	0	0	ml	2.7.3	lorasick	sub-15_ses-01_task-ml_proj-lorasick_2021-03-24-14-11-31.529935
152	15	1	4	153	volatile	6	40	13	vs	red	blue	red	blue	left	right	0.30000000000000004	0.7	10	2	3.0000000000000004	1.4	0	1	0.30000000000000004	0.7	10	2	3.0000000000000004	1.4	valid	1.3496291559968083	53248	0	1	2	51200	0	53248	1	51200	0	0.7	53248	blue	red	0	2	ml	2.7.3	lorasick	sub-15_ses-01_task-ml_proj-lorasick_2021-03-24-14-11-31.529935
153	15	1	4	154	volatile	6	40	14	vs	blue	red	red	blue	right	left	0.30000000000000004	0.7	2	10	0.6000000000000001	7.0	1	0	0.7	0.30000000000000004	10	2	7.0	0.6000000000000001	invalid	0.39990709500125377	51200	0	0	2	51200	1	51200	1	51200	1	0.7	51200	blue	red	1	0	ml	2.7.3	lorasick	sub-15_ses-01_task-ml_proj-lorasick_2021-03-24-14-11-31.529935
154	15	1	4	155	volatile	6	40	15	vs	red	blue	red	blue	left	right	0.30000000000000004	0.7	4	2	1.2000000000000002	1.4	0	1	0.30000000000000004	0.7	4	2	1.2000000000000002	1.4	valid	0.5331991179991746	51200	0	0	1	53248	0	53248	0	51200	1	0.7	53248	blue	red	0	0	ml	2.7.3	lorasick	sub-15_ses-01_task-ml_proj-lorasick_2021-03-24-14-11-31.529935
155	15	1	4	156	volatile	6	40	16	vs	red	blue	red	blue	left	right	0.30000000000000004	0.7	4	2	1.2000000000000002	1.4	0	1	0.30000000000000004	0.7	4	2	1.2000000000000002	1.4	valid	0.34993542000302114	53248	0	1	2	53248	1	53248	1	51200	0	0.7	53248	blue	red	0	2	ml	2.7.3	lorasick	sub-15_ses-01_task-ml_proj-lorasick_2021-03-24-14-11-31.529935
156	15	1	4	157	volatile	6	40	17	vs	blue	red	red	blue	right	left	0.30000000000000004	0.7	2	6	0.6000000000000001	4.199999999999998	0	1	0.7	0.30000000000000004	6	2	4.199999999999998	0.6000000000000001	valid	0.4832118169979367	51200	0	0	2	51200	1	51200	1	51200	1	0.7	51200	blue	red	1	6	ml	2.7.3	lorasick	sub-15_ses-01_task-ml_proj-lorasick_2021-03-24-14-11-31.529935
157	15	1	4	158	volatile	6	40	18	vs	blue	red	red	blue	right	left	0.30000000000000004	0.7	2	2	0.6000000000000001	1.4	0	1	0.7	0.30000000000000004	2	2	1.4	0.6000000000000001	valid	0.43322731999796815	51200	0	0	2	51200	1	51200	1	53248	0	0.7	51200	blue	red	1	2	ml	2.7.3	lorasick	sub-15_ses-01_task-ml_proj-lorasick_2021-03-24-14-11-31.529935
158	15	1	4	159	volatile	6	40	19	vs	red	blue	red	blue	left	right	0.30000000000000004	0.7	2	6	0.6000000000000001	4.199999999999998	0	1	0.30000000000000004	0.7	2	6	0.6000000000000001	4.199999999999998	valid	0.5498713800006954	53248	0	1	2	53248	1	53248	1	53248	1	0.7	53248	blue	red	1	6	ml	2.7.3	lorasick	sub-15_ses-01_task-ml_proj-lorasick_2021-03-24-14-11-31.529935
159	15	1	4	160	volatile	6	40	20	vs	blue	red	red	blue	right	left	0.30000000000000004	0.7	6	6	1.8000000000000005	4.199999999999998	1	0	0.7	0.30000000000000004	6	6	4.199999999999998	1.8000000000000005	invalid	0.499878359001741	51200	0	0	2	51200	1	51200	1	53248	0	0.7	51200	blue	red	1	0	ml	2.7.3	lorasick	sub-15_ses-01_task-ml_proj-lorasick_2021-03-24-14-11-31.529935
160	15	1	4	161	volatile	6	40	21	vs	red	blue	red	blue	left	right	0.30000000000000004	0.7	6	2	1.8000000000000005	1.4	0	1	0.30000000000000004	0.7	6	2	1.8000000000000005	1.4	valid	0.4498998359995312	53248	0	1	2	51200	0	53248	1	51200	0	0.7	53248	blue	red	0	2	ml	2.7.3	lorasick	sub-15_ses-01_task-ml_proj-lorasick_2021-03-24-14-11-31.529935
161	15	1	4	162	volatile	6	40	22	vs	blue	red	red	blue	right	left	0.30000000000000004	0.7	2	6	0.6000000000000001	4.199999999999998	0	1	0.7	0.30000000000000004	6	2	4.199999999999998	0.6000000000000001	valid	0.43322392600020976	51200	0	0	2	51200	1	51200	1	51200	1	0.7	51200	blue	red	1	6	ml	2.7.3	lorasick	sub-15_ses-01_task-ml_proj-lorasick_2021-03-24-14-11-31.529935
162	15	1	4	163	volatile	6	40	23	vs	blue	red	red	blue	right	left	0.30000000000000004	0.7	4	2	1.2000000000000002	1.4	0	1	0.7	0.30000000000000004	2	4	1.4	1.2000000000000002	valid	0.6498324799977127	51200	0	0	2	51200	1	51200	1	53248	0	0.7	51200	blue	red	0	2	ml	2.7.3	lorasick	sub-15_ses-01_task-ml_proj-lorasick_2021-03-24-14-11-31.529935
163	15	1	4	164	volatile	6	40	24	vs	red	blue	red	blue	left	right	0.30000000000000004	0.7	2	10	0.6000000000000001	7.0	1	0	0.30000000000000004	0.7	2	10	0.6000000000000001	7.0	invalid	0.4832252759988478	53248	0	1	2	53248	1	53248	1	53248	1	0.7	53248	blue	red	1	0	ml	2.7.3	lorasick	sub-15_ses-01_task-ml_proj-lorasick_2021-03-24-14-11-31.529935
164	15	1	4	165	volatile	6	40	25	vs	blue	red	red	blue	right	left	0.30000000000000004	0.7	6	2	1.8000000000000005	1.4	0	1	0.7	0.30000000000000004	2	6	1.4	1.8000000000000005	valid	0.4665541299982578	51200	0	0	2	53248	0	51200	1	53248	0	0.7	51200	blue	red	0	2	ml	2.7.3	lorasick	sub-15_ses-01_task-ml_proj-lorasick_2021-03-24-14-11-31.529935
165	15	1	4	166	volatile	6	40	26	vs	blue	red	red	blue	right	left	0.30000000000000004	0.7	6	2	1.8000000000000005	1.4	0	1	0.7	0.30000000000000004	2	6	1.4	1.8000000000000005	valid	0.44989071800227975	51200	0	0	2	53248	0	51200	1	53248	0	0.7	51200	blue	red	0	2	ml	2.7.3	lorasick	sub-15_ses-01_task-ml_proj-lorasick_2021-03-24-14-11-31.529935
166	15	1	4	167	volatile	6	40	27	vs	red	blue	red	blue	left	right	0.30000000000000004	0.7	2	2	0.6000000000000001	1.4	0	1	0.30000000000000004	0.7	2	2	0.6000000000000001	1.4	valid	0.4832194879963936	53248	0	1	2	53248	1	53248	1	53248	1	0.7	53248	blue	red	0	2	ml	2.7.3	lorasick	sub-15_ses-01_task-ml_proj-lorasick_2021-03-24-14-11-31.529935
167	15	1	4	168	volatile	6	40	28	vs	red	blue	red	blue	left	right	0.30000000000000004	0.7	2	10	0.6000000000000001	7.0	0	1	0.30000000000000004	0.7	2	10	0.6000000000000001	7.0	valid	0.31660890999773983	53248	0	1	2	53248	1	53248	1	53248	1	0.7	53248	blue	red	1	10	ml	2.7.3	lorasick	sub-15_ses-01_task-ml_proj-lorasick_2021-03-24-14-11-31.529935
168	15	1	4	169	volatile	6	40	29	vs	blue	red	red	blue	right	left	0.30000000000000004	0.7	6	6	1.8000000000000005	4.199999999999998	0	1	0.7	0.30000000000000004	6	6	4.199999999999998	1.8000000000000005	valid	0.3832460190023994	51200	0	0	2	51200	1	51200	1	53248	0	0.7	51200	blue	red	1	6	ml	2.7.3	lorasick	sub-15_ses-01_task-ml_proj-lorasick_2021-03-24-14-11-31.529935
169	15	1	4	170	volatile	6	40	30	vs	red	blue	red	blue	left	right	0.30000000000000004	0.7	10	2	3.0000000000000004	1.4	0	1	0.30000000000000004	0.7	10	2	3.0000000000000004	1.4	valid	0.3499332850005885	53248	0	1	2	51200	0	53248	1	51200	0	0.7	53248	blue	red	0	2	ml	2.7.3	lorasick	sub-15_ses-01_task-ml_proj-lorasick_2021-03-24-14-11-31.529935
170	15	1	4	171	volatile	6	40	31	vs	blue	red	red	blue	right	left	0.30000000000000004	0.7	4	2	1.2000000000000002	1.4	1	0	0.7	0.30000000000000004	2	4	1.4	1.2000000000000002	invalid	0.3332567030010978	51200	0	0	2	51200	1	51200	1	53248	0	0.7	51200	blue	red	0	0	ml	2.7.3	lorasick	sub-15_ses-01_task-ml_proj-lorasick_2021-03-24-14-11-31.529935
171	15	1	4	172	volatile	6	40	32	vs	blue	red	red	blue	right	left	0.30000000000000004	0.7	6	6	1.8000000000000005	4.199999999999998	0	1	0.7	0.30000000000000004	6	6	4.199999999999998	1.8000000000000005	valid	0.3165966689994093	51200	0	0	2	51200	1	51200	1	53248	0	0.7	51200	blue	red	1	6	ml	2.7.3	lorasick	sub-15_ses-01_task-ml_proj-lorasick_2021-03-24-14-11-31.529935
172	15	1	4	173	volatile	6	40	33	vs	blue	red	red	blue	right	left	0.30000000000000004	0.7	4	6	1.2000000000000002	4.199999999999998	1	0	0.7	0.30000000000000004	6	4	4.199999999999998	1.2000000000000002	invalid	0.2999373200000264	51200	0	0	2	51200	1	51200	1	51200	1	0.7	51200	blue	red	1	0	ml	2.7.3	lorasick	sub-15_ses-01_task-ml_proj-lorasick_2021-03-24-14-11-31.529935
173	15	1	4	174	volatile	6	40	34	vs	blue	red	red	blue	right	left	0.30000000000000004	0.7	4	2	1.2000000000000002	1.4	0	1	0.7	0.30000000000000004	2	4	1.4	1.2000000000000002	valid	0.3165976329983096	51200	0	0	2	51200	1	51200	1	53248	0	0.7	51200	blue	red	0	2	ml	2.7.3	lorasick	sub-15_ses-01_task-ml_proj-lorasick_2021-03-24-14-11-31.529935
174	15	1	4	175	volatile	6	40	35	vs	blue	red	red	blue	right	left	0.30000000000000004	0.7	2	4	0.6000000000000001	2.8	0	1	0.7	0.30000000000000004	4	2	2.8	0.6000000000000001	valid	0.2999378390013589	51200	0	0	2	51200	1	51200	1	51200	1	0.7	51200	blue	red	1	4	ml	2.7.3	lorasick	sub-15_ses-01_task-ml_proj-lorasick_2021-03-24-14-11-31.529935
175	15	1	4	176	volatile	6	40	36	vs	red	blue	red	blue	left	right	0.30000000000000004	0.7	6	6	1.8000000000000005	4.199999999999998	0	1	0.30000000000000004	0.7	6	6	1.8000000000000005	4.199999999999998	valid	0.3499340329981351	53248	0	1	2	53248	1	53248	1	53248	1	0.7	53248	blue	red	0	6	ml	2.7.3	lorasick	sub-15_ses-01_task-ml_proj-lorasick_2021-03-24-14-11-31.529935
176	15	1	4	177	volatile	6	40	37	vs	blue	red	red	blue	right	left	0.30000000000000004	0.7	2	6	0.6000000000000001	4.199999999999998	0	1	0.7	0.30000000000000004	6	2	4.199999999999998	0.6000000000000001	valid	0.3166024810016097	51200	0	0	2	51200	1	51200	1	51200	1	0.7	51200	blue	red	1	6	ml	2.7.3	lorasick	sub-15_ses-01_task-ml_proj-lorasick_2021-03-24-14-11-31.529935
177	15	1	4	178	volatile	6	40	38	vs	red	blue	red	blue	left	right	0.30000000000000004	0.7	4	6	1.2000000000000002	4.199999999999998	0	1	0.30000000000000004	0.7	4	6	1.2000000000000002	4.199999999999998	valid	0.2999463170017407	53248	0	1	2	53248	1	53248	1	53248	1	0.7	53248	blue	red	1	6	ml	2.7.3	lorasick	sub-15_ses-01_task-ml_proj-lorasick_2021-03-24-14-11-31.529935
178	15	1	4	179	volatile	6	40	39	vs	red	blue	red	blue	left	right	0.30000000000000004	0.7	4	6	1.2000000000000002	4.199999999999998	1	0	0.30000000000000004	0.7	4	6	1.2000000000000002	4.199999999999998	invalid	0.2999535240014666	53248	0	1	2	53248	1	53248	1	53248	1	0.7	53248	blue	red	1	0	ml	2.7.3	lorasick	sub-15_ses-01_task-ml_proj-lorasick_2021-03-24-14-11-31.529935
179	15	1	4	180	volatile	6	40	40	vs	red	blue	red	blue	left	right	0.30000000000000004	0.7	2	2	0.6000000000000001	1.4	1	0	0.30000000000000004	0.7	2	2	0.6000000000000001	1.4	invalid	0.4165805519987771	53248	0	1	2	53248	1	53248	1	53248	1	0.7	53248	blue	red	0	0	ml	2.7.3	lorasick	sub-15_ses-01_task-ml_proj-lorasick_2021-03-24-14-11-31.529935
180	15	1	4	181	volatile	7	20	1	vs	blue	red	red	blue	right	left	0.7	0.30000000000000004	6	2	4.199999999999998	0.6000000000000001	1	0	0.30000000000000004	0.7	2	6	0.6000000000000001	4.199999999999998	valid	0.36658000399984303	51200	0	0	2	53248	0	53248	0	53248	0	0.7	53248	red	blue	1	0	ml	2.7.3	lorasick	sub-15_ses-01_task-ml_proj-lorasick_2021-03-24-14-11-31.529935
181	15	1	4	182	volatile	7	20	2	vs	blue	red	red	blue	right	left	0.7	0.30000000000000004	2	10	1.4	3.0000000000000004	1	0	0.30000000000000004	0.7	10	2	3.0000000000000004	1.4	valid	0.8997658500011312	51200	0	0	2	51200	1	53248	0	51200	1	0.7	53248	red	blue	0	0	ml	2.7.3	lorasick	sub-15_ses-01_task-ml_proj-lorasick_2021-03-24-14-11-31.529935
182	15	1	4	183	volatile	7	20	3	vs	blue	red	red	blue	right	left	0.7	0.30000000000000004	2	2	1.4	0.6000000000000001	1	0	0.30000000000000004	0.7	2	2	0.6000000000000001	1.4	valid	0.399915662001149	53248	0	1	1	53248	1	53248	1	53248	1	0.7	53248	red	blue	0	2	ml	2.7.3	lorasick	sub-15_ses-01_task-ml_proj-lorasick_2021-03-24-14-11-31.529935
183	15	1	4	184	volatile	7	20	4	vs	blue	red	red	blue	right	left	0.7	0.30000000000000004	10	2	7.0	0.6000000000000001	1	0	0.30000000000000004	0.7	2	10	0.6000000000000001	7.0	valid	0.33327485200061346	53248	0	1	1	53248	1	53248	1	53248	1	0.7	53248	red	blue	1	10	ml	2.7.3	lorasick	sub-15_ses-01_task-ml_proj-lorasick_2021-03-24-14-11-31.529935
184	15	1	4	185	volatile	7	20	5	vs	blue	red	red	blue	right	left	0.7	0.30000000000000004	6	6	4.199999999999998	1.8000000000000005	1	0	0.30000000000000004	0.7	6	6	1.8000000000000005	4.199999999999998	valid	0.3499295830006304	53248	0	1	1	53248	1	53248	1	53248	1	0.7	53248	red	blue	0	6	ml	2.7.3	lorasick	sub-15_ses-01_task-ml_proj-lorasick_2021-03-24-14-11-31.529935
185	15	1	4	186	volatile	7	20	6	vs	red	blue	red	blue	left	right	0.7	0.30000000000000004	6	6	4.199999999999998	1.8000000000000005	1	0	0.7	0.30000000000000004	6	6	4.199999999999998	1.8000000000000005	valid	0.33325897900067497	51200	0	0	1	51200	1	51200	1	53248	0	0.7	51200	red	blue	1	6	ml	2.7.3	lorasick	sub-15_ses-01_task-ml_proj-lorasick_2021-03-24-14-11-31.529935
186	15	1	4	187	volatile	7	20	7	vs	red	blue	red	blue	left	right	0.7	0.30000000000000004	4	2	2.8	0.6000000000000001	1	0	0.7	0.30000000000000004	4	2	2.8	0.6000000000000001	valid	0.3999069210003654	51200	0	0	1	51200	1	51200	1	51200	1	0.7	51200	red	blue	1	4	ml	2.7.3	lorasick	sub-15_ses-01_task-ml_proj-lorasick_2021-03-24-14-11-31.529935
187	15	1	4	188	volatile	7	20	8	vs	red	blue	red	blue	left	right	0.7	0.30000000000000004	6	4	4.199999999999998	1.2000000000000002	0	1	0.7	0.30000000000000004	6	4	4.199999999999998	1.2000000000000002	invalid	0.3665820970018103	51200	0	0	1	51200	1	51200	1	51200	1	0.7	51200	red	blue	1	0	ml	2.7.3	lorasick	sub-15_ses-01_task-ml_proj-lorasick_2021-03-24-14-11-31.529935
188	15	1	4	189	volatile	7	20	9	vs	blue	red	red	blue	right	left	0.7	0.30000000000000004	6	2	4.199999999999998	0.6000000000000001	0	1	0.30000000000000004	0.7	2	6	0.6000000000000001	4.199999999999998	invalid	0.33327133000057074	53248	0	1	1	53248	1	53248	1	53248	1	0.7	53248	red	blue	1	0	ml	2.7.3	lorasick	sub-15_ses-01_task-ml_proj-lorasick_2021-03-24-14-11-31.529935
189	15	1	4	190	volatile	7	20	10	vs	blue	red	red	blue	right	left	0.7	0.30000000000000004	2	6	1.4	1.8000000000000005	1	0	0.30000000000000004	0.7	6	2	1.8000000000000005	1.4	valid	0.5498610680006095	51200	0	0	2	51200	1	53248	0	51200	1	0.7	53248	red	blue	0	0	ml	2.7.3	lorasick	sub-15_ses-01_task-ml_proj-lorasick_2021-03-24-14-11-31.529935
190	15	1	4	191	volatile	7	20	11	vs	red	blue	red	blue	left	right	0.7	0.30000000000000004	4	2	2.8	0.6000000000000001	1	0	0.7	0.30000000000000004	4	2	2.8	0.6000000000000001	valid	1.4495988880007644	51200	0	0	1	51200	1	51200	1	51200	1	0.7	51200	red	blue	1	4	ml	2.7.3	lorasick	sub-15_ses-01_task-ml_proj-lorasick_2021-03-24-14-11-31.529935
191	15	1	4	192	volatile	7	20	12	vs	red	blue	red	blue	left	right	0.7	0.30000000000000004	6	4	4.199999999999998	1.2000000000000002	1	0	0.7	0.30000000000000004	6	4	4.199999999999998	1.2000000000000002	valid	0.4498913909992552	51200	0	0	1	51200	1	51200	1	51200	1	0.7	51200	red	blue	1	6	ml	2.7.3	lorasick	sub-15_ses-01_task-ml_proj-lorasick_2021-03-24-14-11-31.529935
192	15	1	4	193	volatile	7	20	13	vs	red	blue	red	blue	left	right	0.7	0.30000000000000004	2	2	1.4	0.6000000000000001	1	0	0.7	0.30000000000000004	2	2	1.4	0.6000000000000001	valid	0.4498922689999745	51200	0	0	1	51200	1	51200	1	53248	0	0.7	51200	red	blue	1	2	ml	2.7.3	lorasick	sub-15_ses-01_task-ml_proj-lorasick_2021-03-24-14-11-31.529935
193	15	1	4	194	volatile	7	20	14	vs	red	blue	red	blue	left	right	0.7	0.30000000000000004	2	4	1.4	1.2000000000000002	0	1	0.7	0.30000000000000004	2	4	1.4	1.2000000000000002	invalid	0.3165964010004245	51200	0	0	1	51200	1	51200	1	53248	0	0.7	51200	red	blue	0	0	ml	2.7.3	lorasick	sub-15_ses-01_task-ml_proj-lorasick_2021-03-24-14-11-31.529935
194	15	1	4	195	volatile	7	20	15	vs	red	blue	red	blue	left	right	0.7	0.30000000000000004	4	6	2.8	1.8000000000000005	1	0	0.7	0.30000000000000004	4	6	2.8	1.8000000000000005	valid	0.3999087490010425	51200	0	0	1	51200	1	51200	1	53248	0	0.7	51200	red	blue	0	4	ml	2.7.3	lorasick	sub-15_ses-01_task-ml_proj-lorasick_2021-03-24-14-11-31.529935
195	15	1	4	196	volatile	7	20	16	vs	red	blue	red	blue	left	right	0.7	0.30000000000000004	2	4	1.4	1.2000000000000002	0	1	0.7	0.30000000000000004	2	4	1.4	1.2000000000000002	invalid	0.3499184249994869	51200	0	0	1	51200	1	51200	1	53248	0	0.7	51200	red	blue	0	0	ml	2.7.3	lorasick	sub-15_ses-01_task-ml_proj-lorasick_2021-03-24-14-11-31.529935
196	15	1	4	197	volatile	7	20	17	vs	blue	red	red	blue	right	left	0.7	0.30000000000000004	10	2	7.0	0.6000000000000001	0	1	0.30000000000000004	0.7	2	10	0.6000000000000001	7.0	invalid	0.34991584599993075	53248	0	1	1	53248	1	53248	1	53248	1	0.7	53248	red	blue	1	0	ml	2.7.3	lorasick	sub-15_ses-01_task-ml_proj-lorasick_2021-03-24-14-11-31.529935
197	15	1	4	198	volatile	7	20	18	vs	red	blue	red	blue	left	right	0.7	0.30000000000000004	6	2	4.199999999999998	0.6000000000000001	1	0	0.7	0.30000000000000004	6	2	4.199999999999998	0.6000000000000001	valid	0.7664630179970118	51200	0	0	1	51200	1	51200	1	51200	1	0.7	51200	red	blue	1	6	ml	2.7.3	lorasick	sub-15_ses-01_task-ml_proj-lorasick_2021-03-24-14-11-31.529935
198	15	1	4	199	volatile	7	20	19	vs	blue	red	red	blue	right	left	0.7	0.30000000000000004	6	4	4.199999999999998	1.2000000000000002	1	0	0.30000000000000004	0.7	4	6	1.2000000000000002	4.199999999999998	valid	0.3665809680023813	51200	0	0	2	53248	0	53248	0	53248	0	0.7	53248	red	blue	1	0	ml	2.7.3	lorasick	sub-15_ses-01_task-ml_proj-lorasick_2021-03-24-14-11-31.529935
199	15	1	4	200	volatile	7	20	20	vs	blue	red	red	blue	right	left	0.7	0.30000000000000004	2	10	1.4	3.0000000000000004	0	1	0.30000000000000004	0.7	10	2	3.0000000000000004	1.4	invalid	0.6331693649990484	51200	0	0	2	51200	1	53248	0	51200	1	0.7	53248	red	blue	0	10	ml	2.7.3	lorasick	sub-15_ses-01_task-ml_proj-lorasick_2021-03-24-14-11-31.529935
200	15	1	5	201	stable	8	200	1	vs	red	blue	red	blue	left	right	0.30000000000000004	0.7	4	2	1.2000000000000002	1.4	1	0	0.30000000000000004	0.7	4	2	1.2000000000000002	1.4	invalid	0.7331413810024969	51200	0	0	1	53248	0	53248	0	51200	1	0.7	53248	blue	red	0	4	ml	2.7.3	lorasick	sub-15_ses-01_task-ml_proj-lorasick_2021-03-24-14-11-31.529935
201	15	1	5	202	stable	8	200	2	vs	red	blue	red	blue	left	right	0.30000000000000004	0.7	2	4	0.6000000000000001	2.8	0	1	0.30000000000000004	0.7	2	4	0.6000000000000001	2.8	valid	0.5498612369992769	51200	0	0	1	53248	0	53248	0	53248	0	0.7	53248	blue	red	1	0	ml	2.7.3	lorasick	sub-15_ses-01_task-ml_proj-lorasick_2021-03-24-14-11-31.529935
202	15	1	5	203	stable	8	200	3	vs	blue	red	red	blue	right	left	0.30000000000000004	0.7	2	10	0.6000000000000001	7.0	0	1	0.7	0.30000000000000004	10	2	7.0	0.6000000000000001	valid	0.4165795209992211	53248	0	1	1	51200	0	51200	0	51200	0	0.7	51200	blue	red	1	0	ml	2.7.3	lorasick	sub-15_ses-01_task-ml_proj-lorasick_2021-03-24-14-11-31.529935
203	15	1	5	204	stable	8	200	4	vs	blue	red	red	blue	right	left	0.30000000000000004	0.7	2	4	0.6000000000000001	2.8	0	1	0.7	0.30000000000000004	4	2	2.8	0.6000000000000001	valid	0.4332318180022412	51200	0	0	2	51200	1	51200	1	51200	1	0.7	51200	blue	red	1	4	ml	2.7.3	lorasick	sub-15_ses-01_task-ml_proj-lorasick_2021-03-24-14-11-31.529935
204	15	1	5	205	stable	8	200	5	vs	blue	red	red	blue	right	left	0.30000000000000004	0.7	10	2	3.0000000000000004	1.4	1	0	0.7	0.30000000000000004	2	10	1.4	3.0000000000000004	invalid	0.4998755640008312	51200	0	0	2	53248	0	51200	1	53248	0	0.7	51200	blue	red	0	0	ml	2.7.3	lorasick	sub-15_ses-01_task-ml_proj-lorasick_2021-03-24-14-11-31.529935
205	15	1	5	206	stable	8	200	6	vs	blue	red	red	blue	right	left	0.30000000000000004	0.7	10	2	3.0000000000000004	1.4	0	1	0.7	0.30000000000000004	2	10	1.4	3.0000000000000004	valid	0.33327134100181866	53248	0	1	1	53248	1	51200	0	53248	1	0.7	51200	blue	red	0	0	ml	2.7.3	lorasick	sub-15_ses-01_task-ml_proj-lorasick_2021-03-24-14-11-31.529935
206	15	1	5	207	stable	8	200	7	vs	blue	red	red	blue	right	left	0.30000000000000004	0.7	2	4	0.6000000000000001	2.8	0	1	0.7	0.30000000000000004	4	2	2.8	0.6000000000000001	valid	0.4665519619993575	51200	0	0	2	51200	1	51200	1	51200	1	0.7	51200	blue	red	1	4	ml	2.7.3	lorasick	sub-15_ses-01_task-ml_proj-lorasick_2021-03-24-14-11-31.529935
207	15	1	5	208	stable	8	200	8	vs	blue	red	red	blue	right	left	0.30000000000000004	0.7	10	2	3.0000000000000004	1.4	0	1	0.7	0.30000000000000004	2	10	1.4	3.0000000000000004	valid	0.7498097499992582	53248	0	1	1	53248	1	51200	0	53248	1	0.7	51200	blue	red	0	0	ml	2.7.3	lorasick	sub-15_ses-01_task-ml_proj-lorasick_2021-03-24-14-11-31.529935
208	15	1	5	209	stable	8	200	9	vs	blue	red	red	blue	right	left	0.30000000000000004	0.7	2	4	0.6000000000000001	2.8	1	0	0.7	0.30000000000000004	4	2	2.8	0.6000000000000001	invalid	0.7164793800002371	51200	0	0	2	51200	1	51200	1	51200	1	0.7	51200	blue	red	1	0	ml	2.7.3	lorasick	sub-15_ses-01_task-ml_proj-lorasick_2021-03-24-14-11-31.529935
209	15	1	5	210	stable	8	200	10	vs	blue	red	red	blue	right	left	0.30000000000000004	0.7	2	6	0.6000000000000001	4.199999999999998	0	1	0.7	0.30000000000000004	6	2	4.199999999999998	0.6000000000000001	valid	0.3832453649993113	51200	0	0	2	51200	1	51200	1	51200	1	0.7	51200	blue	red	1	6	ml	2.7.3	lorasick	sub-15_ses-01_task-ml_proj-lorasick_2021-03-24-14-11-31.529935
210	15	1	5	211	stable	8	200	11	vs	blue	red	red	blue	right	left	0.30000000000000004	0.7	10	2	3.0000000000000004	1.4	0	1	0.7	0.30000000000000004	2	10	1.4	3.0000000000000004	valid	0.5332088080031099	53248	0	1	1	53248	1	51200	0	53248	1	0.7	51200	blue	red	0	0	ml	2.7.3	lorasick	sub-15_ses-01_task-ml_proj-lorasick_2021-03-24-14-11-31.529935
211	15	1	5	212	stable	8	200	12	vs	red	blue	red	blue	left	right	0.30000000000000004	0.7	2	2	0.6000000000000001	1.4	0	1	0.30000000000000004	0.7	2	2	0.6000000000000001	1.4	valid	0.5665343930013478	53248	0	1	2	53248	1	53248	1	53248	1	0.7	53248	blue	red	0	2	ml	2.7.3	lorasick	sub-15_ses-01_task-ml_proj-lorasick_2021-03-24-14-11-31.529935
212	15	1	5	213	stable	8	200	13	vs	blue	red	red	blue	right	left	0.30000000000000004	0.7	2	10	0.6000000000000001	7.0	1	0	0.7	0.30000000000000004	10	2	7.0	0.6000000000000001	invalid	0.533197051998286	51200	0	0	2	51200	1	51200	1	51200	1	0.7	51200	blue	red	1	0	ml	2.7.3	lorasick	sub-15_ses-01_task-ml_proj-lorasick_2021-03-24-14-11-31.529935
213	15	1	5	214	stable	8	200	14	vs	blue	red	red	blue	right	left	0.30000000000000004	0.7	2	4	0.6000000000000001	2.8	1	0	0.7	0.30000000000000004	4	2	2.8	0.6000000000000001	invalid	0.44989093699768995	51200	0	0	2	51200	1	51200	1	51200	1	0.7	51200	blue	red	1	0	ml	2.7.3	lorasick	sub-15_ses-01_task-ml_proj-lorasick_2021-03-24-14-11-31.529935
214	15	1	5	215	stable	8	200	15	vs	red	blue	red	blue	left	right	0.30000000000000004	0.7	2	6	0.6000000000000001	4.199999999999998	1	0	0.30000000000000004	0.7	2	6	0.6000000000000001	4.199999999999998	invalid	0.6498695579975902	51200	0	0	1	53248	0	53248	0	53248	0	0.7	53248	blue	red	1	2	ml	2.7.3	lorasick	sub-15_ses-01_task-ml_proj-lorasick_2021-03-24-14-11-31.529935
215	15	1	5	216	stable	8	200	16	vs	red	blue	red	blue	left	right	0.30000000000000004	0.7	4	6	1.2000000000000002	4.199999999999998	0	1	0.30000000000000004	0.7	4	6	1.2000000000000002	4.199999999999998	valid	0.2832740589983587	51200	0	0	1	53248	0	53248	0	53248	0	0.7	53248	blue	red	1	0	ml	2.7.3	lorasick	sub-15_ses-01_task-ml_proj-lorasick_2021-03-24-14-11-31.529935
216	15	1	5	217	stable	8	200	17	vs	blue	red	red	blue	right	left	0.30000000000000004	0.7	2	2	0.6000000000000001	1.4	1	0	0.7	0.30000000000000004	2	2	1.4	0.6000000000000001	invalid	0.4165748900013568	53248	0	1	1	51200	0	51200	0	53248	1	0.7	51200	blue	red	1	2	ml	2.7.3	lorasick	sub-15_ses-01_task-ml_proj-lorasick_2021-03-24-14-11-31.529935
217	15	1	5	218	stable	8	200	18	vs	blue	red	red	blue	right	left	0.30000000000000004	0.7	2	10	0.6000000000000001	7.0	0	1	0.7	0.30000000000000004	10	2	7.0	0.6000000000000001	valid	0.6331694309992599	51200	0	0	2	51200	1	51200	1	51200	1	0.7	51200	blue	red	1	10	ml	2.7.3	lorasick	sub-15_ses-01_task-ml_proj-lorasick_2021-03-24-14-11-31.529935
218	15	1	5	219	stable	8	200	19	vs	blue	red	red	blue	right	left	0.30000000000000004	0.7	2	6	0.6000000000000001	4.199999999999998	0	1	0.7	0.30000000000000004	6	2	4.199999999999998	0.6000000000000001	valid	0.3332598980014154	51200	0	0	2	51200	1	51200	1	51200	1	0.7	51200	blue	red	1	6	ml	2.7.3	lorasick	sub-15_ses-01_task-ml_proj-lorasick_2021-03-24-14-11-31.529935
219	15	1	5	220	stable	8	200	20	vs	red	blue	red	blue	left	right	0.30000000000000004	0.7	6	2	1.8000000000000005	1.4	1	0	0.30000000000000004	0.7	6	2	1.8000000000000005	1.4	invalid	0.5998577689970261	53248	0	1	2	51200	0	53248	1	51200	0	0.7	53248	blue	red	0	0	ml	2.7.3	lorasick	sub-15_ses-01_task-ml_proj-lorasick_2021-03-24-14-11-31.529935
220	15	1	5	221	stable	8	200	21	vs	red	blue	red	blue	left	right	0.30000000000000004	0.7	2	6	0.6000000000000001	4.199999999999998	0	1	0.30000000000000004	0.7	2	6	0.6000000000000001	4.199999999999998	valid	0.5332093929973779	53248	0	1	2	53248	1	53248	1	53248	1	0.7	53248	blue	red	1	6	ml	2.7.3	lorasick	sub-15_ses-01_task-ml_proj-lorasick_2021-03-24-14-11-31.529935
221	15	1	5	222	stable	8	200	22	vs	blue	red	red	blue	right	left	0.30000000000000004	0.7	2	4	0.6000000000000001	2.8	0	1	0.7	0.30000000000000004	4	2	2.8	0.6000000000000001	valid	0.3665893159995903	51200	0	0	2	51200	1	51200	1	51200	1	0.7	51200	blue	red	1	4	ml	2.7.3	lorasick	sub-15_ses-01_task-ml_proj-lorasick_2021-03-24-14-11-31.529935
222	15	1	5	223	stable	8	200	23	vs	blue	red	red	blue	right	left	0.30000000000000004	0.7	10	2	3.0000000000000004	1.4	1	0	0.7	0.30000000000000004	2	10	1.4	3.0000000000000004	invalid	0.4999062890019559	53248	0	1	1	53248	1	51200	0	53248	1	0.7	51200	blue	red	0	10	ml	2.7.3	lorasick	sub-15_ses-01_task-ml_proj-lorasick_2021-03-24-14-11-31.529935
223	15	1	5	224	stable	8	200	24	vs	blue	red	red	blue	right	left	0.30000000000000004	0.7	6	2	1.8000000000000005	1.4	1	0	0.7	0.30000000000000004	2	6	1.4	1.8000000000000005	invalid	0.6831727690005209	53248	0	1	1	53248	1	51200	0	53248	1	0.7	51200	blue	red	0	6	ml	2.7.3	lorasick	sub-15_ses-01_task-ml_proj-lorasick_2021-03-24-14-11-31.529935
224	15	1	5	225	stable	8	200	25	vs	red	blue	red	blue	left	right	0.30000000000000004	0.7	2	6	0.6000000000000001	4.199999999999998	1	0	0.30000000000000004	0.7	2	6	0.6000000000000001	4.199999999999998	invalid	0.9330947749986079	53248	0	1	2	53248	1	53248	1	53248	1	0.7	53248	blue	red	1	0	ml	2.7.3	lorasick	sub-15_ses-01_task-ml_proj-lorasick_2021-03-24-14-11-31.529935
225	15	1	5	226	stable	8	200	26	vs	blue	red	red	blue	right	left	0.30000000000000004	0.7	4	6	1.2000000000000002	4.199999999999998	0	1	0.7	0.30000000000000004	6	4	4.199999999999998	1.2000000000000002	valid	0.649830115999066	53248	0	1	1	51200	0	51200	0	51200	0	0.7	51200	blue	red	1	0	ml	2.7.3	lorasick	sub-15_ses-01_task-ml_proj-lorasick_2021-03-24-14-11-31.529935
226	15	1	5	227	stable	8	200	27	vs	red	blue	red	blue	left	right	0.30000000000000004	0.7	2	2	0.6000000000000001	1.4	0	1	0.30000000000000004	0.7	2	2	0.6000000000000001	1.4	valid	0.4832167630011099	51200	0	0	1	53248	0	53248	0	53248	0	0.7	53248	blue	red	0	0	ml	2.7.3	lorasick	sub-15_ses-01_task-ml_proj-lorasick_2021-03-24-14-11-31.529935
227	15	1	5	228	stable	8	200	28	vs	red	blue	red	blue	left	right	0.30000000000000004	0.7	6	4	1.8000000000000005	2.8	1	0	0.30000000000000004	0.7	6	4	1.8000000000000005	2.8	invalid	1.04971601300349	51200	0	0	1	53248	0	53248	0	51200	1	0.7	53248	blue	red	0	6	ml	2.7.3	lorasick	sub-15_ses-01_task-ml_proj-lorasick_2021-03-24-14-11-31.529935
228	15	1	5	229	stable	8	200	29	vs	blue	red	red	blue	right	left	0.30000000000000004	0.7	2	6	0.6000000000000001	4.199999999999998	0	1	0.7	0.30000000000000004	6	2	4.199999999999998	0.6000000000000001	valid	0.9830779099975188	51200	0	0	2	51200	1	51200	1	51200	1	0.7	51200	blue	red	1	6	ml	2.7.3	lorasick	sub-15_ses-01_task-ml_proj-lorasick_2021-03-24-14-11-31.529935
229	15	1	5	230	stable	8	200	30	vs	red	blue	red	blue	left	right	0.30000000000000004	0.7	6	4	1.8000000000000005	2.8	0	1	0.30000000000000004	0.7	6	4	1.8000000000000005	2.8	valid	1.0330525509998552	51200	0	0	1	53248	0	53248	0	51200	1	0.7	53248	blue	red	0	0	ml	2.7.3	lorasick	sub-15_ses-01_task-ml_proj-lorasick_2021-03-24-14-11-31.529935
230	15	1	5	231	stable	8	200	31	vs	red	blue	red	blue	left	right	0.30000000000000004	0.7	2	2	0.6000000000000001	1.4	0	1	0.30000000000000004	0.7	2	2	0.6000000000000001	1.4	valid	0.5332110460003605	53248	0	1	2	53248	1	53248	1	53248	1	0.7	53248	blue	red	0	2	ml	2.7.3	lorasick	sub-15_ses-01_task-ml_proj-lorasick_2021-03-24-14-11-31.529935
231	15	1	5	232	stable	8	200	32	vs	blue	red	red	blue	right	left	0.30000000000000004	0.7	6	6	1.8000000000000005	4.199999999999998	0	1	0.7	0.30000000000000004	6	6	4.199999999999998	1.8000000000000005	valid	1.216324893001001	51200	0	0	2	51200	1	51200	1	53248	0	0.7	51200	blue	red	1	6	ml	2.7.3	lorasick	sub-15_ses-01_task-ml_proj-lorasick_2021-03-24-14-11-31.529935
232	15	1	5	233	stable	8	200	33	vs	blue	red	red	blue	right	left	0.30000000000000004	0.7	6	2	1.8000000000000005	1.4	1	0	0.7	0.30000000000000004	2	6	1.4	1.8000000000000005	invalid	0.7498103690013522	53248	0	1	1	53248	1	51200	0	53248	1	0.7	51200	blue	red	0	6	ml	2.7.3	lorasick	sub-15_ses-01_task-ml_proj-lorasick_2021-03-24-14-11-31.529935
233	15	1	5	234	stable	8	200	34	vs	blue	red	red	blue	right	left	0.30000000000000004	0.7	6	2	1.8000000000000005	1.4	0	1	0.7	0.30000000000000004	2	6	1.4	1.8000000000000005	valid	0.7664659489964833	53248	0	1	1	53248	1	51200	0	53248	1	0.7	51200	blue	red	0	0	ml	2.7.3	lorasick	sub-15_ses-01_task-ml_proj-lorasick_2021-03-24-14-11-31.529935
234	15	1	5	235	stable	8	200	35	vs	red	blue	red	blue	left	right	0.30000000000000004	0.7	2	4	0.6000000000000001	2.8	0	1	0.30000000000000004	0.7	2	4	0.6000000000000001	2.8	valid	0.5998547970011714	53248	0	1	2	53248	1	53248	1	53248	1	0.7	53248	blue	red	1	4	ml	2.7.3	lorasick	sub-15_ses-01_task-ml_proj-lorasick_2021-03-24-14-11-31.529935
235	15	1	5	236	stable	8	200	36	vs	blue	red	red	blue	right	left	0.30000000000000004	0.7	2	10	0.6000000000000001	7.0	0	1	0.7	0.30000000000000004	10	2	7.0	0.6000000000000001	valid	0.5498631099981139	51200	0	0	2	51200	1	51200	1	51200	1	0.7	51200	blue	red	1	10	ml	2.7.3	lorasick	sub-15_ses-01_task-ml_proj-lorasick_2021-03-24-14-11-31.529935
236	15	1	5	237	stable	8	200	37	vs	red	blue	red	blue	left	right	0.30000000000000004	0.7	10	2	3.0000000000000004	1.4	0	1	0.30000000000000004	0.7	10	2	3.0000000000000004	1.4	valid	0.4998835719998169	51200	0	0	1	51200	1	53248	0	51200	1	0.7	53248	blue	red	0	0	ml	2.7.3	lorasick	sub-15_ses-01_task-ml_proj-lorasick_2021-03-24-14-11-31.529935
237	15	1	5	238	stable	8	200	38	vs	blue	red	red	blue	right	left	0.30000000000000004	0.7	6	4	1.8000000000000005	2.8	0	1	0.7	0.30000000000000004	4	6	2.8	1.8000000000000005	valid	0.533226202998776	53248	0	1	1	51200	0	51200	0	53248	1	0.7	51200	blue	red	0	0	ml	2.7.3	lorasick	sub-15_ses-01_task-ml_proj-lorasick_2021-03-24-14-11-31.529935
238	15	1	5	239	stable	8	200	39	vs	blue	red	red	blue	right	left	0.30000000000000004	0.7	6	4	1.8000000000000005	2.8	0	1	0.7	0.30000000000000004	4	6	2.8	1.8000000000000005	valid	0.5831697510002414	51200	0	0	2	51200	1	51200	1	53248	0	0.7	51200	blue	red	0	4	ml	2.7.3	lorasick	sub-15_ses-01_task-ml_proj-lorasick_2021-03-24-14-11-31.529935
239	15	1	5	240	stable	8	200	40	vs	red	blue	red	blue	left	right	0.30000000000000004	0.7	4	2	1.2000000000000002	1.4	0	1	0.30000000000000004	0.7	4	2	1.2000000000000002	1.4	valid	0.3999167509973631	53248	0	1	2	53248	1	53248	1	51200	0	0.7	53248	blue	red	0	2	ml	2.7.3	lorasick	sub-15_ses-01_task-ml_proj-lorasick_2021-03-24-14-11-31.529935
240	15	1	5	241	stable	8	200	41	vs	red	blue	red	blue	left	right	0.30000000000000004	0.7	2	6	0.6000000000000001	4.199999999999998	0	1	0.30000000000000004	0.7	2	6	0.6000000000000001	4.199999999999998	valid	0.3999179679994995	53248	0	1	2	53248	1	53248	1	53248	1	0.7	53248	blue	red	1	6	ml	2.7.3	lorasick	sub-15_ses-01_task-ml_proj-lorasick_2021-03-24-14-11-31.529935
241	15	1	5	242	stable	8	200	42	vs	blue	red	red	blue	right	left	0.30000000000000004	0.7	6	6	1.8000000000000005	4.199999999999998	1	0	0.7	0.30000000000000004	6	6	4.199999999999998	1.8000000000000005	invalid	0.5331988369980536	51200	0	0	2	51200	1	51200	1	53248	0	0.7	51200	blue	red	1	0	ml	2.7.3	lorasick	sub-15_ses-01_task-ml_proj-lorasick_2021-03-24-14-11-31.529935
242	15	1	5	243	stable	8	200	43	vs	blue	red	red	blue	right	left	0.30000000000000004	0.7	6	4	1.8000000000000005	2.8	1	0	0.7	0.30000000000000004	4	6	2.8	1.8000000000000005	invalid	0.4998864360022708	53248	0	1	1	51200	0	51200	0	53248	1	0.7	51200	blue	red	0	6	ml	2.7.3	lorasick	sub-15_ses-01_task-ml_proj-lorasick_2021-03-24-14-11-31.529935
243	15	1	5	244	stable	8	200	44	vs	red	blue	red	blue	left	right	0.30000000000000004	0.7	2	2	0.6000000000000001	1.4	0	1	0.30000000000000004	0.7	2	2	0.6000000000000001	1.4	valid	0.3499231530004181	51200	0	0	1	53248	0	53248	0	53248	0	0.7	53248	blue	red	0	0	ml	2.7.3	lorasick	sub-15_ses-01_task-ml_proj-lorasick_2021-03-24-14-11-31.529935
244	15	1	5	245	stable	8	200	45	vs	red	blue	red	blue	left	right	0.30000000000000004	0.7	10	2	3.0000000000000004	1.4	1	0	0.30000000000000004	0.7	10	2	3.0000000000000004	1.4	invalid	0.3832414880016586	51200	0	0	1	51200	1	53248	0	51200	1	0.7	53248	blue	red	0	10	ml	2.7.3	lorasick	sub-15_ses-01_task-ml_proj-lorasick_2021-03-24-14-11-31.529935
245	15	1	5	246	stable	8	200	46	vs	blue	red	red	blue	right	left	0.30000000000000004	0.7	6	2	1.8000000000000005	1.4	0	1	0.7	0.30000000000000004	2	6	1.4	1.8000000000000005	valid	0.4332405169989215	53248	0	1	1	53248	1	51200	0	53248	1	0.7	51200	blue	red	0	0	ml	2.7.3	lorasick	sub-15_ses-01_task-ml_proj-lorasick_2021-03-24-14-11-31.529935
246	15	1	5	247	stable	8	200	47	vs	red	blue	red	blue	left	right	0.30000000000000004	0.7	2	2	0.6000000000000001	1.4	0	1	0.30000000000000004	0.7	2	2	0.6000000000000001	1.4	valid	0.4499042449970148	51200	0	0	1	53248	0	53248	0	53248	0	0.7	53248	blue	red	0	0	ml	2.7.3	lorasick	sub-15_ses-01_task-ml_proj-lorasick_2021-03-24-14-11-31.529935
247	15	1	5	248	stable	8	200	48	vs	blue	red	red	blue	right	left	0.30000000000000004	0.7	4	6	1.2000000000000002	4.199999999999998	1	0	0.7	0.30000000000000004	6	4	4.199999999999998	1.2000000000000002	invalid	0.3666001069977938	53248	0	1	1	51200	0	51200	0	51200	0	0.7	51200	blue	red	1	4	ml	2.7.3	lorasick	sub-15_ses-01_task-ml_proj-lorasick_2021-03-24-14-11-31.529935
248	15	1	5	249	stable	8	200	49	vs	blue	red	red	blue	right	left	0.30000000000000004	0.7	6	6	1.8000000000000005	4.199999999999998	1	0	0.7	0.30000000000000004	6	6	4.199999999999998	1.8000000000000005	invalid	0.3832572810024431	53248	0	1	1	51200	0	51200	0	53248	1	0.7	51200	blue	red	1	6	ml	2.7.3	lorasick	sub-15_ses-01_task-ml_proj-lorasick_2021-03-24-14-11-31.529935
249	15	1	5	250	stable	8	200	50	vs	blue	red	red	blue	right	left	0.30000000000000004	0.7	2	2	0.6000000000000001	1.4	0	1	0.7	0.30000000000000004	2	2	1.4	0.6000000000000001	valid	0.4665513950021705	51200	0	0	2	51200	1	51200	1	53248	0	0.7	51200	blue	red	1	2	ml	2.7.3	lorasick	sub-15_ses-01_task-ml_proj-lorasick_2021-03-24-14-11-31.529935
250	15	1	6	251	stable	8	200	51	vs	blue	red	red	blue	right	left	0.30000000000000004	0.7	2	4	0.6000000000000001	2.8	0	1	0.7	0.30000000000000004	4	2	2.8	0.6000000000000001	valid	0.449898494000081	51200	0	0	2	51200	1	51200	1	51200	1	0.7	51200	blue	red	1	4	ml	2.7.3	lorasick	sub-15_ses-01_task-ml_proj-lorasick_2021-03-24-14-11-31.529935
251	15	1	6	252	stable	8	200	52	vs	blue	red	red	blue	right	left	0.30000000000000004	0.7	6	4	1.8000000000000005	2.8	1	0	0.7	0.30000000000000004	4	6	2.8	1.8000000000000005	invalid	0.3499211640009889	51200	0	0	2	51200	1	51200	1	53248	0	0.7	51200	blue	red	0	0	ml	2.7.3	lorasick	sub-15_ses-01_task-ml_proj-lorasick_2021-03-24-14-11-31.529935
252	15	1	6	253	stable	8	200	53	vs	blue	red	red	blue	right	left	0.30000000000000004	0.7	2	4	0.6000000000000001	2.8	0	1	0.7	0.30000000000000004	4	2	2.8	0.6000000000000001	valid	0.4665519660011341	51200	0	0	2	51200	1	51200	1	51200	1	0.7	51200	blue	red	1	4	ml	2.7.3	lorasick	sub-15_ses-01_task-ml_proj-lorasick_2021-03-24-14-11-31.529935
253	15	1	6	254	stable	8	200	54	vs	red	blue	red	blue	left	right	0.30000000000000004	0.7	2	2	0.6000000000000001	1.4	0	1	0.30000000000000004	0.7	2	2	0.6000000000000001	1.4	valid	0.3332680790008453	53248	0	1	2	53248	1	53248	1	53248	1	0.7	53248	blue	red	0	2	ml	2.7.3	lorasick	sub-15_ses-01_task-ml_proj-lorasick_2021-03-24-14-11-31.529935
254	15	1	6	255	stable	8	200	55	vs	red	blue	red	blue	left	right	0.30000000000000004	0.7	2	2	0.6000000000000001	1.4	0	1	0.30000000000000004	0.7	2	2	0.6000000000000001	1.4	valid	0.3499380910034233	53248	0	1	2	53248	1	53248	1	53248	1	0.7	53248	blue	red	0	2	ml	2.7.3	lorasick	sub-15_ses-01_task-ml_proj-lorasick_2021-03-24-14-11-31.529935
255	15	1	6	256	stable	8	200	56	vs	red	blue	red	blue	left	right	0.30000000000000004	0.7	6	4	1.8000000000000005	2.8	0	1	0.30000000000000004	0.7	6	4	1.8000000000000005	2.8	valid	0.3999168289992667	53248	0	1	2	53248	1	53248	1	51200	0	0.7	53248	blue	red	0	4	ml	2.7.3	lorasick	sub-15_ses-01_task-ml_proj-lorasick_2021-03-24-14-11-31.529935
256	15	1	6	257	stable	8	200	57	vs	red	blue	red	blue	left	right	0.30000000000000004	0.7	6	4	1.8000000000000005	2.8	1	0	0.30000000000000004	0.7	6	4	1.8000000000000005	2.8	invalid	0.3166121699978248	53248	0	1	2	53248	1	53248	1	51200	0	0.7	53248	blue	red	0	0	ml	2.7.3	lorasick	sub-15_ses-01_task-ml_proj-lorasick_2021-03-24-14-11-31.529935
257	15	1	6	258	stable	8	200	58	vs	red	blue	red	blue	left	right	0.30000000000000004	0.7	6	4	1.8000000000000005	2.8	0	1	0.30000000000000004	0.7	6	4	1.8000000000000005	2.8	valid	0.3332757079988369	53248	0	1	2	53248	1	53248	1	51200	0	0.7	53248	blue	red	0	4	ml	2.7.3	lorasick	sub-15_ses-01_task-ml_proj-lorasick_2021-03-24-14-11-31.529935
258	15	1	6	259	stable	8	200	59	vs	red	blue	red	blue	left	right	0.30000000000000004	0.7	6	4	1.8000000000000005	2.8	0	1	0.30000000000000004	0.7	6	4	1.8000000000000005	2.8	valid	0.4832280149967119	53248	0	1	2	53248	1	53248	1	51200	0	0.7	53248	blue	red	0	4	ml	2.7.3	lorasick	sub-15_ses-01_task-ml_proj-lorasick_2021-03-24-14-11-31.529935
259	15	1	6	260	stable	8	200	60	vs	blue	red	red	blue	right	left	0.30000000000000004	0.7	2	4	0.6000000000000001	2.8	0	1	0.7	0.30000000000000004	4	2	2.8	0.6000000000000001	valid	0.3832456990021456	51200	0	0	2	51200	1	51200	1	51200	1	0.7	51200	blue	red	1	4	ml	2.7.3	lorasick	sub-15_ses-01_task-ml_proj-lorasick_2021-03-24-14-11-31.529935
260	15	1	6	261	stable	8	200	61	vs	red	blue	red	blue	left	right	0.30000000000000004	0.7	2	10	0.6000000000000001	7.0	0	1	0.30000000000000004	0.7	2	10	0.6000000000000001	7.0	valid	0.366593726001156	53248	0	1	2	53248	1	53248	1	53248	1	0.7	53248	blue	red	1	10	ml	2.7.3	lorasick	sub-15_ses-01_task-ml_proj-lorasick_2021-03-24-14-11-31.529935
261	15	1	6	262	stable	8	200	62	vs	red	blue	red	blue	left	right	0.30000000000000004	0.7	6	6	1.8000000000000005	4.199999999999998	0	1	0.30000000000000004	0.7	6	6	1.8000000000000005	4.199999999999998	valid	0.4165755829999398	53248	0	1	2	53248	1	53248	1	53248	1	0.7	53248	blue	red	0	6	ml	2.7.3	lorasick	sub-15_ses-01_task-ml_proj-lorasick_2021-03-24-14-11-31.529935
262	15	1	6	263	stable	8	200	63	vs	red	blue	red	blue	left	right	0.30000000000000004	0.7	2	4	0.6000000000000001	2.8	0	1	0.30000000000000004	0.7	2	4	0.6000000000000001	2.8	valid	0.2999448480004503	53248	0	1	2	53248	1	53248	1	53248	1	0.7	53248	blue	red	1	4	ml	2.7.3	lorasick	sub-15_ses-01_task-ml_proj-lorasick_2021-03-24-14-11-31.529935
263	15	1	6	264	stable	8	200	64	vs	blue	red	red	blue	right	left	0.30000000000000004	0.7	4	2	1.2000000000000002	1.4	0	1	0.7	0.30000000000000004	2	4	1.4	1.2000000000000002	valid	0.3665807709985529	51200	0	0	2	51200	1	51200	1	53248	0	0.7	51200	blue	red	0	2	ml	2.7.3	lorasick	sub-15_ses-01_task-ml_proj-lorasick_2021-03-24-14-11-31.529935
264	15	1	6	265	stable	8	200	65	vs	red	blue	red	blue	left	right	0.30000000000000004	0.7	2	6	0.6000000000000001	4.199999999999998	0	1	0.30000000000000004	0.7	2	6	0.6000000000000001	4.199999999999998	valid	0.34993131699957297	53248	0	1	2	53248	1	53248	1	53248	1	0.7	53248	blue	red	1	6	ml	2.7.3	lorasick	sub-15_ses-01_task-ml_proj-lorasick_2021-03-24-14-11-31.529935
265	15	1	6	266	stable	8	200	66	vs	blue	red	red	blue	right	left	0.30000000000000004	0.7	6	2	1.8000000000000005	1.4	0	1	0.7	0.30000000000000004	2	6	1.4	1.8000000000000005	valid	0.5332108020011219	53248	0	1	1	53248	1	51200	0	53248	1	0.7	51200	blue	red	0	0	ml	2.7.3	lorasick	sub-15_ses-01_task-ml_proj-lorasick_2021-03-24-14-11-31.529935
266	15	1	6	267	stable	8	200	67	vs	red	blue	red	blue	left	right	0.30000000000000004	0.7	10	2	3.0000000000000004	1.4	0	1	0.30000000000000004	0.7	10	2	3.0000000000000004	1.4	valid	0.3999076950021845	51200	0	0	1	51200	1	53248	0	51200	1	0.7	53248	blue	red	0	0	ml	2.7.3	lorasick	sub-15_ses-01_task-ml_proj-lorasick_2021-03-24-14-11-31.529935
267	15	1	6	268	stable	8	200	68	vs	red	blue	red	blue	left	right	0.30000000000000004	0.7	4	6	1.2000000000000002	4.199999999999998	0	1	0.30000000000000004	0.7	4	6	1.2000000000000002	4.199999999999998	valid	0.4165773220011033	53248	0	1	2	53248	1	53248	1	53248	1	0.7	53248	blue	red	1	6	ml	2.7.3	lorasick	sub-15_ses-01_task-ml_proj-lorasick_2021-03-24-14-11-31.529935
268	15	1	6	269	stable	8	200	69	vs	blue	red	red	blue	right	left	0.30000000000000004	0.7	10	2	3.0000000000000004	1.4	0	1	0.7	0.30000000000000004	2	10	1.4	3.0000000000000004	valid	0.6331871019974642	53248	0	1	1	53248	1	51200	0	53248	1	0.7	51200	blue	red	0	0	ml	2.7.3	lorasick	sub-15_ses-01_task-ml_proj-lorasick_2021-03-24-14-11-31.529935
269	15	1	6	270	stable	8	200	70	vs	blue	red	red	blue	right	left	0.30000000000000004	0.7	2	6	0.6000000000000001	4.199999999999998	0	1	0.7	0.30000000000000004	6	2	4.199999999999998	0.6000000000000001	valid	0.366582031998405	51200	0	0	2	51200	1	51200	1	51200	1	0.7	51200	blue	red	1	6	ml	2.7.3	lorasick	sub-15_ses-01_task-ml_proj-lorasick_2021-03-24-14-11-31.529935
270	15	1	6	271	stable	8	200	71	vs	red	blue	red	blue	left	right	0.30000000000000004	0.7	2	2	0.6000000000000001	1.4	0	1	0.30000000000000004	0.7	2	2	0.6000000000000001	1.4	valid	0.4332404259985197	53248	0	1	2	53248	1	53248	1	53248	1	0.7	53248	blue	red	0	2	ml	2.7.3	lorasick	sub-15_ses-01_task-ml_proj-lorasick_2021-03-24-14-11-31.529935
271	15	1	6	272	stable	8	200	72	vs	blue	red	red	blue	right	left	0.30000000000000004	0.7	6	2	1.8000000000000005	1.4	0	1	0.7	0.30000000000000004	2	6	1.4	1.8000000000000005	valid	0.7498207230019034	53248	0	1	1	53248	1	51200	0	53248	1	0.7	51200	blue	red	0	0	ml	2.7.3	lorasick	sub-15_ses-01_task-ml_proj-lorasick_2021-03-24-14-11-31.529935
272	15	1	6	273	stable	8	200	73	vs	blue	red	red	blue	right	left	0.30000000000000004	0.7	2	6	0.6000000000000001	4.199999999999998	0	1	0.7	0.30000000000000004	6	2	4.199999999999998	0.6000000000000001	valid	0.34992283399697044	51200	0	0	2	51200	1	51200	1	51200	1	0.7	51200	blue	red	1	6	ml	2.7.3	lorasick	sub-15_ses-01_task-ml_proj-lorasick_2021-03-24-14-11-31.529935
273	15	1	6	274	stable	8	200	74	vs	blue	red	red	blue	right	left	0.30000000000000004	0.7	4	2	1.2000000000000002	1.4	0	1	0.7	0.30000000000000004	2	4	1.4	1.2000000000000002	valid	0.5998453270003665	51200	0	0	2	51200	1	51200	1	53248	0	0.7	51200	blue	red	0	2	ml	2.7.3	lorasick	sub-15_ses-01_task-ml_proj-lorasick_2021-03-24-14-11-31.529935
274	15	1	6	275	stable	8	200	75	vs	red	blue	red	blue	left	right	0.30000000000000004	0.7	6	4	1.8000000000000005	2.8	0	1	0.30000000000000004	0.7	6	4	1.8000000000000005	2.8	valid	0.7831397779991676	53248	0	1	2	53248	1	53248	1	51200	0	0.7	53248	blue	red	0	4	ml	2.7.3	lorasick	sub-15_ses-01_task-ml_proj-lorasick_2021-03-24-14-11-31.529935
275	15	1	6	276	stable	8	200	76	vs	red	blue	red	blue	left	right	0.30000000000000004	0.7	2	4	0.6000000000000001	2.8	0	1	0.30000000000000004	0.7	2	4	0.6000000000000001	2.8	valid	0.4499012970009062	53248	0	1	2	53248	1	53248	1	53248	1	0.7	53248	blue	red	1	4	ml	2.7.3	lorasick	sub-15_ses-01_task-ml_proj-lorasick_2021-03-24-14-11-31.529935
276	15	1	6	277	stable	8	200	77	vs	blue	red	red	blue	right	left	0.30000000000000004	0.7	10	2	3.0000000000000004	1.4	0	1	0.7	0.30000000000000004	2	10	1.4	3.0000000000000004	valid	0.6498427599981369	53248	0	1	1	53248	1	51200	0	53248	1	0.7	51200	blue	red	0	0	ml	2.7.3	lorasick	sub-15_ses-01_task-ml_proj-lorasick_2021-03-24-14-11-31.529935
277	15	1	6	278	stable	8	200	78	vs	red	blue	red	blue	left	right	0.30000000000000004	0.7	2	2	0.6000000000000001	1.4	0	1	0.30000000000000004	0.7	2	2	0.6000000000000001	1.4	valid	0.7165117610020388	53248	0	1	2	53248	1	53248	1	53248	1	0.7	53248	blue	red	0	2	ml	2.7.3	lorasick	sub-15_ses-01_task-ml_proj-lorasick_2021-03-24-14-11-31.529935
278	15	1	6	279	stable	8	200	79	vs	blue	red	red	blue	right	left	0.30000000000000004	0.7	2	2	0.6000000000000001	1.4	0	1	0.7	0.30000000000000004	2	2	1.4	0.6000000000000001	valid	0.48321490699891	51200	0	0	2	51200	1	51200	1	53248	0	0.7	51200	blue	red	1	2	ml	2.7.3	lorasick	sub-15_ses-01_task-ml_proj-lorasick_2021-03-24-14-11-31.529935
279	15	1	6	280	stable	8	200	80	vs	red	blue	red	blue	left	right	0.30000000000000004	0.7	2	4	0.6000000000000001	2.8	0	1	0.30000000000000004	0.7	2	4	0.6000000000000001	2.8	valid	0.4832183280013851	53248	0	1	2	53248	1	53248	1	53248	1	0.7	53248	blue	red	1	4	ml	2.7.3	lorasick	sub-15_ses-01_task-ml_proj-lorasick_2021-03-24-14-11-31.529935
280	15	1	6	281	stable	8	200	81	vs	red	blue	red	blue	left	right	0.30000000000000004	0.7	2	10	0.6000000000000001	7.0	0	1	0.30000000000000004	0.7	2	10	0.6000000000000001	7.0	valid	0.4332412650001061	53248	0	1	2	53248	1	53248	1	53248	1	0.7	53248	blue	red	1	10	ml	2.7.3	lorasick	sub-15_ses-01_task-ml_proj-lorasick_2021-03-24-14-11-31.529935
281	15	1	6	282	stable	8	200	82	vs	red	blue	red	blue	left	right	0.30000000000000004	0.7	6	6	1.8000000000000005	4.199999999999998	0	1	0.30000000000000004	0.7	6	6	1.8000000000000005	4.199999999999998	valid	0.3499375940009486	53248	0	1	2	53248	1	53248	1	53248	1	0.7	53248	blue	red	0	6	ml	2.7.3	lorasick	sub-15_ses-01_task-ml_proj-lorasick_2021-03-24-14-11-31.529935
282	15	1	6	283	stable	8	200	83	vs	blue	red	red	blue	right	left	0.30000000000000004	0.7	2	6	0.6000000000000001	4.199999999999998	0	1	0.7	0.30000000000000004	6	2	4.199999999999998	0.6000000000000001	valid	0.5165384489991993	51200	0	0	2	51200	1	51200	1	51200	1	0.7	51200	blue	red	1	6	ml	2.7.3	lorasick	sub-15_ses-01_task-ml_proj-lorasick_2021-03-24-14-11-31.529935
283	15	1	6	284	stable	8	200	84	vs	blue	red	red	blue	right	left	0.30000000000000004	0.7	2	10	0.6000000000000001	7.0	1	0	0.7	0.30000000000000004	10	2	7.0	0.6000000000000001	invalid	0.3499205100015388	51200	0	0	2	51200	1	51200	1	51200	1	0.7	51200	blue	red	1	0	ml	2.7.3	lorasick	sub-15_ses-01_task-ml_proj-lorasick_2021-03-24-14-11-31.529935
284	15	1	6	285	stable	8	200	85	vs	red	blue	red	blue	left	right	0.30000000000000004	0.7	6	6	1.8000000000000005	4.199999999999998	0	1	0.30000000000000004	0.7	6	6	1.8000000000000005	4.199999999999998	valid	0.3665953099989565	53248	0	1	2	53248	1	53248	1	53248	1	0.7	53248	blue	red	0	6	ml	2.7.3	lorasick	sub-15_ses-01_task-ml_proj-lorasick_2021-03-24-14-11-31.529935
285	15	1	6	286	stable	8	200	86	vs	red	blue	red	blue	left	right	0.30000000000000004	0.7	2	2	0.6000000000000001	1.4	0	1	0.30000000000000004	0.7	2	2	0.6000000000000001	1.4	valid	0.4998801619985898	53248	0	1	2	53248	1	53248	1	53248	1	0.7	53248	blue	red	0	2	ml	2.7.3	lorasick	sub-15_ses-01_task-ml_proj-lorasick_2021-03-24-14-11-31.529935
286	15	1	6	287	stable	8	200	87	vs	blue	red	red	blue	right	left	0.30000000000000004	0.7	2	10	0.6000000000000001	7.0	1	0	0.7	0.30000000000000004	10	2	7.0	0.6000000000000001	invalid	0.3665909890005423	51200	0	0	2	51200	1	51200	1	51200	1	0.7	51200	blue	red	1	0	ml	2.7.3	lorasick	sub-15_ses-01_task-ml_proj-lorasick_2021-03-24-14-11-31.529935
287	15	1	6	288	stable	8	200	88	vs	red	blue	red	blue	left	right	0.30000000000000004	0.7	2	4	0.6000000000000001	2.8	0	1	0.30000000000000004	0.7	2	4	0.6000000000000001	2.8	valid	0.6331779200008896	53248	0	1	2	53248	1	53248	1	53248	1	0.7	53248	blue	red	1	4	ml	2.7.3	lorasick	sub-15_ses-01_task-ml_proj-lorasick_2021-03-24-14-11-31.529935
288	15	1	6	289	stable	8	200	89	vs	red	blue	red	blue	left	right	0.30000000000000004	0.7	2	6	0.6000000000000001	4.199999999999998	1	0	0.30000000000000004	0.7	2	6	0.6000000000000001	4.199999999999998	invalid	0.36659619999772985	53248	0	1	2	53248	1	53248	1	53248	1	0.7	53248	blue	red	1	0	ml	2.7.3	lorasick	sub-15_ses-01_task-ml_proj-lorasick_2021-03-24-14-11-31.529935
