Unnamed: 0	sub_id	ses_id	block_no	trial_no	phase_type	phase_no	phase_length	trialInPhase_no	phase_type_order	color_left	color_right	color1	color2	position1	position2	prob1	prob2	mag1	mag2	ev1	ev2	outcome1	outcome2	prob_left	prob_right	mag_left	mag_right	ev_left	ev_right	reward_validity	resp_time	resp_key	timeout	choice_side	choice	ev_corr_resp	ev_correct	prob_corr_resp	prob_correct	mag_corr_resp	mag_correct	high_prob	high_prob_side	high_prob_color	low_prob_color	no_brain	reward	name	version	proj_id	logFileID
0	15	2	1	1	volatile	1	20	1	vs	brown	green	brown	green	left	right	0.7	0.30000000000000004	6	2	4.199999999999998	0.6000000000000001	0	1	0.7	0.30000000000000004	6	2	4.199999999999998	0.6000000000000001	invalid	0.4998770940001122	51200	0	0	1	51200	1	51200	1	51200	1	0.7	51200	brown	green	1	0	ml	2.7.3	lorasick	sub-15_ses-02_task-ml_proj-lorasick_2021-03-31-14-30-22.353605
1	15	2	1	2	volatile	1	20	2	vs	brown	green	brown	green	left	right	0.7	0.30000000000000004	6	4	4.199999999999998	1.2000000000000002	1	0	0.7	0.30000000000000004	6	4	4.199999999999998	1.2000000000000002	valid	0.36658076000094303	51200	0	0	1	51200	1	51200	1	51200	1	0.7	51200	brown	green	1	6	ml	2.7.3	lorasick	sub-15_ses-02_task-ml_proj-lorasick_2021-03-31-14-30-22.353605
2	15	2	1	3	volatile	1	20	3	vs	brown	green	brown	green	left	right	0.7	0.30000000000000004	10	2	7.0	0.6000000000000001	1	0	0.7	0.30000000000000004	10	2	7.0	0.6000000000000001	valid	0.3665826150026987	51200	0	0	1	51200	1	51200	1	51200	1	0.7	51200	brown	green	1	10	ml	2.7.3	lorasick	sub-15_ses-02_task-ml_proj-lorasick_2021-03-31-14-30-22.353605
3	15	2	1	4	volatile	1	20	4	vs	green	brown	brown	green	right	left	0.7	0.30000000000000004	2	2	1.4	0.6000000000000001	0	1	0.30000000000000004	0.7	2	2	0.6000000000000001	1.4	invalid	0.3999113249992661	53248	0	1	1	53248	1	53248	1	53248	1	0.7	53248	brown	green	0	0	ml	2.7.3	lorasick	sub-15_ses-02_task-ml_proj-lorasick_2021-03-31-14-30-22.353605
4	15	2	1	5	volatile	1	20	5	vs	brown	green	brown	green	left	right	0.7	0.30000000000000004	10	2	7.0	0.6000000000000001	0	1	0.7	0.30000000000000004	10	2	7.0	0.6000000000000001	invalid	0.3332602169975871	51200	0	0	1	51200	1	51200	1	51200	1	0.7	51200	brown	green	1	0	ml	2.7.3	lorasick	sub-15_ses-02_task-ml_proj-lorasick_2021-03-31-14-30-22.353605
5	15	2	1	6	volatile	1	20	6	vs	green	brown	brown	green	right	left	0.7	0.30000000000000004	2	2	1.4	0.6000000000000001	0	1	0.30000000000000004	0.7	2	2	0.6000000000000001	1.4	invalid	0.5165323469991563	51200	0	0	2	53248	0	53248	0	53248	0	0.7	53248	brown	green	0	2	ml	2.7.3	lorasick	sub-15_ses-02_task-ml_proj-lorasick_2021-03-31-14-30-22.353605
6	15	2	1	7	volatile	1	20	7	vs	brown	green	brown	green	left	right	0.7	0.30000000000000004	2	4	1.4	1.2000000000000002	1	0	0.7	0.30000000000000004	2	4	1.4	1.2000000000000002	valid	0.3499310139995941	53248	0	1	2	51200	0	51200	0	53248	1	0.7	51200	brown	green	0	0	ml	2.7.3	lorasick	sub-15_ses-02_task-ml_proj-lorasick_2021-03-31-14-30-22.353605
7	15	2	1	8	volatile	1	20	8	vs	brown	green	brown	green	left	right	0.7	0.30000000000000004	2	10	1.4	3.0000000000000004	1	0	0.7	0.30000000000000004	2	10	1.4	3.0000000000000004	valid	0.34993266699893866	53248	0	1	2	53248	1	51200	0	53248	1	0.7	51200	brown	green	0	0	ml	2.7.3	lorasick	sub-15_ses-02_task-ml_proj-lorasick_2021-03-31-14-30-22.353605
8	15	2	1	9	volatile	1	20	9	vs	green	brown	brown	green	right	left	0.7	0.30000000000000004	6	4	4.199999999999998	1.2000000000000002	1	0	0.30000000000000004	0.7	4	6	1.2000000000000002	4.199999999999998	valid	0.5165480750001734	53248	0	1	1	53248	1	53248	1	53248	1	0.7	53248	brown	green	1	6	ml	2.7.3	lorasick	sub-15_ses-02_task-ml_proj-lorasick_2021-03-31-14-30-22.353605
9	15	2	1	10	volatile	1	20	10	vs	green	brown	brown	green	right	left	0.7	0.30000000000000004	4	6	2.8	1.8000000000000005	1	0	0.30000000000000004	0.7	6	4	1.8000000000000005	2.8	valid	0.3665938580015791	53248	0	1	1	53248	1	53248	1	51200	0	0.7	53248	brown	green	0	4	ml	2.7.3	lorasick	sub-15_ses-02_task-ml_proj-lorasick_2021-03-31-14-30-22.353605
10	15	2	1	11	volatile	1	20	11	vs	green	brown	brown	green	right	left	0.7	0.30000000000000004	10	2	7.0	0.6000000000000001	0	1	0.30000000000000004	0.7	2	10	0.6000000000000001	7.0	invalid	0.3499306309968233	53248	0	1	1	53248	1	53248	1	53248	1	0.7	53248	brown	green	1	0	ml	2.7.3	lorasick	sub-15_ses-02_task-ml_proj-lorasick_2021-03-31-14-30-22.353605
11	15	2	1	12	volatile	1	20	12	vs	green	brown	brown	green	right	left	0.7	0.30000000000000004	6	6	4.199999999999998	1.8000000000000005	1	0	0.30000000000000004	0.7	6	6	1.8000000000000005	4.199999999999998	valid	0.5998463870018895	51200	0	0	2	53248	0	53248	0	53248	0	0.7	53248	brown	green	0	0	ml	2.7.3	lorasick	sub-15_ses-02_task-ml_proj-lorasick_2021-03-31-14-30-22.353605
12	15	2	1	13	volatile	1	20	13	vs	green	brown	brown	green	right	left	0.7	0.30000000000000004	4	2	2.8	0.6000000000000001	1	0	0.30000000000000004	0.7	2	4	0.6000000000000001	2.8	valid	0.5498729509999976	53248	0	1	1	53248	1	53248	1	53248	1	0.7	53248	brown	green	1	4	ml	2.7.3	lorasick	sub-15_ses-02_task-ml_proj-lorasick_2021-03-31-14-30-22.353605
13	15	2	1	14	volatile	1	20	14	vs	brown	green	brown	green	left	right	0.7	0.30000000000000004	4	2	2.8	0.6000000000000001	1	0	0.7	0.30000000000000004	4	2	2.8	0.6000000000000001	valid	0.4165633929987962	51200	0	0	1	51200	1	51200	1	51200	1	0.7	51200	brown	green	1	4	ml	2.7.3	lorasick	sub-15_ses-02_task-ml_proj-lorasick_2021-03-31-14-30-22.353605
14	15	2	1	15	volatile	1	20	15	vs	green	brown	brown	green	right	left	0.7	0.30000000000000004	6	2	4.199999999999998	0.6000000000000001	1	0	0.30000000000000004	0.7	2	6	0.6000000000000001	4.199999999999998	valid	0.3499334750013077	53248	0	1	1	53248	1	53248	1	53248	1	0.7	53248	brown	green	1	6	ml	2.7.3	lorasick	sub-15_ses-02_task-ml_proj-lorasick_2021-03-31-14-30-22.353605
15	15	2	1	16	volatile	1	20	16	vs	brown	green	brown	green	left	right	0.7	0.30000000000000004	2	6	1.4	1.8000000000000005	1	0	0.7	0.30000000000000004	2	6	1.4	1.8000000000000005	valid	0.5165420960001939	51200	0	0	1	53248	0	51200	1	53248	0	0.7	51200	brown	green	0	2	ml	2.7.3	lorasick	sub-15_ses-02_task-ml_proj-lorasick_2021-03-31-14-30-22.353605
16	15	2	1	17	volatile	1	20	17	vs	green	brown	brown	green	right	left	0.7	0.30000000000000004	2	6	1.4	1.8000000000000005	1	0	0.30000000000000004	0.7	6	2	1.8000000000000005	1.4	valid	0.2666242980012612	53248	0	1	1	51200	0	53248	1	51200	0	0.7	53248	brown	green	0	2	ml	2.7.3	lorasick	sub-15_ses-02_task-ml_proj-lorasick_2021-03-31-14-30-22.353605
17	15	2	1	18	volatile	1	20	18	vs	green	brown	brown	green	right	left	0.7	0.30000000000000004	6	6	4.199999999999998	1.8000000000000005	1	0	0.30000000000000004	0.7	6	6	1.8000000000000005	4.199999999999998	valid	0.3499303690005036	53248	0	1	1	53248	1	53248	1	53248	1	0.7	53248	brown	green	0	6	ml	2.7.3	lorasick	sub-15_ses-02_task-ml_proj-lorasick_2021-03-31-14-30-22.353605
18	15	2	1	19	volatile	1	20	19	vs	brown	green	brown	green	left	right	0.7	0.30000000000000004	4	6	2.8	1.8000000000000005	1	0	0.7	0.30000000000000004	4	6	2.8	1.8000000000000005	valid	0.3665794439984893	51200	0	0	1	51200	1	51200	1	53248	0	0.7	51200	brown	green	0	4	ml	2.7.3	lorasick	sub-15_ses-02_task-ml_proj-lorasick_2021-03-31-14-30-22.353605
19	15	2	1	20	volatile	1	20	20	vs	brown	green	brown	green	left	right	0.7	0.30000000000000004	4	2	2.8	0.6000000000000001	0	1	0.7	0.30000000000000004	4	2	2.8	0.6000000000000001	invalid	0.4165662859995791	51200	0	0	1	51200	1	51200	1	51200	1	0.7	51200	brown	green	1	0	ml	2.7.3	lorasick	sub-15_ses-02_task-ml_proj-lorasick_2021-03-31-14-30-22.353605
20	15	2	1	21	volatile	2	20	1	vs	green	brown	brown	green	right	left	0.30000000000000004	0.7	4	6	1.2000000000000002	4.199999999999998	0	1	0.7	0.30000000000000004	6	4	4.199999999999998	1.2000000000000002	valid	0.4332304769995972	51200	0	0	2	51200	1	51200	1	51200	1	0.7	51200	green	brown	1	6	ml	2.7.3	lorasick	sub-15_ses-02_task-ml_proj-lorasick_2021-03-31-14-30-22.353605
21	15	2	1	22	volatile	2	20	2	vs	green	brown	brown	green	right	left	0.30000000000000004	0.7	6	6	1.8000000000000005	4.199999999999998	1	0	0.7	0.30000000000000004	6	6	4.199999999999998	1.8000000000000005	invalid	0.4498966030005249	51200	0	0	2	51200	1	51200	1	53248	0	0.7	51200	green	brown	1	0	ml	2.7.3	lorasick	sub-15_ses-02_task-ml_proj-lorasick_2021-03-31-14-30-22.353605
22	15	2	1	23	volatile	2	20	3	vs	brown	green	brown	green	left	right	0.30000000000000004	0.7	2	2	0.6000000000000001	1.4	0	1	0.30000000000000004	0.7	2	2	0.6000000000000001	1.4	valid	0.8164459990002797	51200	0	0	1	53248	0	53248	0	53248	0	0.7	53248	green	brown	0	0	ml	2.7.3	lorasick	sub-15_ses-02_task-ml_proj-lorasick_2021-03-31-14-30-22.353605
23	15	2	1	24	volatile	2	20	4	vs	brown	green	brown	green	left	right	0.30000000000000004	0.7	2	10	0.6000000000000001	7.0	0	1	0.30000000000000004	0.7	2	10	0.6000000000000001	7.0	valid	0.333266323999851	53248	0	1	2	53248	1	53248	1	53248	1	0.7	53248	green	brown	1	10	ml	2.7.3	lorasick	sub-15_ses-02_task-ml_proj-lorasick_2021-03-31-14-30-22.353605
24	15	2	1	25	volatile	2	20	5	vs	brown	green	brown	green	left	right	0.30000000000000004	0.7	6	4	1.8000000000000005	2.8	0	1	0.30000000000000004	0.7	6	4	1.8000000000000005	2.8	valid	0.48323211800016	53248	0	1	2	53248	1	53248	1	51200	0	0.7	53248	green	brown	0	4	ml	2.7.3	lorasick	sub-15_ses-02_task-ml_proj-lorasick_2021-03-31-14-30-22.353605
25	15	2	1	26	volatile	2	20	6	vs	brown	green	brown	green	left	right	0.30000000000000004	0.7	6	6	1.8000000000000005	4.199999999999998	0	1	0.30000000000000004	0.7	6	6	1.8000000000000005	4.199999999999998	valid	0.4165820839989465	53248	0	1	2	53248	1	53248	1	53248	1	0.7	53248	green	brown	0	6	ml	2.7.3	lorasick	sub-15_ses-02_task-ml_proj-lorasick_2021-03-31-14-30-22.353605
26	15	2	1	27	volatile	2	20	7	vs	green	brown	brown	green	right	left	0.30000000000000004	0.7	2	10	0.6000000000000001	7.0	1	0	0.7	0.30000000000000004	10	2	7.0	0.6000000000000001	invalid	0.4165694959992834	51200	0	0	2	51200	1	51200	1	51200	1	0.7	51200	green	brown	1	0	ml	2.7.3	lorasick	sub-15_ses-02_task-ml_proj-lorasick_2021-03-31-14-30-22.353605
27	15	2	1	28	volatile	2	20	8	vs	green	brown	brown	green	right	left	0.30000000000000004	0.7	4	2	1.2000000000000002	1.4	0	1	0.7	0.30000000000000004	2	4	1.4	1.2000000000000002	valid	0.3999181129984208	53248	0	1	1	51200	0	51200	0	53248	1	0.7	51200	green	brown	0	0	ml	2.7.3	lorasick	sub-15_ses-02_task-ml_proj-lorasick_2021-03-31-14-30-22.353605
28	15	2	1	29	volatile	2	20	9	vs	green	brown	brown	green	right	left	0.30000000000000004	0.7	6	4	1.8000000000000005	2.8	0	1	0.7	0.30000000000000004	4	6	2.8	1.8000000000000005	valid	0.2999479899990547	53248	0	1	1	51200	0	51200	0	53248	1	0.7	51200	green	brown	0	0	ml	2.7.3	lorasick	sub-15_ses-02_task-ml_proj-lorasick_2021-03-31-14-30-22.353605
29	15	2	1	30	volatile	2	20	10	vs	green	brown	brown	green	right	left	0.30000000000000004	0.7	6	2	1.8000000000000005	1.4	0	1	0.7	0.30000000000000004	2	6	1.4	1.8000000000000005	valid	0.33327223100059195	53248	0	1	1	53248	1	51200	0	53248	1	0.7	51200	green	brown	0	0	ml	2.7.3	lorasick	sub-15_ses-02_task-ml_proj-lorasick_2021-03-31-14-30-22.353605
30	15	2	1	31	volatile	2	20	11	vs	brown	green	brown	green	left	right	0.30000000000000004	0.7	4	2	1.2000000000000002	1.4	0	1	0.30000000000000004	0.7	4	2	1.2000000000000002	1.4	valid	0.33327012799782096	53248	0	1	2	53248	1	53248	1	51200	0	0.7	53248	green	brown	0	2	ml	2.7.3	lorasick	sub-15_ses-02_task-ml_proj-lorasick_2021-03-31-14-30-22.353605
31	15	2	1	32	volatile	2	20	12	vs	green	brown	brown	green	right	left	0.30000000000000004	0.7	10	2	3.0000000000000004	1.4	0	1	0.7	0.30000000000000004	2	10	1.4	3.0000000000000004	valid	0.46655776899933704	53248	0	1	1	53248	1	51200	0	53248	1	0.7	51200	green	brown	0	0	ml	2.7.3	lorasick	sub-15_ses-02_task-ml_proj-lorasick_2021-03-31-14-30-22.353605
32	15	2	1	33	volatile	2	20	13	vs	green	brown	brown	green	right	left	0.30000000000000004	0.7	2	10	0.6000000000000001	7.0	0	1	0.7	0.30000000000000004	10	2	7.0	0.6000000000000001	valid	0.3499204420004389	51200	0	0	2	51200	1	51200	1	51200	1	0.7	51200	green	brown	1	10	ml	2.7.3	lorasick	sub-15_ses-02_task-ml_proj-lorasick_2021-03-31-14-30-22.353605
33	15	2	1	34	volatile	2	20	14	vs	brown	green	brown	green	left	right	0.30000000000000004	0.7	2	2	0.6000000000000001	1.4	1	0	0.30000000000000004	0.7	2	2	0.6000000000000001	1.4	invalid	0.3332724710016919	53248	0	1	2	53248	1	53248	1	53248	1	0.7	53248	green	brown	0	0	ml	2.7.3	lorasick	sub-15_ses-02_task-ml_proj-lorasick_2021-03-31-14-30-22.353605
34	15	2	1	35	volatile	2	20	15	vs	brown	green	brown	green	left	right	0.30000000000000004	0.7	4	2	1.2000000000000002	1.4	1	0	0.30000000000000004	0.7	4	2	1.2000000000000002	1.4	invalid	0.4332393479999155	53248	0	1	2	53248	1	53248	1	51200	0	0.7	53248	green	brown	0	0	ml	2.7.3	lorasick	sub-15_ses-02_task-ml_proj-lorasick_2021-03-31-14-30-22.353605
35	15	2	1	36	volatile	2	20	16	vs	green	brown	brown	green	right	left	0.30000000000000004	0.7	6	4	1.8000000000000005	2.8	0	1	0.7	0.30000000000000004	4	6	2.8	1.8000000000000005	valid	0.3665862019988708	53248	0	1	1	51200	0	51200	0	53248	1	0.7	51200	green	brown	0	0	ml	2.7.3	lorasick	sub-15_ses-02_task-ml_proj-lorasick_2021-03-31-14-30-22.353605
36	15	2	1	37	volatile	2	20	17	vs	brown	green	brown	green	left	right	0.30000000000000004	0.7	6	2	1.8000000000000005	1.4	0	1	0.30000000000000004	0.7	6	2	1.8000000000000005	1.4	valid	0.3166002030011441	51200	0	0	1	51200	1	53248	0	51200	1	0.7	53248	green	brown	0	0	ml	2.7.3	lorasick	sub-15_ses-02_task-ml_proj-lorasick_2021-03-31-14-30-22.353605
37	15	2	1	38	volatile	2	20	18	vs	brown	green	brown	green	left	right	0.30000000000000004	0.7	2	4	0.6000000000000001	2.8	1	0	0.30000000000000004	0.7	2	4	0.6000000000000001	2.8	invalid	0.31660887299949536	53248	0	1	2	53248	1	53248	1	53248	1	0.7	53248	green	brown	1	0	ml	2.7.3	lorasick	sub-15_ses-02_task-ml_proj-lorasick_2021-03-31-14-30-22.353605
38	15	2	1	39	volatile	2	20	19	vs	green	brown	brown	green	right	left	0.30000000000000004	0.7	2	6	0.6000000000000001	4.199999999999998	1	0	0.7	0.30000000000000004	6	2	4.199999999999998	0.6000000000000001	invalid	0.3832458299984864	51200	0	0	2	51200	1	51200	1	51200	1	0.7	51200	green	brown	1	0	ml	2.7.3	lorasick	sub-15_ses-02_task-ml_proj-lorasick_2021-03-31-14-30-22.353605
39	15	2	1	40	volatile	2	20	20	vs	brown	green	brown	green	left	right	0.30000000000000004	0.7	2	6	0.6000000000000001	4.199999999999998	0	1	0.30000000000000004	0.7	2	6	0.6000000000000001	4.199999999999998	valid	0.4832264659999055	53248	0	1	2	53248	1	53248	1	53248	1	0.7	53248	green	brown	1	6	ml	2.7.3	lorasick	sub-15_ses-02_task-ml_proj-lorasick_2021-03-31-14-30-22.353605
40	15	2	1	41	volatile	3	40	1	vs	green	brown	brown	green	right	left	0.7	0.30000000000000004	2	6	1.4	1.8000000000000005	1	0	0.30000000000000004	0.7	6	2	1.8000000000000005	1.4	valid	0.3665889609983424	51200	0	0	2	51200	1	53248	0	51200	1	0.7	53248	brown	green	0	0	ml	2.7.3	lorasick	sub-15_ses-02_task-ml_proj-lorasick_2021-03-31-14-30-22.353605
41	15	2	1	42	volatile	3	40	2	vs	brown	green	brown	green	left	right	0.7	0.30000000000000004	2	6	1.4	1.8000000000000005	1	0	0.7	0.30000000000000004	2	6	1.4	1.8000000000000005	valid	0.4665715379996982	53248	0	1	2	53248	1	51200	0	53248	1	0.7	51200	brown	green	0	0	ml	2.7.3	lorasick	sub-15_ses-02_task-ml_proj-lorasick_2021-03-31-14-30-22.353605
42	15	2	1	43	volatile	3	40	3	vs	brown	green	brown	green	left	right	0.7	0.30000000000000004	2	10	1.4	3.0000000000000004	0	1	0.7	0.30000000000000004	2	10	1.4	3.0000000000000004	invalid	0.416578896001738	53248	0	1	2	53248	1	51200	0	53248	1	0.7	51200	brown	green	0	10	ml	2.7.3	lorasick	sub-15_ses-02_task-ml_proj-lorasick_2021-03-31-14-30-22.353605
43	15	2	1	44	volatile	3	40	4	vs	green	brown	brown	green	right	left	0.7	0.30000000000000004	2	10	1.4	3.0000000000000004	0	1	0.30000000000000004	0.7	10	2	3.0000000000000004	1.4	invalid	0.3665798840011121	51200	0	0	2	51200	1	53248	0	51200	1	0.7	53248	brown	green	0	10	ml	2.7.3	lorasick	sub-15_ses-02_task-ml_proj-lorasick_2021-03-31-14-30-22.353605
44	15	2	1	45	volatile	3	40	5	vs	green	brown	brown	green	right	left	0.7	0.30000000000000004	2	10	1.4	3.0000000000000004	1	0	0.30000000000000004	0.7	10	2	3.0000000000000004	1.4	valid	0.3499217280004814	51200	0	0	2	51200	1	53248	0	51200	1	0.7	53248	brown	green	0	0	ml	2.7.3	lorasick	sub-15_ses-02_task-ml_proj-lorasick_2021-03-31-14-30-22.353605
45	15	2	1	46	volatile	3	40	6	vs	brown	green	brown	green	left	right	0.7	0.30000000000000004	4	2	2.8	0.6000000000000001	1	0	0.7	0.30000000000000004	4	2	2.8	0.6000000000000001	valid	0.33326909899915336	53248	0	1	2	51200	0	51200	0	51200	0	0.7	51200	brown	green	1	0	ml	2.7.3	lorasick	sub-15_ses-02_task-ml_proj-lorasick_2021-03-31-14-30-22.353605
46	15	2	1	47	volatile	3	40	7	vs	green	brown	brown	green	right	left	0.7	0.30000000000000004	6	4	4.199999999999998	1.2000000000000002	0	1	0.30000000000000004	0.7	4	6	1.2000000000000002	4.199999999999998	invalid	0.3166134840030281	53248	0	1	1	53248	1	53248	1	53248	1	0.7	53248	brown	green	1	0	ml	2.7.3	lorasick	sub-15_ses-02_task-ml_proj-lorasick_2021-03-31-14-30-22.353605
47	15	2	1	48	volatile	3	40	8	vs	green	brown	brown	green	right	left	0.7	0.30000000000000004	4	2	2.8	0.6000000000000001	1	0	0.30000000000000004	0.7	2	4	0.6000000000000001	2.8	valid	0.7331493199999386	53248	0	1	1	53248	1	53248	1	53248	1	0.7	53248	brown	green	1	4	ml	2.7.3	lorasick	sub-15_ses-02_task-ml_proj-lorasick_2021-03-31-14-30-22.353605
48	15	2	1	49	volatile	3	40	9	vs	green	brown	brown	green	right	left	0.7	0.30000000000000004	10	2	7.0	0.6000000000000001	1	0	0.30000000000000004	0.7	2	10	0.6000000000000001	7.0	valid	0.2832871079990582	53248	0	1	1	53248	1	53248	1	53248	1	0.7	53248	brown	green	1	10	ml	2.7.3	lorasick	sub-15_ses-02_task-ml_proj-lorasick_2021-03-31-14-30-22.353605
49	15	2	1	50	volatile	3	40	10	vs	brown	green	brown	green	left	right	0.7	0.30000000000000004	2	10	1.4	3.0000000000000004	1	0	0.7	0.30000000000000004	2	10	1.4	3.0000000000000004	valid	0.4332232049964659	51200	0	0	1	53248	0	51200	1	53248	0	0.7	51200	brown	green	0	2	ml	2.7.3	lorasick	sub-15_ses-02_task-ml_proj-lorasick_2021-03-31-14-30-22.353605
50	15	2	2	51	volatile	3	40	11	vs	brown	green	brown	green	left	right	0.7	0.30000000000000004	2	10	1.4	3.0000000000000004	0	1	0.7	0.30000000000000004	2	10	1.4	3.0000000000000004	invalid	0.5498733589993208	53248	0	1	2	53248	1	51200	0	53248	1	0.7	51200	brown	green	0	10	ml	2.7.3	lorasick	sub-15_ses-02_task-ml_proj-lorasick_2021-03-31-14-30-22.353605
51	15	2	2	52	volatile	3	40	12	vs	brown	green	brown	green	left	right	0.7	0.30000000000000004	6	2	4.199999999999998	0.6000000000000001	0	1	0.7	0.30000000000000004	6	2	4.199999999999998	0.6000000000000001	invalid	0.5831963429991447	53248	0	1	2	51200	0	51200	0	51200	0	0.7	51200	brown	green	1	2	ml	2.7.3	lorasick	sub-15_ses-02_task-ml_proj-lorasick_2021-03-31-14-30-22.353605
52	15	2	2	53	volatile	3	40	13	vs	brown	green	brown	green	left	right	0.7	0.30000000000000004	4	6	2.8	1.8000000000000005	1	0	0.7	0.30000000000000004	4	6	2.8	1.8000000000000005	valid	0.23329998899862406	53248	0	1	2	51200	0	51200	0	53248	1	0.7	51200	brown	green	0	0	ml	2.7.3	lorasick	sub-15_ses-02_task-ml_proj-lorasick_2021-03-31-14-30-22.353605
53	15	2	2	54	volatile	3	40	14	vs	brown	green	brown	green	left	right	0.7	0.30000000000000004	6	4	4.199999999999998	1.2000000000000002	1	0	0.7	0.30000000000000004	6	4	4.199999999999998	1.2000000000000002	valid	0.5165494400025636	53248	0	1	2	51200	0	51200	0	51200	0	0.7	51200	brown	green	1	0	ml	2.7.3	lorasick	sub-15_ses-02_task-ml_proj-lorasick_2021-03-31-14-30-22.353605
54	15	2	2	55	volatile	3	40	15	vs	green	brown	brown	green	right	left	0.7	0.30000000000000004	2	2	1.4	0.6000000000000001	1	0	0.30000000000000004	0.7	2	2	0.6000000000000001	1.4	valid	0.4665580760010926	53248	0	1	1	53248	1	53248	1	53248	1	0.7	53248	brown	green	0	2	ml	2.7.3	lorasick	sub-15_ses-02_task-ml_proj-lorasick_2021-03-31-14-30-22.353605
55	15	2	2	56	volatile	3	40	16	vs	brown	green	brown	green	left	right	0.7	0.30000000000000004	2	2	1.4	0.6000000000000001	0	1	0.7	0.30000000000000004	2	2	1.4	0.6000000000000001	invalid	0.44989580699984794	51200	0	0	1	51200	1	51200	1	53248	0	0.7	51200	brown	green	1	0	ml	2.7.3	lorasick	sub-15_ses-02_task-ml_proj-lorasick_2021-03-31-14-30-22.353605
56	15	2	2	57	volatile	3	40	17	vs	green	brown	brown	green	right	left	0.7	0.30000000000000004	2	2	1.4	0.6000000000000001	1	0	0.30000000000000004	0.7	2	2	0.6000000000000001	1.4	valid	0.3999235940027575	53248	0	1	1	53248	1	53248	1	53248	1	0.7	53248	brown	green	0	2	ml	2.7.3	lorasick	sub-15_ses-02_task-ml_proj-lorasick_2021-03-31-14-30-22.353605
57	15	2	2	58	volatile	3	40	18	vs	brown	green	brown	green	left	right	0.7	0.30000000000000004	2	4	1.4	1.2000000000000002	1	0	0.7	0.30000000000000004	2	4	1.4	1.2000000000000002	valid	0.4332387760005077	53248	0	1	2	51200	0	51200	0	53248	1	0.7	51200	brown	green	0	0	ml	2.7.3	lorasick	sub-15_ses-02_task-ml_proj-lorasick_2021-03-31-14-30-22.353605
58	15	2	2	59	volatile	3	40	19	vs	green	brown	brown	green	right	left	0.7	0.30000000000000004	2	10	1.4	3.0000000000000004	1	0	0.30000000000000004	0.7	10	2	3.0000000000000004	1.4	valid	0.4998771179998585	51200	0	0	2	51200	1	53248	0	51200	1	0.7	53248	brown	green	0	0	ml	2.7.3	lorasick	sub-15_ses-02_task-ml_proj-lorasick_2021-03-31-14-30-22.353605
59	15	2	2	60	volatile	3	40	20	vs	brown	green	brown	green	left	right	0.7	0.30000000000000004	6	6	4.199999999999998	1.8000000000000005	0	1	0.7	0.30000000000000004	6	6	4.199999999999998	1.8000000000000005	invalid	0.4998826070004725	51200	0	0	1	51200	1	51200	1	53248	0	0.7	51200	brown	green	1	0	ml	2.7.3	lorasick	sub-15_ses-02_task-ml_proj-lorasick_2021-03-31-14-30-22.353605
60	15	2	2	61	volatile	3	40	21	vs	brown	green	brown	green	left	right	0.7	0.30000000000000004	10	2	7.0	0.6000000000000001	1	0	0.7	0.30000000000000004	10	2	7.0	0.6000000000000001	valid	0.7831201659973885	51200	0	0	1	51200	1	51200	1	51200	1	0.7	51200	brown	green	1	10	ml	2.7.3	lorasick	sub-15_ses-02_task-ml_proj-lorasick_2021-03-31-14-30-22.353605
61	15	2	2	62	volatile	3	40	22	vs	brown	green	brown	green	left	right	0.7	0.30000000000000004	4	6	2.8	1.8000000000000005	0	1	0.7	0.30000000000000004	4	6	2.8	1.8000000000000005	invalid	0.4665548310003942	51200	0	0	1	51200	1	51200	1	53248	0	0.7	51200	brown	green	0	0	ml	2.7.3	lorasick	sub-15_ses-02_task-ml_proj-lorasick_2021-03-31-14-30-22.353605
62	15	2	2	63	volatile	3	40	23	vs	green	brown	brown	green	right	left	0.7	0.30000000000000004	6	2	4.199999999999998	0.6000000000000001	1	0	0.30000000000000004	0.7	2	6	0.6000000000000001	4.199999999999998	valid	0.44990171199970064	53248	0	1	1	53248	1	53248	1	53248	1	0.7	53248	brown	green	1	6	ml	2.7.3	lorasick	sub-15_ses-02_task-ml_proj-lorasick_2021-03-31-14-30-22.353605
63	15	2	2	64	volatile	3	40	24	vs	brown	green	brown	green	left	right	0.7	0.30000000000000004	6	4	4.199999999999998	1.2000000000000002	1	0	0.7	0.30000000000000004	6	4	4.199999999999998	1.2000000000000002	valid	0.5165368820016738	51200	0	0	1	51200	1	51200	1	51200	1	0.7	51200	brown	green	1	6	ml	2.7.3	lorasick	sub-15_ses-02_task-ml_proj-lorasick_2021-03-31-14-30-22.353605
64	15	2	2	65	volatile	3	40	25	vs	brown	green	brown	green	left	right	0.7	0.30000000000000004	4	2	2.8	0.6000000000000001	1	0	0.7	0.30000000000000004	4	2	2.8	0.6000000000000001	valid	0.4665528789992095	51200	0	0	1	51200	1	51200	1	51200	1	0.7	51200	brown	green	1	4	ml	2.7.3	lorasick	sub-15_ses-02_task-ml_proj-lorasick_2021-03-31-14-30-22.353605
65	15	2	2	66	volatile	3	40	26	vs	green	brown	brown	green	right	left	0.7	0.30000000000000004	6	6	4.199999999999998	1.8000000000000005	0	1	0.30000000000000004	0.7	6	6	1.8000000000000005	4.199999999999998	invalid	0.4665624059998663	53248	0	1	1	53248	1	53248	1	53248	1	0.7	53248	brown	green	0	0	ml	2.7.3	lorasick	sub-15_ses-02_task-ml_proj-lorasick_2021-03-31-14-30-22.353605
66	15	2	2	67	volatile	3	40	27	vs	brown	green	brown	green	left	right	0.7	0.30000000000000004	4	2	2.8	0.6000000000000001	1	0	0.7	0.30000000000000004	4	2	2.8	0.6000000000000001	valid	0.3499234910013911	51200	0	0	1	51200	1	51200	1	51200	1	0.7	51200	brown	green	1	4	ml	2.7.3	lorasick	sub-15_ses-02_task-ml_proj-lorasick_2021-03-31-14-30-22.353605
67	15	2	2	68	volatile	3	40	28	vs	brown	green	brown	green	left	right	0.7	0.30000000000000004	2	4	1.4	1.2000000000000002	1	0	0.7	0.30000000000000004	2	4	1.4	1.2000000000000002	valid	0.2999353900013375	51200	0	0	1	51200	1	51200	1	53248	0	0.7	51200	brown	green	0	2	ml	2.7.3	lorasick	sub-15_ses-02_task-ml_proj-lorasick_2021-03-31-14-30-22.353605
68	15	2	2	69	volatile	3	40	29	vs	green	brown	brown	green	right	left	0.7	0.30000000000000004	2	2	1.4	0.6000000000000001	0	1	0.30000000000000004	0.7	2	2	0.6000000000000001	1.4	invalid	0.4332413039992389	53248	0	1	1	53248	1	53248	1	53248	1	0.7	53248	brown	green	0	0	ml	2.7.3	lorasick	sub-15_ses-02_task-ml_proj-lorasick_2021-03-31-14-30-22.353605
69	15	2	2	70	volatile	3	40	30	vs	brown	green	brown	green	left	right	0.7	0.30000000000000004	4	6	2.8	1.8000000000000005	1	0	0.7	0.30000000000000004	4	6	2.8	1.8000000000000005	valid	0.34992422399955103	51200	0	0	1	51200	1	51200	1	53248	0	0.7	51200	brown	green	0	4	ml	2.7.3	lorasick	sub-15_ses-02_task-ml_proj-lorasick_2021-03-31-14-30-22.353605
70	15	2	2	71	volatile	3	40	31	vs	green	brown	brown	green	right	left	0.7	0.30000000000000004	6	2	4.199999999999998	0.6000000000000001	1	0	0.30000000000000004	0.7	2	6	0.6000000000000001	4.199999999999998	valid	0.3166095199994743	53248	0	1	1	53248	1	53248	1	53248	1	0.7	53248	brown	green	1	6	ml	2.7.3	lorasick	sub-15_ses-02_task-ml_proj-lorasick_2021-03-31-14-30-22.353605
71	15	2	2	72	volatile	3	40	32	vs	brown	green	brown	green	left	right	0.7	0.30000000000000004	6	6	4.199999999999998	1.8000000000000005	1	0	0.7	0.30000000000000004	6	6	4.199999999999998	1.8000000000000005	valid	0.3499144240013265	51200	0	0	1	51200	1	51200	1	53248	0	0.7	51200	brown	green	1	6	ml	2.7.3	lorasick	sub-15_ses-02_task-ml_proj-lorasick_2021-03-31-14-30-22.353605
72	15	2	2	73	volatile	3	40	33	vs	green	brown	brown	green	right	left	0.7	0.30000000000000004	4	2	2.8	0.6000000000000001	0	1	0.30000000000000004	0.7	2	4	0.6000000000000001	2.8	invalid	0.31660919100249885	53248	0	1	1	53248	1	53248	1	53248	1	0.7	53248	brown	green	1	0	ml	2.7.3	lorasick	sub-15_ses-02_task-ml_proj-lorasick_2021-03-31-14-30-22.353605
73	15	2	2	74	volatile	3	40	34	vs	green	brown	brown	green	right	left	0.7	0.30000000000000004	6	2	4.199999999999998	0.6000000000000001	0	1	0.30000000000000004	0.7	2	6	0.6000000000000001	4.199999999999998	invalid	0.2999456680008734	53248	0	1	1	53248	1	53248	1	53248	1	0.7	53248	brown	green	1	0	ml	2.7.3	lorasick	sub-15_ses-02_task-ml_proj-lorasick_2021-03-31-14-30-22.353605
74	15	2	2	75	volatile	3	40	35	vs	green	brown	brown	green	right	left	0.7	0.30000000000000004	2	4	1.4	1.2000000000000002	1	0	0.30000000000000004	0.7	4	2	1.2000000000000002	1.4	valid	0.2832760139972379	51200	0	0	2	53248	0	53248	0	51200	1	0.7	53248	brown	green	0	0	ml	2.7.3	lorasick	sub-15_ses-02_task-ml_proj-lorasick_2021-03-31-14-30-22.353605
75	15	2	2	76	volatile	3	40	36	vs	green	brown	brown	green	right	left	0.7	0.30000000000000004	4	6	2.8	1.8000000000000005	1	0	0.30000000000000004	0.7	6	4	1.8000000000000005	2.8	valid	0.31660545200065826	53248	0	1	1	53248	1	53248	1	51200	0	0.7	53248	brown	green	0	4	ml	2.7.3	lorasick	sub-15_ses-02_task-ml_proj-lorasick_2021-03-31-14-30-22.353605
76	15	2	2	77	volatile	3	40	37	vs	green	brown	brown	green	right	left	0.7	0.30000000000000004	4	6	2.8	1.8000000000000005	1	0	0.30000000000000004	0.7	6	4	1.8000000000000005	2.8	valid	0.2999437729995407	53248	0	1	1	53248	1	53248	1	51200	0	0.7	53248	brown	green	0	4	ml	2.7.3	lorasick	sub-15_ses-02_task-ml_proj-lorasick_2021-03-31-14-30-22.353605
77	15	2	2	78	volatile	3	40	38	vs	green	brown	brown	green	right	left	0.7	0.30000000000000004	6	6	4.199999999999998	1.8000000000000005	1	0	0.30000000000000004	0.7	6	6	1.8000000000000005	4.199999999999998	valid	0.33327049799845554	53248	0	1	1	53248	1	53248	1	53248	1	0.7	53248	brown	green	0	6	ml	2.7.3	lorasick	sub-15_ses-02_task-ml_proj-lorasick_2021-03-31-14-30-22.353605
78	15	2	2	79	volatile	3	40	39	vs	brown	green	brown	green	left	right	0.7	0.30000000000000004	6	2	4.199999999999998	0.6000000000000001	1	0	0.7	0.30000000000000004	6	2	4.199999999999998	0.6000000000000001	valid	0.3999066119977215	51200	0	0	1	51200	1	51200	1	51200	1	0.7	51200	brown	green	1	6	ml	2.7.3	lorasick	sub-15_ses-02_task-ml_proj-lorasick_2021-03-31-14-30-22.353605
79	15	2	2	80	volatile	3	40	40	vs	green	brown	brown	green	right	left	0.7	0.30000000000000004	2	6	1.4	1.8000000000000005	1	0	0.30000000000000004	0.7	6	2	1.8000000000000005	1.4	valid	0.4498873199991067	51200	0	0	2	51200	1	53248	0	51200	1	0.7	53248	brown	green	0	0	ml	2.7.3	lorasick	sub-15_ses-02_task-ml_proj-lorasick_2021-03-31-14-30-22.353605
80	15	2	2	81	volatile	4	20	1	vs	brown	green	brown	green	left	right	0.30000000000000004	0.7	2	4	0.6000000000000001	2.8	1	0	0.30000000000000004	0.7	2	4	0.6000000000000001	2.8	invalid	0.5331993209983921	51200	0	0	1	53248	0	53248	0	53248	0	0.7	53248	green	brown	1	2	ml	2.7.3	lorasick	sub-15_ses-02_task-ml_proj-lorasick_2021-03-31-14-30-22.353605
81	15	2	2	82	volatile	4	20	2	vs	green	brown	brown	green	right	left	0.30000000000000004	0.7	2	6	0.6000000000000001	4.199999999999998	1	0	0.7	0.30000000000000004	6	2	4.199999999999998	0.6000000000000001	invalid	0.4998881319988868	53248	0	1	1	51200	0	51200	0	51200	0	0.7	51200	green	brown	1	2	ml	2.7.3	lorasick	sub-15_ses-02_task-ml_proj-lorasick_2021-03-31-14-30-22.353605
82	15	2	2	83	volatile	4	20	3	vs	brown	green	brown	green	left	right	0.30000000000000004	0.7	6	4	1.8000000000000005	2.8	0	1	0.30000000000000004	0.7	6	4	1.8000000000000005	2.8	valid	0.31659674500042456	51200	0	0	1	53248	0	53248	0	51200	1	0.7	53248	green	brown	0	0	ml	2.7.3	lorasick	sub-15_ses-02_task-ml_proj-lorasick_2021-03-31-14-30-22.353605
83	15	2	2	84	volatile	4	20	4	vs	green	brown	brown	green	right	left	0.30000000000000004	0.7	6	2	1.8000000000000005	1.4	0	1	0.7	0.30000000000000004	2	6	1.4	1.8000000000000005	valid	0.8331314429997292	53248	0	1	1	53248	1	51200	0	53248	1	0.7	51200	green	brown	0	0	ml	2.7.3	lorasick	sub-15_ses-02_task-ml_proj-lorasick_2021-03-31-14-30-22.353605
84	15	2	2	85	volatile	4	20	5	vs	green	brown	brown	green	right	left	0.30000000000000004	0.7	2	4	0.6000000000000001	2.8	0	1	0.7	0.30000000000000004	4	2	2.8	0.6000000000000001	valid	0.5498604010026611	51200	0	0	2	51200	1	51200	1	51200	1	0.7	51200	green	brown	1	4	ml	2.7.3	lorasick	sub-15_ses-02_task-ml_proj-lorasick_2021-03-31-14-30-22.353605
85	15	2	2	86	volatile	4	20	6	vs	green	brown	brown	green	right	left	0.30000000000000004	0.7	6	6	1.8000000000000005	4.199999999999998	1	0	0.7	0.30000000000000004	6	6	4.199999999999998	1.8000000000000005	invalid	0.5831843710002431	51200	0	0	2	51200	1	51200	1	53248	0	0.7	51200	green	brown	1	0	ml	2.7.3	lorasick	sub-15_ses-02_task-ml_proj-lorasick_2021-03-31-14-30-22.353605
86	15	2	2	87	volatile	4	20	7	vs	brown	green	brown	green	left	right	0.30000000000000004	0.7	2	10	0.6000000000000001	7.0	0	1	0.30000000000000004	0.7	2	10	0.6000000000000001	7.0	valid	0.4332342430025165	53248	0	1	2	53248	1	53248	1	53248	1	0.7	53248	green	brown	1	10	ml	2.7.3	lorasick	sub-15_ses-02_task-ml_proj-lorasick_2021-03-31-14-30-22.353605
87	15	2	2	88	volatile	4	20	8	vs	green	brown	brown	green	right	left	0.30000000000000004	0.7	2	10	0.6000000000000001	7.0	0	1	0.7	0.30000000000000004	10	2	7.0	0.6000000000000001	valid	0.29993886900047073	51200	0	0	2	51200	1	51200	1	51200	1	0.7	51200	green	brown	1	10	ml	2.7.3	lorasick	sub-15_ses-02_task-ml_proj-lorasick_2021-03-31-14-30-22.353605
88	15	2	2	89	volatile	4	20	9	vs	brown	green	brown	green	left	right	0.30000000000000004	0.7	2	4	0.6000000000000001	2.8	0	1	0.30000000000000004	0.7	2	4	0.6000000000000001	2.8	valid	0.4332415120006772	53248	0	1	2	53248	1	53248	1	53248	1	0.7	53248	green	brown	1	4	ml	2.7.3	lorasick	sub-15_ses-02_task-ml_proj-lorasick_2021-03-31-14-30-22.353605
89	15	2	2	90	volatile	4	20	10	vs	brown	green	brown	green	left	right	0.30000000000000004	0.7	6	6	1.8000000000000005	4.199999999999998	0	1	0.30000000000000004	0.7	6	6	1.8000000000000005	4.199999999999998	valid	0.3499319080001442	53248	0	1	2	53248	1	53248	1	53248	1	0.7	53248	green	brown	0	6	ml	2.7.3	lorasick	sub-15_ses-02_task-ml_proj-lorasick_2021-03-31-14-30-22.353605
90	15	2	2	91	volatile	4	20	11	vs	brown	green	brown	green	left	right	0.30000000000000004	0.7	6	4	1.8000000000000005	2.8	0	1	0.30000000000000004	0.7	6	4	1.8000000000000005	2.8	valid	0.4332374900004652	53248	0	1	2	53248	1	53248	1	51200	0	0.7	53248	green	brown	0	4	ml	2.7.3	lorasick	sub-15_ses-02_task-ml_proj-lorasick_2021-03-31-14-30-22.353605
91	15	2	2	92	volatile	4	20	12	vs	brown	green	brown	green	left	right	0.30000000000000004	0.7	2	6	0.6000000000000001	4.199999999999998	1	0	0.30000000000000004	0.7	2	6	0.6000000000000001	4.199999999999998	invalid	0.4498997589980718	53248	0	1	2	53248	1	53248	1	53248	1	0.7	53248	green	brown	1	0	ml	2.7.3	lorasick	sub-15_ses-02_task-ml_proj-lorasick_2021-03-31-14-30-22.353605
92	15	2	2	93	volatile	4	20	13	vs	brown	green	brown	green	left	right	0.30000000000000004	0.7	2	10	0.6000000000000001	7.0	0	1	0.30000000000000004	0.7	2	10	0.6000000000000001	7.0	valid	0.4165803729993057	53248	0	1	2	53248	1	53248	1	53248	1	0.7	53248	green	brown	1	10	ml	2.7.3	lorasick	sub-15_ses-02_task-ml_proj-lorasick_2021-03-31-14-30-22.353605
93	15	2	2	94	volatile	4	20	14	vs	green	brown	brown	green	right	left	0.30000000000000004	0.7	2	6	0.6000000000000001	4.199999999999998	0	1	0.7	0.30000000000000004	6	2	4.199999999999998	0.6000000000000001	valid	0.41656775800220197	51200	0	0	2	51200	1	51200	1	51200	1	0.7	51200	green	brown	1	6	ml	2.7.3	lorasick	sub-15_ses-02_task-ml_proj-lorasick_2021-03-31-14-30-22.353605
94	15	2	2	95	volatile	4	20	15	vs	green	brown	brown	green	right	left	0.30000000000000004	0.7	6	4	1.8000000000000005	2.8	0	1	0.7	0.30000000000000004	4	6	2.8	1.8000000000000005	valid	0.5165387809975073	51200	0	0	2	51200	1	51200	1	53248	0	0.7	51200	green	brown	0	4	ml	2.7.3	lorasick	sub-15_ses-02_task-ml_proj-lorasick_2021-03-31-14-30-22.353605
95	15	2	2	96	volatile	4	20	16	vs	green	brown	brown	green	right	left	0.30000000000000004	0.7	6	4	1.8000000000000005	2.8	1	0	0.7	0.30000000000000004	4	6	2.8	1.8000000000000005	invalid	0.4832143180028652	51200	0	0	2	51200	1	51200	1	53248	0	0.7	51200	green	brown	0	0	ml	2.7.3	lorasick	sub-15_ses-02_task-ml_proj-lorasick_2021-03-31-14-30-22.353605
96	15	2	2	97	volatile	4	20	17	vs	green	brown	brown	green	right	left	0.30000000000000004	0.7	2	4	0.6000000000000001	2.8	0	1	0.7	0.30000000000000004	4	2	2.8	0.6000000000000001	valid	0.4498933590002707	51200	0	0	2	51200	1	51200	1	51200	1	0.7	51200	green	brown	1	4	ml	2.7.3	lorasick	sub-15_ses-02_task-ml_proj-lorasick_2021-03-31-14-30-22.353605
97	15	2	2	98	volatile	4	20	18	vs	brown	green	brown	green	left	right	0.30000000000000004	0.7	10	2	3.0000000000000004	1.4	1	0	0.30000000000000004	0.7	10	2	3.0000000000000004	1.4	invalid	0.7997865079996701	51200	0	0	1	51200	1	53248	0	51200	1	0.7	53248	green	brown	0	10	ml	2.7.3	lorasick	sub-15_ses-02_task-ml_proj-lorasick_2021-03-31-14-30-22.353605
98	15	2	2	99	volatile	4	20	19	vs	brown	green	brown	green	left	right	0.30000000000000004	0.7	2	2	0.6000000000000001	1.4	0	1	0.30000000000000004	0.7	2	2	0.6000000000000001	1.4	valid	0.5831834829987201	51200	0	0	1	53248	0	53248	0	53248	0	0.7	53248	green	brown	0	0	ml	2.7.3	lorasick	sub-15_ses-02_task-ml_proj-lorasick_2021-03-31-14-30-22.353605
99	15	2	2	100	volatile	4	20	20	vs	green	brown	brown	green	right	left	0.30000000000000004	0.7	2	2	0.6000000000000001	1.4	0	1	0.7	0.30000000000000004	2	2	1.4	0.6000000000000001	valid	0.5498737239977345	53248	0	1	1	51200	0	51200	0	53248	1	0.7	51200	green	brown	1	0	ml	2.7.3	lorasick	sub-15_ses-02_task-ml_proj-lorasick_2021-03-31-14-30-22.353605
100	15	2	3	101	volatile	5	40	1	vs	brown	green	brown	green	left	right	0.7	0.30000000000000004	2	10	1.4	3.0000000000000004	0	1	0.7	0.30000000000000004	2	10	1.4	3.0000000000000004	invalid	0.3832556100023794	53248	0	1	2	53248	1	51200	0	53248	1	0.7	51200	brown	green	0	10	ml	2.7.3	lorasick	sub-15_ses-02_task-ml_proj-lorasick_2021-03-31-14-30-22.353605
101	15	2	3	102	volatile	5	40	2	vs	green	brown	brown	green	right	left	0.7	0.30000000000000004	4	2	2.8	0.6000000000000001	0	1	0.30000000000000004	0.7	2	4	0.6000000000000001	2.8	invalid	0.3165975240008265	51200	0	0	2	53248	0	53248	0	53248	0	0.7	53248	brown	green	1	2	ml	2.7.3	lorasick	sub-15_ses-02_task-ml_proj-lorasick_2021-03-31-14-30-22.353605
102	15	2	3	103	volatile	5	40	3	vs	brown	green	brown	green	left	right	0.7	0.30000000000000004	6	4	4.199999999999998	1.2000000000000002	1	0	0.7	0.30000000000000004	6	4	4.199999999999998	1.2000000000000002	valid	0.31663206400116906	53248	0	1	2	51200	0	51200	0	51200	0	0.7	51200	brown	green	1	0	ml	2.7.3	lorasick	sub-15_ses-02_task-ml_proj-lorasick_2021-03-31-14-30-22.353605
103	15	2	3	104	volatile	5	40	4	vs	green	brown	brown	green	right	left	0.7	0.30000000000000004	2	10	1.4	3.0000000000000004	1	0	0.30000000000000004	0.7	10	2	3.0000000000000004	1.4	valid	0.2832759590019123	51200	0	0	2	51200	1	53248	0	51200	1	0.7	53248	brown	green	0	0	ml	2.7.3	lorasick	sub-15_ses-02_task-ml_proj-lorasick_2021-03-31-14-30-22.353605
104	15	2	3	105	volatile	5	40	5	vs	brown	green	brown	green	left	right	0.7	0.30000000000000004	2	10	1.4	3.0000000000000004	1	0	0.7	0.30000000000000004	2	10	1.4	3.0000000000000004	valid	0.3499325869997847	53248	0	1	2	53248	1	51200	0	53248	1	0.7	51200	brown	green	0	0	ml	2.7.3	lorasick	sub-15_ses-02_task-ml_proj-lorasick_2021-03-31-14-30-22.353605
105	15	2	3	106	volatile	5	40	6	vs	brown	green	brown	green	left	right	0.7	0.30000000000000004	2	6	1.4	1.8000000000000005	1	0	0.7	0.30000000000000004	2	6	1.4	1.8000000000000005	valid	0.4332433389972721	53248	0	1	2	53248	1	51200	0	53248	1	0.7	51200	brown	green	0	0	ml	2.7.3	lorasick	sub-15_ses-02_task-ml_proj-lorasick_2021-03-31-14-30-22.353605
106	15	2	3	107	volatile	5	40	7	vs	green	brown	brown	green	right	left	0.7	0.30000000000000004	2	2	1.4	0.6000000000000001	0	1	0.30000000000000004	0.7	2	2	0.6000000000000001	1.4	invalid	0.4832245959987631	53248	0	1	1	53248	1	53248	1	53248	1	0.7	53248	brown	green	0	0	ml	2.7.3	lorasick	sub-15_ses-02_task-ml_proj-lorasick_2021-03-31-14-30-22.353605
107	15	2	3	108	volatile	5	40	8	vs	green	brown	brown	green	right	left	0.7	0.30000000000000004	6	6	4.199999999999998	1.8000000000000005	1	0	0.30000000000000004	0.7	6	6	1.8000000000000005	4.199999999999998	valid	0.3332684660017549	53248	0	1	1	53248	1	53248	1	53248	1	0.7	53248	brown	green	0	6	ml	2.7.3	lorasick	sub-15_ses-02_task-ml_proj-lorasick_2021-03-31-14-30-22.353605
108	15	2	3	109	volatile	5	40	9	vs	brown	green	brown	green	left	right	0.7	0.30000000000000004	2	4	1.4	1.2000000000000002	1	0	0.7	0.30000000000000004	2	4	1.4	1.2000000000000002	valid	0.3332613120001042	51200	0	0	1	51200	1	51200	1	53248	0	0.7	51200	brown	green	0	2	ml	2.7.3	lorasick	sub-15_ses-02_task-ml_proj-lorasick_2021-03-31-14-30-22.353605
109	15	2	3	110	volatile	5	40	10	vs	green	brown	brown	green	right	left	0.7	0.30000000000000004	2	10	1.4	3.0000000000000004	0	1	0.30000000000000004	0.7	10	2	3.0000000000000004	1.4	invalid	0.38325429700125824	53248	0	1	1	51200	0	53248	1	51200	0	0.7	53248	brown	green	0	0	ml	2.7.3	lorasick	sub-15_ses-02_task-ml_proj-lorasick_2021-03-31-14-30-22.353605
110	15	2	3	111	volatile	5	40	11	vs	brown	green	brown	green	left	right	0.7	0.30000000000000004	4	2	2.8	0.6000000000000001	1	0	0.7	0.30000000000000004	4	2	2.8	0.6000000000000001	valid	0.7498030450005899	51200	0	0	1	51200	1	51200	1	51200	1	0.7	51200	brown	green	1	4	ml	2.7.3	lorasick	sub-15_ses-02_task-ml_proj-lorasick_2021-03-31-14-30-22.353605
111	15	2	3	112	volatile	5	40	12	vs	green	brown	brown	green	right	left	0.7	0.30000000000000004	6	4	4.199999999999998	1.2000000000000002	1	0	0.30000000000000004	0.7	4	6	1.2000000000000002	4.199999999999998	valid	0.3166055360015889	53248	0	1	1	53248	1	53248	1	53248	1	0.7	53248	brown	green	1	6	ml	2.7.3	lorasick	sub-15_ses-02_task-ml_proj-lorasick_2021-03-31-14-30-22.353605
112	15	2	3	113	volatile	5	40	13	vs	brown	green	brown	green	left	right	0.7	0.30000000000000004	6	4	4.199999999999998	1.2000000000000002	1	0	0.7	0.30000000000000004	6	4	4.199999999999998	1.2000000000000002	valid	0.3832534109969856	51200	0	0	1	51200	1	51200	1	51200	1	0.7	51200	brown	green	1	6	ml	2.7.3	lorasick	sub-15_ses-02_task-ml_proj-lorasick_2021-03-31-14-30-22.353605
113	15	2	3	114	volatile	5	40	14	vs	green	brown	brown	green	right	left	0.7	0.30000000000000004	6	4	4.199999999999998	1.2000000000000002	0	1	0.30000000000000004	0.7	4	6	1.2000000000000002	4.199999999999998	invalid	0.5332076979975682	53248	0	1	1	53248	1	53248	1	53248	1	0.7	53248	brown	green	1	0	ml	2.7.3	lorasick	sub-15_ses-02_task-ml_proj-lorasick_2021-03-31-14-30-22.353605
114	15	2	3	115	volatile	5	40	15	vs	green	brown	brown	green	right	left	0.7	0.30000000000000004	4	2	2.8	0.6000000000000001	1	0	0.30000000000000004	0.7	2	4	0.6000000000000001	2.8	valid	0.3332703490013955	53248	0	1	1	53248	1	53248	1	53248	1	0.7	53248	brown	green	1	4	ml	2.7.3	lorasick	sub-15_ses-02_task-ml_proj-lorasick_2021-03-31-14-30-22.353605
115	15	2	3	116	volatile	5	40	16	vs	green	brown	brown	green	right	left	0.7	0.30000000000000004	2	4	1.4	1.2000000000000002	1	0	0.30000000000000004	0.7	4	2	1.2000000000000002	1.4	valid	0.31660949000070104	53248	0	1	1	53248	1	53248	1	51200	0	0.7	53248	brown	green	0	2	ml	2.7.3	lorasick	sub-15_ses-02_task-ml_proj-lorasick_2021-03-31-14-30-22.353605
116	15	2	3	117	volatile	5	40	17	vs	green	brown	brown	green	right	left	0.7	0.30000000000000004	6	4	4.199999999999998	1.2000000000000002	1	0	0.30000000000000004	0.7	4	6	1.2000000000000002	4.199999999999998	valid	0.36658744500164175	53248	0	1	1	53248	1	53248	1	53248	1	0.7	53248	brown	green	1	6	ml	2.7.3	lorasick	sub-15_ses-02_task-ml_proj-lorasick_2021-03-31-14-30-22.353605
117	15	2	3	118	volatile	5	40	18	vs	green	brown	brown	green	right	left	0.7	0.30000000000000004	2	2	1.4	0.6000000000000001	1	0	0.30000000000000004	0.7	2	2	0.6000000000000001	1.4	valid	0.5998572780008544	53248	0	1	1	53248	1	53248	1	53248	1	0.7	53248	brown	green	0	2	ml	2.7.3	lorasick	sub-15_ses-02_task-ml_proj-lorasick_2021-03-31-14-30-22.353605
118	15	2	3	119	volatile	5	40	19	vs	green	brown	brown	green	right	left	0.7	0.30000000000000004	6	6	4.199999999999998	1.8000000000000005	1	0	0.30000000000000004	0.7	6	6	1.8000000000000005	4.199999999999998	valid	0.41658054900108255	53248	0	1	1	53248	1	53248	1	53248	1	0.7	53248	brown	green	0	6	ml	2.7.3	lorasick	sub-15_ses-02_task-ml_proj-lorasick_2021-03-31-14-30-22.353605
119	15	2	3	120	volatile	5	40	20	vs	brown	green	brown	green	left	right	0.7	0.30000000000000004	6	6	4.199999999999998	1.8000000000000005	1	0	0.7	0.30000000000000004	6	6	4.199999999999998	1.8000000000000005	valid	0.3999057720029669	51200	0	0	1	51200	1	51200	1	53248	0	0.7	51200	brown	green	1	6	ml	2.7.3	lorasick	sub-15_ses-02_task-ml_proj-lorasick_2021-03-31-14-30-22.353605
120	15	2	3	121	volatile	5	40	21	vs	brown	green	brown	green	left	right	0.7	0.30000000000000004	2	10	1.4	3.0000000000000004	1	0	0.7	0.30000000000000004	2	10	1.4	3.0000000000000004	valid	0.699825576000876	53248	0	1	2	53248	1	51200	0	53248	1	0.7	51200	brown	green	0	0	ml	2.7.3	lorasick	sub-15_ses-02_task-ml_proj-lorasick_2021-03-31-14-30-22.353605
121	15	2	3	122	volatile	5	40	22	vs	brown	green	brown	green	left	right	0.7	0.30000000000000004	2	2	1.4	0.6000000000000001	1	0	0.7	0.30000000000000004	2	2	1.4	0.6000000000000001	valid	0.4498891809998895	51200	0	0	1	51200	1	51200	1	53248	0	0.7	51200	brown	green	1	2	ml	2.7.3	lorasick	sub-15_ses-02_task-ml_proj-lorasick_2021-03-31-14-30-22.353605
122	15	2	3	123	volatile	5	40	23	vs	green	brown	brown	green	right	left	0.7	0.30000000000000004	2	6	1.4	1.8000000000000005	1	0	0.30000000000000004	0.7	6	2	1.8000000000000005	1.4	valid	0.5498619729987695	51200	0	0	2	51200	1	53248	0	51200	1	0.7	53248	brown	green	0	0	ml	2.7.3	lorasick	sub-15_ses-02_task-ml_proj-lorasick_2021-03-31-14-30-22.353605
123	15	2	3	124	volatile	5	40	24	vs	brown	green	brown	green	left	right	0.7	0.30000000000000004	4	2	2.8	0.6000000000000001	0	1	0.7	0.30000000000000004	4	2	2.8	0.6000000000000001	invalid	0.2999475500000699	53248	0	1	2	51200	0	51200	0	51200	0	0.7	51200	brown	green	1	2	ml	2.7.3	lorasick	sub-15_ses-02_task-ml_proj-lorasick_2021-03-31-14-30-22.353605
124	15	2	3	125	volatile	5	40	25	vs	brown	green	brown	green	left	right	0.7	0.30000000000000004	4	2	2.8	0.6000000000000001	1	0	0.7	0.30000000000000004	4	2	2.8	0.6000000000000001	valid	0.34993118299826165	53248	0	1	2	51200	0	51200	0	51200	0	0.7	51200	brown	green	1	0	ml	2.7.3	lorasick	sub-15_ses-02_task-ml_proj-lorasick_2021-03-31-14-30-22.353605
125	15	2	3	126	volatile	5	40	26	vs	green	brown	brown	green	right	left	0.7	0.30000000000000004	2	10	1.4	3.0000000000000004	1	0	0.30000000000000004	0.7	10	2	3.0000000000000004	1.4	valid	0.6498163659998681	51200	0	0	2	51200	1	53248	0	51200	1	0.7	53248	brown	green	0	0	ml	2.7.3	lorasick	sub-15_ses-02_task-ml_proj-lorasick_2021-03-31-14-30-22.353605
126	15	2	3	127	volatile	5	40	27	vs	green	brown	brown	green	right	left	0.7	0.30000000000000004	6	2	4.199999999999998	0.6000000000000001	0	1	0.30000000000000004	0.7	2	6	0.6000000000000001	4.199999999999998	invalid	0.4832222000004549	53248	0	1	1	53248	1	53248	1	53248	1	0.7	53248	brown	green	1	0	ml	2.7.3	lorasick	sub-15_ses-02_task-ml_proj-lorasick_2021-03-31-14-30-22.353605
127	15	2	3	128	volatile	5	40	28	vs	green	brown	brown	green	right	left	0.7	0.30000000000000004	4	2	2.8	0.6000000000000001	1	0	0.30000000000000004	0.7	2	4	0.6000000000000001	2.8	valid	0.49988409400248207	53248	0	1	1	53248	1	53248	1	53248	1	0.7	53248	brown	green	1	4	ml	2.7.3	lorasick	sub-15_ses-02_task-ml_proj-lorasick_2021-03-31-14-30-22.353605
128	15	2	3	129	volatile	5	40	29	vs	brown	green	brown	green	left	right	0.7	0.30000000000000004	10	2	7.0	0.6000000000000001	1	0	0.7	0.30000000000000004	10	2	7.0	0.6000000000000001	valid	0.4498895739998261	51200	0	0	1	51200	1	51200	1	51200	1	0.7	51200	brown	green	1	10	ml	2.7.3	lorasick	sub-15_ses-02_task-ml_proj-lorasick_2021-03-31-14-30-22.353605
129	15	2	3	130	volatile	5	40	30	vs	brown	green	brown	green	left	right	0.7	0.30000000000000004	6	4	4.199999999999998	1.2000000000000002	0	1	0.7	0.30000000000000004	6	4	4.199999999999998	1.2000000000000002	invalid	0.3499158009981329	51200	0	0	1	51200	1	51200	1	51200	1	0.7	51200	brown	green	1	0	ml	2.7.3	lorasick	sub-15_ses-02_task-ml_proj-lorasick_2021-03-31-14-30-22.353605
130	15	2	3	131	volatile	5	40	31	vs	green	brown	brown	green	right	left	0.7	0.30000000000000004	6	2	4.199999999999998	0.6000000000000001	1	0	0.30000000000000004	0.7	2	6	0.6000000000000001	4.199999999999998	valid	0.483216586002527	53248	0	1	1	53248	1	53248	1	53248	1	0.7	53248	brown	green	1	6	ml	2.7.3	lorasick	sub-15_ses-02_task-ml_proj-lorasick_2021-03-31-14-30-22.353605
131	15	2	3	132	volatile	5	40	32	vs	brown	green	brown	green	left	right	0.7	0.30000000000000004	6	6	4.199999999999998	1.8000000000000005	0	1	0.7	0.30000000000000004	6	6	4.199999999999998	1.8000000000000005	invalid	0.5498590169991076	51200	0	0	1	51200	1	51200	1	53248	0	0.7	51200	brown	green	1	0	ml	2.7.3	lorasick	sub-15_ses-02_task-ml_proj-lorasick_2021-03-31-14-30-22.353605
132	15	2	3	133	volatile	5	40	33	vs	brown	green	brown	green	left	right	0.7	0.30000000000000004	4	6	2.8	1.8000000000000005	1	0	0.7	0.30000000000000004	4	6	2.8	1.8000000000000005	valid	0.599864959000115	53248	0	1	2	51200	0	51200	0	53248	1	0.7	51200	brown	green	0	0	ml	2.7.3	lorasick	sub-15_ses-02_task-ml_proj-lorasick_2021-03-31-14-30-22.353605
133	15	2	3	134	volatile	5	40	34	vs	green	brown	brown	green	right	left	0.7	0.30000000000000004	6	2	4.199999999999998	0.6000000000000001	1	0	0.30000000000000004	0.7	2	6	0.6000000000000001	4.199999999999998	valid	0.5332116949975898	53248	0	1	1	53248	1	53248	1	53248	1	0.7	53248	brown	green	1	6	ml	2.7.3	lorasick	sub-15_ses-02_task-ml_proj-lorasick_2021-03-31-14-30-22.353605
134	15	2	3	135	volatile	5	40	35	vs	brown	green	brown	green	left	right	0.7	0.30000000000000004	6	2	4.199999999999998	0.6000000000000001	0	1	0.7	0.30000000000000004	6	2	4.199999999999998	0.6000000000000001	invalid	0.3999064460003865	51200	0	0	1	51200	1	51200	1	51200	1	0.7	51200	brown	green	1	0	ml	2.7.3	lorasick	sub-15_ses-02_task-ml_proj-lorasick_2021-03-31-14-30-22.353605
135	15	2	3	136	volatile	5	40	36	vs	brown	green	brown	green	left	right	0.7	0.30000000000000004	6	2	4.199999999999998	0.6000000000000001	0	1	0.7	0.30000000000000004	6	2	4.199999999999998	0.6000000000000001	invalid	0.34992155699728755	51200	0	0	1	51200	1	51200	1	51200	1	0.7	51200	brown	green	1	0	ml	2.7.3	lorasick	sub-15_ses-02_task-ml_proj-lorasick_2021-03-31-14-30-22.353605
136	15	2	3	137	volatile	5	40	37	vs	brown	green	brown	green	left	right	0.7	0.30000000000000004	2	2	1.4	0.6000000000000001	1	0	0.7	0.30000000000000004	2	2	1.4	0.6000000000000001	valid	0.4332409859998734	53248	0	1	2	51200	0	51200	0	53248	1	0.7	51200	brown	green	1	0	ml	2.7.3	lorasick	sub-15_ses-02_task-ml_proj-lorasick_2021-03-31-14-30-22.353605
137	15	2	3	138	volatile	5	40	38	vs	green	brown	brown	green	right	left	0.7	0.30000000000000004	4	6	2.8	1.8000000000000005	0	1	0.30000000000000004	0.7	6	4	1.8000000000000005	2.8	invalid	0.4165798609974445	53248	0	1	1	53248	1	53248	1	51200	0	0.7	53248	brown	green	0	0	ml	2.7.3	lorasick	sub-15_ses-02_task-ml_proj-lorasick_2021-03-31-14-30-22.353605
138	15	2	3	139	volatile	5	40	39	vs	green	brown	brown	green	right	left	0.7	0.30000000000000004	2	6	1.4	1.8000000000000005	1	0	0.30000000000000004	0.7	6	2	1.8000000000000005	1.4	valid	0.333257810001669	51200	0	0	2	51200	1	53248	0	51200	1	0.7	53248	brown	green	0	0	ml	2.7.3	lorasick	sub-15_ses-02_task-ml_proj-lorasick_2021-03-31-14-30-22.353605
139	15	2	3	140	volatile	5	40	40	vs	brown	green	brown	green	left	right	0.7	0.30000000000000004	2	10	1.4	3.0000000000000004	1	0	0.7	0.30000000000000004	2	10	1.4	3.0000000000000004	valid	0.4332411450013751	53248	0	1	2	53248	1	51200	0	53248	1	0.7	51200	brown	green	0	0	ml	2.7.3	lorasick	sub-15_ses-02_task-ml_proj-lorasick_2021-03-31-14-30-22.353605
140	15	2	3	141	volatile	6	20	1	vs	green	brown	brown	green	right	left	0.30000000000000004	0.7	6	6	1.8000000000000005	4.199999999999998	0	1	0.7	0.30000000000000004	6	6	4.199999999999998	1.8000000000000005	valid	0.7164826189982705	53248	0	1	1	51200	0	51200	0	53248	1	0.7	51200	green	brown	1	0	ml	2.7.3	lorasick	sub-15_ses-02_task-ml_proj-lorasick_2021-03-31-14-30-22.353605
141	15	2	3	142	volatile	6	20	2	vs	green	brown	brown	green	right	left	0.30000000000000004	0.7	6	6	1.8000000000000005	4.199999999999998	0	1	0.7	0.30000000000000004	6	6	4.199999999999998	1.8000000000000005	valid	0.4332396339996194	53248	0	1	1	51200	0	51200	0	53248	1	0.7	51200	green	brown	1	0	ml	2.7.3	lorasick	sub-15_ses-02_task-ml_proj-lorasick_2021-03-31-14-30-22.353605
142	15	2	3	143	volatile	6	20	3	vs	green	brown	brown	green	right	left	0.30000000000000004	0.7	6	4	1.8000000000000005	2.8	0	1	0.7	0.30000000000000004	4	6	2.8	1.8000000000000005	valid	0.349930887001392	53248	0	1	1	51200	0	51200	0	53248	1	0.7	51200	green	brown	0	0	ml	2.7.3	lorasick	sub-15_ses-02_task-ml_proj-lorasick_2021-03-31-14-30-22.353605
143	15	2	3	144	volatile	6	20	4	vs	brown	green	brown	green	left	right	0.30000000000000004	0.7	2	2	0.6000000000000001	1.4	0	1	0.30000000000000004	0.7	2	2	0.6000000000000001	1.4	valid	0.5665356549980061	53248	0	1	2	53248	1	53248	1	53248	1	0.7	53248	green	brown	0	2	ml	2.7.3	lorasick	sub-15_ses-02_task-ml_proj-lorasick_2021-03-31-14-30-22.353605
144	15	2	3	145	volatile	6	20	5	vs	brown	green	brown	green	left	right	0.30000000000000004	0.7	6	2	1.8000000000000005	1.4	0	1	0.30000000000000004	0.7	6	2	1.8000000000000005	1.4	valid	0.4499111039986019	53248	0	1	2	51200	0	53248	1	51200	0	0.7	53248	green	brown	0	2	ml	2.7.3	lorasick	sub-15_ses-02_task-ml_proj-lorasick_2021-03-31-14-30-22.353605
145	15	2	3	146	volatile	6	20	6	vs	green	brown	brown	green	right	left	0.30000000000000004	0.7	4	2	1.2000000000000002	1.4	0	1	0.7	0.30000000000000004	2	4	1.4	1.2000000000000002	valid	0.4832182540012582	51200	0	0	2	51200	1	51200	1	53248	0	0.7	51200	green	brown	0	2	ml	2.7.3	lorasick	sub-15_ses-02_task-ml_proj-lorasick_2021-03-31-14-30-22.353605
146	15	2	3	147	volatile	6	20	7	vs	green	brown	brown	green	right	left	0.30000000000000004	0.7	10	2	3.0000000000000004	1.4	1	0	0.7	0.30000000000000004	2	10	1.4	3.0000000000000004	invalid	0.4832205160018929	51200	0	0	2	53248	0	51200	1	53248	0	0.7	51200	green	brown	0	0	ml	2.7.3	lorasick	sub-15_ses-02_task-ml_proj-lorasick_2021-03-31-14-30-22.353605
147	15	2	3	148	volatile	6	20	8	vs	brown	green	brown	green	left	right	0.30000000000000004	0.7	6	4	1.8000000000000005	2.8	1	0	0.30000000000000004	0.7	6	4	1.8000000000000005	2.8	invalid	0.4998858950020804	53248	0	1	2	53248	1	53248	1	51200	0	0.7	53248	green	brown	0	0	ml	2.7.3	lorasick	sub-15_ses-02_task-ml_proj-lorasick_2021-03-31-14-30-22.353605
148	15	2	3	149	volatile	6	20	9	vs	brown	green	brown	green	left	right	0.30000000000000004	0.7	4	6	1.2000000000000002	4.199999999999998	0	1	0.30000000000000004	0.7	4	6	1.2000000000000002	4.199999999999998	valid	0.5332164989995363	53248	0	1	2	53248	1	53248	1	53248	1	0.7	53248	green	brown	1	6	ml	2.7.3	lorasick	sub-15_ses-02_task-ml_proj-lorasick_2021-03-31-14-30-22.353605
149	15	2	3	150	volatile	6	20	10	vs	green	brown	brown	green	right	left	0.30000000000000004	0.7	6	2	1.8000000000000005	1.4	1	0	0.7	0.30000000000000004	2	6	1.4	1.8000000000000005	invalid	0.5665418759999739	53248	0	1	1	53248	1	51200	0	53248	1	0.7	51200	green	brown	0	6	ml	2.7.3	lorasick	sub-15_ses-02_task-ml_proj-lorasick_2021-03-31-14-30-22.353605
150	15	2	4	151	volatile	6	20	11	vs	brown	green	brown	green	left	right	0.30000000000000004	0.7	4	2	1.2000000000000002	1.4	0	1	0.30000000000000004	0.7	4	2	1.2000000000000002	1.4	valid	0.4998869139999442	53248	0	1	2	53248	1	53248	1	51200	0	0.7	53248	green	brown	0	2	ml	2.7.3	lorasick	sub-15_ses-02_task-ml_proj-lorasick_2021-03-31-14-30-22.353605
151	15	2	4	152	volatile	6	20	12	vs	brown	green	brown	green	left	right	0.30000000000000004	0.7	10	2	3.0000000000000004	1.4	0	1	0.30000000000000004	0.7	10	2	3.0000000000000004	1.4	valid	0.5831874049981707	51200	0	0	1	51200	1	53248	0	51200	1	0.7	53248	green	brown	0	0	ml	2.7.3	lorasick	sub-15_ses-02_task-ml_proj-lorasick_2021-03-31-14-30-22.353605
152	15	2	4	153	volatile	6	20	13	vs	green	brown	brown	green	right	left	0.30000000000000004	0.7	2	6	0.6000000000000001	4.199999999999998	0	1	0.7	0.30000000000000004	6	2	4.199999999999998	0.6000000000000001	valid	0.4832146980006655	51200	0	0	2	51200	1	51200	1	51200	1	0.7	51200	green	brown	1	6	ml	2.7.3	lorasick	sub-15_ses-02_task-ml_proj-lorasick_2021-03-31-14-30-22.353605
153	15	2	4	154	volatile	6	20	14	vs	brown	green	brown	green	left	right	0.30000000000000004	0.7	2	4	0.6000000000000001	2.8	1	0	0.30000000000000004	0.7	2	4	0.6000000000000001	2.8	invalid	0.3499296299996786	53248	0	1	2	53248	1	53248	1	53248	1	0.7	53248	green	brown	1	0	ml	2.7.3	lorasick	sub-15_ses-02_task-ml_proj-lorasick_2021-03-31-14-30-22.353605
154	15	2	4	155	volatile	6	20	15	vs	green	brown	brown	green	right	left	0.30000000000000004	0.7	2	10	0.6000000000000001	7.0	0	1	0.7	0.30000000000000004	10	2	7.0	0.6000000000000001	valid	0.31659647500055144	51200	0	0	2	51200	1	51200	1	51200	1	0.7	51200	green	brown	1	10	ml	2.7.3	lorasick	sub-15_ses-02_task-ml_proj-lorasick_2021-03-31-14-30-22.353605
155	15	2	4	156	volatile	6	20	16	vs	green	brown	brown	green	right	left	0.30000000000000004	0.7	2	2	0.6000000000000001	1.4	1	0	0.7	0.30000000000000004	2	2	1.4	0.6000000000000001	invalid	0.4165666839980986	51200	0	0	2	51200	1	51200	1	53248	0	0.7	51200	green	brown	1	0	ml	2.7.3	lorasick	sub-15_ses-02_task-ml_proj-lorasick_2021-03-31-14-30-22.353605
156	15	2	4	157	volatile	6	20	17	vs	green	brown	brown	green	right	left	0.30000000000000004	0.7	6	2	1.8000000000000005	1.4	0	1	0.7	0.30000000000000004	2	6	1.4	1.8000000000000005	valid	0.4165948890004074	51200	0	0	2	53248	0	51200	1	53248	0	0.7	51200	green	brown	0	2	ml	2.7.3	lorasick	sub-15_ses-02_task-ml_proj-lorasick_2021-03-31-14-30-22.353605
157	15	2	4	158	volatile	6	20	18	vs	brown	green	brown	green	left	right	0.30000000000000004	0.7	2	10	0.6000000000000001	7.0	0	1	0.30000000000000004	0.7	2	10	0.6000000000000001	7.0	valid	0.3499332369974581	53248	0	1	2	53248	1	53248	1	53248	1	0.7	53248	green	brown	1	10	ml	2.7.3	lorasick	sub-15_ses-02_task-ml_proj-lorasick_2021-03-31-14-30-22.353605
158	15	2	4	159	volatile	6	20	19	vs	brown	green	brown	green	left	right	0.30000000000000004	0.7	4	2	1.2000000000000002	1.4	1	0	0.30000000000000004	0.7	4	2	1.2000000000000002	1.4	invalid	0.38325545900079305	53248	0	1	2	53248	1	53248	1	51200	0	0.7	53248	green	brown	0	0	ml	2.7.3	lorasick	sub-15_ses-02_task-ml_proj-lorasick_2021-03-31-14-30-22.353605
159	15	2	4	160	volatile	6	20	20	vs	brown	green	brown	green	left	right	0.30000000000000004	0.7	6	4	1.8000000000000005	2.8	0	1	0.30000000000000004	0.7	6	4	1.8000000000000005	2.8	valid	0.2832852339997771	53248	0	1	2	53248	1	53248	1	51200	0	0.7	53248	green	brown	0	4	ml	2.7.3	lorasick	sub-15_ses-02_task-ml_proj-lorasick_2021-03-31-14-30-22.353605
160	15	2	4	161	volatile	7	40	1	vs	green	brown	brown	green	right	left	0.7	0.30000000000000004	6	2	4.199999999999998	0.6000000000000001	1	0	0.30000000000000004	0.7	2	6	0.6000000000000001	4.199999999999998	valid	0.33326054299686797	51200	0	0	2	53248	0	53248	0	53248	0	0.7	53248	brown	green	1	0	ml	2.7.3	lorasick	sub-15_ses-02_task-ml_proj-lorasick_2021-03-31-14-30-22.353605
161	15	2	4	162	volatile	7	40	2	vs	green	brown	brown	green	right	left	0.7	0.30000000000000004	2	2	1.4	0.6000000000000001	0	1	0.30000000000000004	0.7	2	2	0.6000000000000001	1.4	invalid	0.3332577990004211	51200	0	0	2	53248	0	53248	0	53248	0	0.7	53248	brown	green	0	2	ml	2.7.3	lorasick	sub-15_ses-02_task-ml_proj-lorasick_2021-03-31-14-30-22.353605
162	15	2	4	163	volatile	7	40	3	vs	green	brown	brown	green	right	left	0.7	0.30000000000000004	6	2	4.199999999999998	0.6000000000000001	1	0	0.30000000000000004	0.7	2	6	0.6000000000000001	4.199999999999998	valid	0.3165987119973579	51200	0	0	2	53248	0	53248	0	53248	0	0.7	53248	brown	green	1	0	ml	2.7.3	lorasick	sub-15_ses-02_task-ml_proj-lorasick_2021-03-31-14-30-22.353605
163	15	2	4	164	volatile	7	40	4	vs	brown	green	brown	green	left	right	0.7	0.30000000000000004	6	2	4.199999999999998	0.6000000000000001	1	0	0.7	0.30000000000000004	6	2	4.199999999999998	0.6000000000000001	valid	0.34992564100321033	53248	0	1	2	51200	0	51200	0	51200	0	0.7	51200	brown	green	1	0	ml	2.7.3	lorasick	sub-15_ses-02_task-ml_proj-lorasick_2021-03-31-14-30-22.353605
164	15	2	4	165	volatile	7	40	5	vs	brown	green	brown	green	left	right	0.7	0.30000000000000004	2	4	1.4	1.2000000000000002	1	0	0.7	0.30000000000000004	2	4	1.4	1.2000000000000002	valid	0.3166085699995165	53248	0	1	2	51200	0	51200	0	53248	1	0.7	51200	brown	green	0	0	ml	2.7.3	lorasick	sub-15_ses-02_task-ml_proj-lorasick_2021-03-31-14-30-22.353605
165	15	2	4	166	volatile	7	40	6	vs	brown	green	brown	green	left	right	0.7	0.30000000000000004	2	2	1.4	0.6000000000000001	1	0	0.7	0.30000000000000004	2	2	1.4	0.6000000000000001	valid	0.41658407599970815	53248	0	1	2	51200	0	51200	0	53248	1	0.7	51200	brown	green	1	0	ml	2.7.3	lorasick	sub-15_ses-02_task-ml_proj-lorasick_2021-03-31-14-30-22.353605
166	15	2	4	167	volatile	7	40	7	vs	green	brown	brown	green	right	left	0.7	0.30000000000000004	6	2	4.199999999999998	0.6000000000000001	1	0	0.30000000000000004	0.7	2	6	0.6000000000000001	4.199999999999998	valid	0.2999356710024585	51200	0	0	2	53248	0	53248	0	53248	0	0.7	53248	brown	green	1	0	ml	2.7.3	lorasick	sub-15_ses-02_task-ml_proj-lorasick_2021-03-31-14-30-22.353605
167	15	2	4	168	volatile	7	40	8	vs	brown	green	brown	green	left	right	0.7	0.30000000000000004	6	6	4.199999999999998	1.8000000000000005	0	1	0.7	0.30000000000000004	6	6	4.199999999999998	1.8000000000000005	invalid	0.4332403720000002	53248	0	1	2	51200	0	51200	0	53248	1	0.7	51200	brown	green	1	6	ml	2.7.3	lorasick	sub-15_ses-02_task-ml_proj-lorasick_2021-03-31-14-30-22.353605
168	15	2	4	169	volatile	7	40	9	vs	brown	green	brown	green	left	right	0.7	0.30000000000000004	4	2	2.8	0.6000000000000001	1	0	0.7	0.30000000000000004	4	2	2.8	0.6000000000000001	valid	0.4165716909992625	53248	0	1	2	51200	0	51200	0	51200	0	0.7	51200	brown	green	1	0	ml	2.7.3	lorasick	sub-15_ses-02_task-ml_proj-lorasick_2021-03-31-14-30-22.353605
169	15	2	4	170	volatile	7	40	10	vs	brown	green	brown	green	left	right	0.7	0.30000000000000004	6	4	4.199999999999998	1.2000000000000002	1	0	0.7	0.30000000000000004	6	4	4.199999999999998	1.2000000000000002	valid	0.3832498160008981	51200	0	0	1	51200	1	51200	1	51200	1	0.7	51200	brown	green	1	6	ml	2.7.3	lorasick	sub-15_ses-02_task-ml_proj-lorasick_2021-03-31-14-30-22.353605
170	15	2	4	171	volatile	7	40	11	vs	green	brown	brown	green	right	left	0.7	0.30000000000000004	2	6	1.4	1.8000000000000005	0	1	0.30000000000000004	0.7	6	2	1.8000000000000005	1.4	invalid	0.3832307070006209	53248	0	1	1	51200	0	53248	1	51200	0	0.7	53248	brown	green	0	0	ml	2.7.3	lorasick	sub-15_ses-02_task-ml_proj-lorasick_2021-03-31-14-30-22.353605
171	15	2	4	172	volatile	7	40	12	vs	green	brown	brown	green	right	left	0.7	0.30000000000000004	10	2	7.0	0.6000000000000001	1	0	0.30000000000000004	0.7	2	10	0.6000000000000001	7.0	valid	0.4332408949994715	53248	0	1	1	53248	1	53248	1	53248	1	0.7	53248	brown	green	1	10	ml	2.7.3	lorasick	sub-15_ses-02_task-ml_proj-lorasick_2021-03-31-14-30-22.353605
172	15	2	4	173	volatile	7	40	13	vs	brown	green	brown	green	left	right	0.7	0.30000000000000004	2	10	1.4	3.0000000000000004	0	1	0.7	0.30000000000000004	2	10	1.4	3.0000000000000004	invalid	0.5165500889997929	53248	0	1	2	53248	1	51200	0	53248	1	0.7	51200	brown	green	0	10	ml	2.7.3	lorasick	sub-15_ses-02_task-ml_proj-lorasick_2021-03-31-14-30-22.353605
173	15	2	4	174	volatile	7	40	14	vs	green	brown	brown	green	right	left	0.7	0.30000000000000004	2	2	1.4	0.6000000000000001	1	0	0.30000000000000004	0.7	2	2	0.6000000000000001	1.4	valid	0.4832334919992718	53248	0	1	1	53248	1	53248	1	53248	1	0.7	53248	brown	green	0	2	ml	2.7.3	lorasick	sub-15_ses-02_task-ml_proj-lorasick_2021-03-31-14-30-22.353605
174	15	2	4	175	volatile	7	40	15	vs	brown	green	brown	green	left	right	0.7	0.30000000000000004	6	4	4.199999999999998	1.2000000000000002	1	0	0.7	0.30000000000000004	6	4	4.199999999999998	1.2000000000000002	valid	0.433236164997652	51200	0	0	1	51200	1	51200	1	51200	1	0.7	51200	brown	green	1	6	ml	2.7.3	lorasick	sub-15_ses-02_task-ml_proj-lorasick_2021-03-31-14-30-22.353605
175	15	2	4	176	volatile	7	40	16	vs	green	brown	brown	green	right	left	0.7	0.30000000000000004	4	2	2.8	0.6000000000000001	0	1	0.30000000000000004	0.7	2	4	0.6000000000000001	2.8	invalid	0.4499008179991506	53248	0	1	1	53248	1	53248	1	53248	1	0.7	53248	brown	green	1	0	ml	2.7.3	lorasick	sub-15_ses-02_task-ml_proj-lorasick_2021-03-31-14-30-22.353605
176	15	2	4	177	volatile	7	40	17	vs	brown	green	brown	green	left	right	0.7	0.30000000000000004	2	10	1.4	3.0000000000000004	1	0	0.7	0.30000000000000004	2	10	1.4	3.0000000000000004	valid	0.5998553579993313	53248	0	1	2	53248	1	51200	0	53248	1	0.7	51200	brown	green	0	0	ml	2.7.3	lorasick	sub-15_ses-02_task-ml_proj-lorasick_2021-03-31-14-30-22.353605
177	15	2	4	178	volatile	7	40	18	vs	green	brown	brown	green	right	left	0.7	0.30000000000000004	2	10	1.4	3.0000000000000004	1	0	0.30000000000000004	0.7	10	2	3.0000000000000004	1.4	valid	0.8830900639986794	51200	0	0	2	51200	1	53248	0	51200	1	0.7	53248	brown	green	0	0	ml	2.7.3	lorasick	sub-15_ses-02_task-ml_proj-lorasick_2021-03-31-14-30-22.353605
178	15	2	4	179	volatile	7	40	19	vs	brown	green	brown	green	left	right	0.7	0.30000000000000004	2	2	1.4	0.6000000000000001	1	0	0.7	0.30000000000000004	2	2	1.4	0.6000000000000001	valid	1.0330508619990724	51200	0	0	1	51200	1	51200	1	53248	0	0.7	51200	brown	green	1	2	ml	2.7.3	lorasick	sub-15_ses-02_task-ml_proj-lorasick_2021-03-31-14-30-22.353605
179	15	2	4	180	volatile	7	40	20	vs	brown	green	brown	green	left	right	0.7	0.30000000000000004	4	6	2.8	1.8000000000000005	1	0	0.7	0.30000000000000004	4	6	2.8	1.8000000000000005	valid	0.6664944170006493	51200	0	0	1	51200	1	51200	1	53248	0	0.7	51200	brown	green	0	4	ml	2.7.3	lorasick	sub-15_ses-02_task-ml_proj-lorasick_2021-03-31-14-30-22.353605
180	15	2	4	181	volatile	7	40	21	vs	green	brown	brown	green	right	left	0.7	0.30000000000000004	2	4	1.4	1.2000000000000002	1	0	0.30000000000000004	0.7	4	2	1.2000000000000002	1.4	valid	0.5665335080011573	53248	0	1	1	53248	1	53248	1	51200	0	0.7	53248	brown	green	0	2	ml	2.7.3	lorasick	sub-15_ses-02_task-ml_proj-lorasick_2021-03-31-14-30-22.353605
181	15	2	4	182	volatile	7	40	22	vs	green	brown	brown	green	right	left	0.7	0.30000000000000004	6	4	4.199999999999998	1.2000000000000002	0	1	0.30000000000000004	0.7	4	6	1.2000000000000002	4.199999999999998	invalid	0.6165170409985876	53248	0	1	1	53248	1	53248	1	53248	1	0.7	53248	brown	green	1	0	ml	2.7.3	lorasick	sub-15_ses-02_task-ml_proj-lorasick_2021-03-31-14-30-22.353605
182	15	2	4	183	volatile	7	40	23	vs	brown	green	brown	green	left	right	0.7	0.30000000000000004	6	6	4.199999999999998	1.8000000000000005	0	1	0.7	0.30000000000000004	6	6	4.199999999999998	1.8000000000000005	invalid	0.51653612699738	51200	0	0	1	51200	1	51200	1	53248	0	0.7	51200	brown	green	1	0	ml	2.7.3	lorasick	sub-15_ses-02_task-ml_proj-lorasick_2021-03-31-14-30-22.353605
183	15	2	4	184	volatile	7	40	24	vs	brown	green	brown	green	left	right	0.7	0.30000000000000004	2	6	1.4	1.8000000000000005	1	0	0.7	0.30000000000000004	2	6	1.4	1.8000000000000005	valid	0.9164185369991174	51200	0	0	1	53248	0	51200	1	53248	0	0.7	51200	brown	green	0	2	ml	2.7.3	lorasick	sub-15_ses-02_task-ml_proj-lorasick_2021-03-31-14-30-22.353605
184	15	2	4	185	volatile	7	40	25	vs	brown	green	brown	green	left	right	0.7	0.30000000000000004	2	10	1.4	3.0000000000000004	0	1	0.7	0.30000000000000004	2	10	1.4	3.0000000000000004	invalid	0.7164809930000047	53248	0	1	2	53248	1	51200	0	53248	1	0.7	51200	brown	green	0	10	ml	2.7.3	lorasick	sub-15_ses-02_task-ml_proj-lorasick_2021-03-31-14-30-22.353605
185	15	2	4	186	volatile	7	40	26	vs	brown	green	brown	green	left	right	0.7	0.30000000000000004	6	2	4.199999999999998	0.6000000000000001	1	0	0.7	0.30000000000000004	6	2	4.199999999999998	0.6000000000000001	valid	0.9164314330009802	53248	0	1	2	51200	0	51200	0	51200	0	0.7	51200	brown	green	1	0	ml	2.7.3	lorasick	sub-15_ses-02_task-ml_proj-lorasick_2021-03-31-14-30-22.353605
186	15	2	4	187	volatile	7	40	27	vs	green	brown	brown	green	right	left	0.7	0.30000000000000004	2	6	1.4	1.8000000000000005	0	1	0.30000000000000004	0.7	6	2	1.8000000000000005	1.4	invalid	0.5331978959984554	51200	0	0	2	51200	1	53248	0	51200	1	0.7	53248	brown	green	0	6	ml	2.7.3	lorasick	sub-15_ses-02_task-ml_proj-lorasick_2021-03-31-14-30-22.353605
187	15	2	4	188	volatile	7	40	28	vs	brown	green	brown	green	left	right	0.7	0.30000000000000004	10	2	7.0	0.6000000000000001	1	0	0.7	0.30000000000000004	10	2	7.0	0.6000000000000001	valid	0.999727381997218	51200	0	0	1	51200	1	51200	1	51200	1	0.7	51200	brown	green	1	10	ml	2.7.3	lorasick	sub-15_ses-02_task-ml_proj-lorasick_2021-03-31-14-30-22.353605
188	15	2	4	189	volatile	7	40	29	vs	green	brown	brown	green	right	left	0.7	0.30000000000000004	6	6	4.199999999999998	1.8000000000000005	1	0	0.30000000000000004	0.7	6	6	1.8000000000000005	4.199999999999998	valid	1.2329883620004694	51200	0	0	2	53248	0	53248	0	53248	0	0.7	53248	brown	green	0	0	ml	2.7.3	lorasick	sub-15_ses-02_task-ml_proj-lorasick_2021-03-31-14-30-22.353605
189	15	2	4	190	volatile	7	40	30	vs	green	brown	brown	green	right	left	0.7	0.30000000000000004	2	10	1.4	3.0000000000000004	1	0	0.30000000000000004	0.7	10	2	3.0000000000000004	1.4	valid	0.8997570000028645	51200	0	0	2	51200	1	53248	0	51200	1	0.7	53248	brown	green	0	0	ml	2.7.3	lorasick	sub-15_ses-02_task-ml_proj-lorasick_2021-03-31-14-30-22.353605
190	15	2	4	191	volatile	7	40	31	vs	green	brown	brown	green	right	left	0.7	0.30000000000000004	6	6	4.199999999999998	1.8000000000000005	1	0	0.30000000000000004	0.7	6	6	1.8000000000000005	4.199999999999998	valid	0.5332111700008682	53248	0	1	1	53248	1	53248	1	53248	1	0.7	53248	brown	green	0	6	ml	2.7.3	lorasick	sub-15_ses-02_task-ml_proj-lorasick_2021-03-31-14-30-22.353605
191	15	2	4	192	volatile	7	40	32	vs	green	brown	brown	green	right	left	0.7	0.30000000000000004	4	6	2.8	1.8000000000000005	0	1	0.30000000000000004	0.7	6	4	1.8000000000000005	2.8	invalid	0.5498707920014567	53248	0	1	1	53248	1	53248	1	51200	0	0.7	53248	brown	green	0	0	ml	2.7.3	lorasick	sub-15_ses-02_task-ml_proj-lorasick_2021-03-31-14-30-22.353605
192	15	2	4	193	volatile	7	40	33	vs	green	brown	brown	green	right	left	0.7	0.30000000000000004	2	4	1.4	1.2000000000000002	1	0	0.30000000000000004	0.7	4	2	1.2000000000000002	1.4	valid	0.4665531250029744	51200	0	0	2	53248	0	53248	0	51200	1	0.7	53248	brown	green	0	0	ml	2.7.3	lorasick	sub-15_ses-02_task-ml_proj-lorasick_2021-03-31-14-30-22.353605
193	15	2	4	194	volatile	7	40	34	vs	brown	green	brown	green	left	right	0.7	0.30000000000000004	6	4	4.199999999999998	1.2000000000000002	1	0	0.7	0.30000000000000004	6	4	4.199999999999998	1.2000000000000002	valid	0.6665053060023638	53248	0	1	2	51200	0	51200	0	51200	0	0.7	51200	brown	green	1	0	ml	2.7.3	lorasick	sub-15_ses-02_task-ml_proj-lorasick_2021-03-31-14-30-22.353605
194	15	2	4	195	volatile	7	40	35	vs	green	brown	brown	green	right	left	0.7	0.30000000000000004	2	4	1.4	1.2000000000000002	1	0	0.30000000000000004	0.7	4	2	1.2000000000000002	1.4	valid	0.483218796998699	53248	0	1	1	53248	1	53248	1	51200	0	0.7	53248	brown	green	0	2	ml	2.7.3	lorasick	sub-15_ses-02_task-ml_proj-lorasick_2021-03-31-14-30-22.353605
195	15	2	4	196	volatile	7	40	36	vs	green	brown	brown	green	right	left	0.7	0.30000000000000004	2	10	1.4	3.0000000000000004	1	0	0.30000000000000004	0.7	10	2	3.0000000000000004	1.4	valid	0.2999484460015083	53248	0	1	1	51200	0	53248	1	51200	0	0.7	53248	brown	green	0	2	ml	2.7.3	lorasick	sub-15_ses-02_task-ml_proj-lorasick_2021-03-31-14-30-22.353605
196	15	2	4	197	volatile	7	40	37	vs	brown	green	brown	green	left	right	0.7	0.30000000000000004	4	6	2.8	1.8000000000000005	1	0	0.7	0.30000000000000004	4	6	2.8	1.8000000000000005	valid	0.3999071090001962	51200	0	0	1	51200	1	51200	1	53248	0	0.7	51200	brown	green	0	4	ml	2.7.3	lorasick	sub-15_ses-02_task-ml_proj-lorasick_2021-03-31-14-30-22.353605
197	15	2	4	198	volatile	7	40	38	vs	brown	green	brown	green	left	right	0.7	0.30000000000000004	2	4	1.4	1.2000000000000002	0	1	0.7	0.30000000000000004	2	4	1.4	1.2000000000000002	invalid	0.3665823870032909	51200	0	0	1	51200	1	51200	1	53248	0	0.7	51200	brown	green	0	0	ml	2.7.3	lorasick	sub-15_ses-02_task-ml_proj-lorasick_2021-03-31-14-30-22.353605
198	15	2	4	199	volatile	7	40	39	vs	green	brown	brown	green	right	left	0.7	0.30000000000000004	4	2	2.8	0.6000000000000001	1	0	0.30000000000000004	0.7	2	4	0.6000000000000001	2.8	valid	0.31660561099852197	53248	0	1	1	53248	1	53248	1	53248	1	0.7	53248	brown	green	1	4	ml	2.7.3	lorasick	sub-15_ses-02_task-ml_proj-lorasick_2021-03-31-14-30-22.353605
199	15	2	4	200	volatile	7	40	40	vs	brown	green	brown	green	left	right	0.7	0.30000000000000004	4	6	2.8	1.8000000000000005	0	1	0.7	0.30000000000000004	4	6	2.8	1.8000000000000005	invalid	0.3999083300004713	51200	0	0	1	51200	1	51200	1	53248	0	0.7	51200	brown	green	0	0	ml	2.7.3	lorasick	sub-15_ses-02_task-ml_proj-lorasick_2021-03-31-14-30-22.353605
200	15	2	5	201	stable	8	200	1	vs	brown	green	brown	green	left	right	0.30000000000000004	0.7	2	4	0.6000000000000001	2.8	0	1	0.30000000000000004	0.7	2	4	0.6000000000000001	2.8	valid	0.6331806880007207	53248	0	1	2	53248	1	53248	1	53248	1	0.7	53248	green	brown	1	4	ml	2.7.3	lorasick	sub-15_ses-02_task-ml_proj-lorasick_2021-03-31-14-30-22.353605
201	15	2	5	202	stable	8	200	2	vs	green	brown	brown	green	right	left	0.30000000000000004	0.7	6	4	1.8000000000000005	2.8	1	0	0.7	0.30000000000000004	4	6	2.8	1.8000000000000005	invalid	0.3332603390008444	51200	0	0	2	51200	1	51200	1	53248	0	0.7	51200	green	brown	0	0	ml	2.7.3	lorasick	sub-15_ses-02_task-ml_proj-lorasick_2021-03-31-14-30-22.353605
202	15	2	5	203	stable	8	200	3	vs	brown	green	brown	green	left	right	0.30000000000000004	0.7	2	4	0.6000000000000001	2.8	1	0	0.30000000000000004	0.7	2	4	0.6000000000000001	2.8	invalid	0.48321024300094	51200	0	0	1	53248	0	53248	0	53248	0	0.7	53248	green	brown	1	2	ml	2.7.3	lorasick	sub-15_ses-02_task-ml_proj-lorasick_2021-03-31-14-30-22.353605
203	15	2	5	204	stable	8	200	4	vs	green	brown	brown	green	right	left	0.30000000000000004	0.7	4	2	1.2000000000000002	1.4	1	0	0.7	0.30000000000000004	2	4	1.4	1.2000000000000002	invalid	0.3499393419988337	53248	0	1	1	51200	0	51200	0	53248	1	0.7	51200	green	brown	0	4	ml	2.7.3	lorasick	sub-15_ses-02_task-ml_proj-lorasick_2021-03-31-14-30-22.353605
204	15	2	5	205	stable	8	200	5	vs	green	brown	brown	green	right	left	0.30000000000000004	0.7	10	2	3.0000000000000004	1.4	0	1	0.7	0.30000000000000004	2	10	1.4	3.0000000000000004	valid	0.3332723300009093	53248	0	1	1	53248	1	51200	0	53248	1	0.7	51200	green	brown	0	0	ml	2.7.3	lorasick	sub-15_ses-02_task-ml_proj-lorasick_2021-03-31-14-30-22.353605
205	15	2	5	206	stable	8	200	6	vs	brown	green	brown	green	left	right	0.30000000000000004	0.7	4	6	1.2000000000000002	4.199999999999998	1	0	0.30000000000000004	0.7	4	6	1.2000000000000002	4.199999999999998	invalid	0.3332593300001463	51200	0	0	1	53248	0	53248	0	53248	0	0.7	53248	green	brown	1	4	ml	2.7.3	lorasick	sub-15_ses-02_task-ml_proj-lorasick_2021-03-31-14-30-22.353605
206	15	2	5	207	stable	8	200	7	vs	brown	green	brown	green	left	right	0.30000000000000004	0.7	2	2	0.6000000000000001	1.4	1	0	0.30000000000000004	0.7	2	2	0.6000000000000001	1.4	invalid	0.34992316399802803	51200	0	0	1	53248	0	53248	0	53248	0	0.7	53248	green	brown	0	2	ml	2.7.3	lorasick	sub-15_ses-02_task-ml_proj-lorasick_2021-03-31-14-30-22.353605
207	15	2	5	208	stable	8	200	8	vs	brown	green	brown	green	left	right	0.30000000000000004	0.7	2	10	0.6000000000000001	7.0	1	0	0.30000000000000004	0.7	2	10	0.6000000000000001	7.0	invalid	0.41658131500298623	53248	0	1	2	53248	1	53248	1	53248	1	0.7	53248	green	brown	1	0	ml	2.7.3	lorasick	sub-15_ses-02_task-ml_proj-lorasick_2021-03-31-14-30-22.353605
208	15	2	5	209	stable	8	200	9	vs	green	brown	brown	green	right	left	0.30000000000000004	0.7	2	10	0.6000000000000001	7.0	0	1	0.7	0.30000000000000004	10	2	7.0	0.6000000000000001	valid	0.3999067059994559	51200	0	0	2	51200	1	51200	1	51200	1	0.7	51200	green	brown	1	10	ml	2.7.3	lorasick	sub-15_ses-02_task-ml_proj-lorasick_2021-03-31-14-30-22.353605
209	15	2	5	210	stable	8	200	10	vs	brown	green	brown	green	left	right	0.30000000000000004	0.7	2	6	0.6000000000000001	4.199999999999998	0	1	0.30000000000000004	0.7	2	6	0.6000000000000001	4.199999999999998	valid	0.44991501199911	53248	0	1	2	53248	1	53248	1	53248	1	0.7	53248	green	brown	1	6	ml	2.7.3	lorasick	sub-15_ses-02_task-ml_proj-lorasick_2021-03-31-14-30-22.353605
210	15	2	5	211	stable	8	200	11	vs	brown	green	brown	green	left	right	0.30000000000000004	0.7	6	4	1.8000000000000005	2.8	0	1	0.30000000000000004	0.7	6	4	1.8000000000000005	2.8	valid	0.5998465490010858	51200	0	0	1	53248	0	53248	0	51200	1	0.7	53248	green	brown	0	0	ml	2.7.3	lorasick	sub-15_ses-02_task-ml_proj-lorasick_2021-03-31-14-30-22.353605
211	15	2	5	212	stable	8	200	12	vs	green	brown	brown	green	right	left	0.30000000000000004	0.7	6	2	1.8000000000000005	1.4	0	1	0.7	0.30000000000000004	2	6	1.4	1.8000000000000005	valid	0.5998600179991627	53248	0	1	1	53248	1	51200	0	53248	1	0.7	51200	green	brown	0	0	ml	2.7.3	lorasick	sub-15_ses-02_task-ml_proj-lorasick_2021-03-31-14-30-22.353605
212	15	2	5	213	stable	8	200	13	vs	brown	green	brown	green	left	right	0.30000000000000004	0.7	2	10	0.6000000000000001	7.0	0	1	0.30000000000000004	0.7	2	10	0.6000000000000001	7.0	valid	0.36661362900122185	53248	0	1	2	53248	1	53248	1	53248	1	0.7	53248	green	brown	1	10	ml	2.7.3	lorasick	sub-15_ses-02_task-ml_proj-lorasick_2021-03-31-14-30-22.353605
213	15	2	5	214	stable	8	200	14	vs	brown	green	brown	green	left	right	0.30000000000000004	0.7	4	2	1.2000000000000002	1.4	0	1	0.30000000000000004	0.7	4	2	1.2000000000000002	1.4	valid	0.3665949770002044	53248	0	1	2	53248	1	53248	1	51200	0	0.7	53248	green	brown	0	2	ml	2.7.3	lorasick	sub-15_ses-02_task-ml_proj-lorasick_2021-03-31-14-30-22.353605
214	15	2	5	215	stable	8	200	15	vs	green	brown	brown	green	right	left	0.30000000000000004	0.7	2	10	0.6000000000000001	7.0	1	0	0.7	0.30000000000000004	10	2	7.0	0.6000000000000001	invalid	0.31659708799998043	51200	0	0	2	51200	1	51200	1	51200	1	0.7	51200	green	brown	1	0	ml	2.7.3	lorasick	sub-15_ses-02_task-ml_proj-lorasick_2021-03-31-14-30-22.353605
215	15	2	5	216	stable	8	200	16	vs	brown	green	brown	green	left	right	0.30000000000000004	0.7	6	6	1.8000000000000005	4.199999999999998	0	1	0.30000000000000004	0.7	6	6	1.8000000000000005	4.199999999999998	valid	0.3832481089993962	53248	0	1	2	53248	1	53248	1	53248	1	0.7	53248	green	brown	0	6	ml	2.7.3	lorasick	sub-15_ses-02_task-ml_proj-lorasick_2021-03-31-14-30-22.353605
216	15	2	5	217	stable	8	200	17	vs	brown	green	brown	green	left	right	0.30000000000000004	0.7	6	2	1.8000000000000005	1.4	0	1	0.30000000000000004	0.7	6	2	1.8000000000000005	1.4	valid	0.3499308780010324	53248	0	1	2	51200	0	53248	1	51200	0	0.7	53248	green	brown	0	2	ml	2.7.3	lorasick	sub-15_ses-02_task-ml_proj-lorasick_2021-03-31-14-30-22.353605
217	15	2	5	218	stable	8	200	18	vs	green	brown	brown	green	right	left	0.30000000000000004	0.7	4	2	1.2000000000000002	1.4	1	0	0.7	0.30000000000000004	2	4	1.4	1.2000000000000002	invalid	0.3499248619991704	51200	0	0	2	51200	1	51200	1	53248	0	0.7	51200	green	brown	0	0	ml	2.7.3	lorasick	sub-15_ses-02_task-ml_proj-lorasick_2021-03-31-14-30-22.353605
218	15	2	5	219	stable	8	200	19	vs	brown	green	brown	green	left	right	0.30000000000000004	0.7	4	2	1.2000000000000002	1.4	0	1	0.30000000000000004	0.7	4	2	1.2000000000000002	1.4	valid	0.41655158099820255	53248	0	1	2	53248	1	53248	1	51200	0	0.7	53248	green	brown	0	2	ml	2.7.3	lorasick	sub-15_ses-02_task-ml_proj-lorasick_2021-03-31-14-30-22.353605
219	15	2	5	220	stable	8	200	20	vs	green	brown	brown	green	right	left	0.30000000000000004	0.7	2	4	0.6000000000000001	2.8	0	1	0.7	0.30000000000000004	4	2	2.8	0.6000000000000001	valid	0.3832459289988037	51200	0	0	2	51200	1	51200	1	51200	1	0.7	51200	green	brown	1	4	ml	2.7.3	lorasick	sub-15_ses-02_task-ml_proj-lorasick_2021-03-31-14-30-22.353605
220	15	2	5	221	stable	8	200	21	vs	green	brown	brown	green	right	left	0.30000000000000004	0.7	6	4	1.8000000000000005	2.8	0	1	0.7	0.30000000000000004	4	6	2.8	1.8000000000000005	valid	0.33327812099742005	51200	0	0	2	51200	1	51200	1	53248	0	0.7	51200	green	brown	0	4	ml	2.7.3	lorasick	sub-15_ses-02_task-ml_proj-lorasick_2021-03-31-14-30-22.353605
221	15	2	5	222	stable	8	200	22	vs	brown	green	brown	green	left	right	0.30000000000000004	0.7	6	4	1.8000000000000005	2.8	1	0	0.30000000000000004	0.7	6	4	1.8000000000000005	2.8	invalid	0.4832269489997998	53248	0	1	2	53248	1	53248	1	51200	0	0.7	53248	green	brown	0	0	ml	2.7.3	lorasick	sub-15_ses-02_task-ml_proj-lorasick_2021-03-31-14-30-22.353605
222	15	2	5	223	stable	8	200	23	vs	brown	green	brown	green	left	right	0.30000000000000004	0.7	6	2	1.8000000000000005	1.4	1	0	0.30000000000000004	0.7	6	2	1.8000000000000005	1.4	invalid	0.9664061300027242	53248	0	1	2	51200	0	53248	1	51200	0	0.7	53248	green	brown	0	0	ml	2.7.3	lorasick	sub-15_ses-02_task-ml_proj-lorasick_2021-03-31-14-30-22.353605
223	15	2	5	224	stable	8	200	24	vs	brown	green	brown	green	left	right	0.30000000000000004	0.7	4	6	1.2000000000000002	4.199999999999998	0	1	0.30000000000000004	0.7	4	6	1.2000000000000002	4.199999999999998	valid	0.3166100820017164	53248	0	1	2	53248	1	53248	1	53248	1	0.7	53248	green	brown	1	6	ml	2.7.3	lorasick	sub-15_ses-02_task-ml_proj-lorasick_2021-03-31-14-30-22.353605
224	15	2	5	225	stable	8	200	25	vs	green	brown	brown	green	right	left	0.30000000000000004	0.7	4	2	1.2000000000000002	1.4	0	1	0.7	0.30000000000000004	2	4	1.4	1.2000000000000002	valid	0.44988971099883207	51200	0	0	2	51200	1	51200	1	53248	0	0.7	51200	green	brown	0	2	ml	2.7.3	lorasick	sub-15_ses-02_task-ml_proj-lorasick_2021-03-31-14-30-22.353605
225	15	2	5	226	stable	8	200	26	vs	brown	green	brown	green	left	right	0.30000000000000004	0.7	4	2	1.2000000000000002	1.4	0	1	0.30000000000000004	0.7	4	2	1.2000000000000002	1.4	valid	0.3499320880000596	53248	0	1	2	53248	1	53248	1	51200	0	0.7	53248	green	brown	0	2	ml	2.7.3	lorasick	sub-15_ses-02_task-ml_proj-lorasick_2021-03-31-14-30-22.353605
226	15	2	5	227	stable	8	200	27	vs	brown	green	brown	green	left	right	0.30000000000000004	0.7	2	6	0.6000000000000001	4.199999999999998	0	1	0.30000000000000004	0.7	2	6	0.6000000000000001	4.199999999999998	valid	0.2999497800010431	53248	0	1	2	53248	1	53248	1	53248	1	0.7	53248	green	brown	1	6	ml	2.7.3	lorasick	sub-15_ses-02_task-ml_proj-lorasick_2021-03-31-14-30-22.353605
227	15	2	5	228	stable	8	200	28	vs	green	brown	brown	green	right	left	0.30000000000000004	0.7	4	6	1.2000000000000002	4.199999999999998	1	0	0.7	0.30000000000000004	6	4	4.199999999999998	1.2000000000000002	invalid	0.4165644760032592	51200	0	0	2	51200	1	51200	1	51200	1	0.7	51200	green	brown	1	0	ml	2.7.3	lorasick	sub-15_ses-02_task-ml_proj-lorasick_2021-03-31-14-30-22.353605
228	15	2	5	229	stable	8	200	29	vs	green	brown	brown	green	right	left	0.30000000000000004	0.7	4	6	1.2000000000000002	4.199999999999998	0	1	0.7	0.30000000000000004	6	4	4.199999999999998	1.2000000000000002	valid	0.39990486100214173	51200	0	0	2	51200	1	51200	1	51200	1	0.7	51200	green	brown	1	6	ml	2.7.3	lorasick	sub-15_ses-02_task-ml_proj-lorasick_2021-03-31-14-30-22.353605
229	15	2	5	230	stable	8	200	30	vs	green	brown	brown	green	right	left	0.30000000000000004	0.7	2	2	0.6000000000000001	1.4	0	1	0.7	0.30000000000000004	2	2	1.4	0.6000000000000001	valid	0.44989199900010135	51200	0	0	2	51200	1	51200	1	53248	0	0.7	51200	green	brown	1	2	ml	2.7.3	lorasick	sub-15_ses-02_task-ml_proj-lorasick_2021-03-31-14-30-22.353605
230	15	2	5	231	stable	8	200	31	vs	green	brown	brown	green	right	left	0.30000000000000004	0.7	2	10	0.6000000000000001	7.0	1	0	0.7	0.30000000000000004	10	2	7.0	0.6000000000000001	invalid	0.4332291889986664	51200	0	0	2	51200	1	51200	1	51200	1	0.7	51200	green	brown	1	0	ml	2.7.3	lorasick	sub-15_ses-02_task-ml_proj-lorasick_2021-03-31-14-30-22.353605
231	15	2	5	232	stable	8	200	32	vs	brown	green	brown	green	left	right	0.30000000000000004	0.7	4	6	1.2000000000000002	4.199999999999998	1	0	0.30000000000000004	0.7	4	6	1.2000000000000002	4.199999999999998	invalid	0.34993278199908673	53248	0	1	2	53248	1	53248	1	53248	1	0.7	53248	green	brown	1	0	ml	2.7.3	lorasick	sub-15_ses-02_task-ml_proj-lorasick_2021-03-31-14-30-22.353605
232	15	2	5	233	stable	8	200	33	vs	green	brown	brown	green	right	left	0.30000000000000004	0.7	4	6	1.2000000000000002	4.199999999999998	0	1	0.7	0.30000000000000004	6	4	4.199999999999998	1.2000000000000002	valid	0.44988952200219495	51200	0	0	2	51200	1	51200	1	51200	1	0.7	51200	green	brown	1	6	ml	2.7.3	lorasick	sub-15_ses-02_task-ml_proj-lorasick_2021-03-31-14-30-22.353605
233	15	2	5	234	stable	8	200	34	vs	brown	green	brown	green	left	right	0.30000000000000004	0.7	2	2	0.6000000000000001	1.4	0	1	0.30000000000000004	0.7	2	2	0.6000000000000001	1.4	valid	0.4665735260023212	53248	0	1	2	53248	1	53248	1	53248	1	0.7	53248	green	brown	0	2	ml	2.7.3	lorasick	sub-15_ses-02_task-ml_proj-lorasick_2021-03-31-14-30-22.353605
234	15	2	5	235	stable	8	200	35	vs	brown	green	brown	green	left	right	0.30000000000000004	0.7	2	2	0.6000000000000001	1.4	1	0	0.30000000000000004	0.7	2	2	0.6000000000000001	1.4	invalid	0.3499388199998066	53248	0	1	2	53248	1	53248	1	53248	1	0.7	53248	green	brown	0	0	ml	2.7.3	lorasick	sub-15_ses-02_task-ml_proj-lorasick_2021-03-31-14-30-22.353605
235	15	2	5	236	stable	8	200	36	vs	brown	green	brown	green	left	right	0.30000000000000004	0.7	4	6	1.2000000000000002	4.199999999999998	0	1	0.30000000000000004	0.7	4	6	1.2000000000000002	4.199999999999998	valid	0.3665923269982159	53248	0	1	2	53248	1	53248	1	53248	1	0.7	53248	green	brown	1	6	ml	2.7.3	lorasick	sub-15_ses-02_task-ml_proj-lorasick_2021-03-31-14-30-22.353605
236	15	2	5	237	stable	8	200	37	vs	green	brown	brown	green	right	left	0.30000000000000004	0.7	2	6	0.6000000000000001	4.199999999999998	0	1	0.7	0.30000000000000004	6	2	4.199999999999998	0.6000000000000001	valid	0.3832456189993536	51200	0	0	2	51200	1	51200	1	51200	1	0.7	51200	green	brown	1	6	ml	2.7.3	lorasick	sub-15_ses-02_task-ml_proj-lorasick_2021-03-31-14-30-22.353605
237	15	2	5	238	stable	8	200	38	vs	brown	green	brown	green	left	right	0.30000000000000004	0.7	10	2	3.0000000000000004	1.4	0	1	0.30000000000000004	0.7	10	2	3.0000000000000004	1.4	valid	0.3332707199988363	53248	0	1	2	51200	0	53248	1	51200	0	0.7	53248	green	brown	0	2	ml	2.7.3	lorasick	sub-15_ses-02_task-ml_proj-lorasick_2021-03-31-14-30-22.353605
238	15	2	5	239	stable	8	200	39	vs	brown	green	brown	green	left	right	0.30000000000000004	0.7	2	4	0.6000000000000001	2.8	0	1	0.30000000000000004	0.7	2	4	0.6000000000000001	2.8	valid	0.3832549860017025	53248	0	1	2	53248	1	53248	1	53248	1	0.7	53248	green	brown	1	4	ml	2.7.3	lorasick	sub-15_ses-02_task-ml_proj-lorasick_2021-03-31-14-30-22.353605
239	15	2	5	240	stable	8	200	40	vs	green	brown	brown	green	right	left	0.30000000000000004	0.7	6	4	1.8000000000000005	2.8	0	1	0.7	0.30000000000000004	4	6	2.8	1.8000000000000005	valid	0.5498598999984097	51200	0	0	2	51200	1	51200	1	53248	0	0.7	51200	green	brown	0	4	ml	2.7.3	lorasick	sub-15_ses-02_task-ml_proj-lorasick_2021-03-31-14-30-22.353605
240	15	2	5	241	stable	8	200	41	vs	brown	green	brown	green	left	right	0.30000000000000004	0.7	2	10	0.6000000000000001	7.0	0	1	0.30000000000000004	0.7	2	10	0.6000000000000001	7.0	valid	0.4665646300018125	53248	0	1	2	53248	1	53248	1	53248	1	0.7	53248	green	brown	1	10	ml	2.7.3	lorasick	sub-15_ses-02_task-ml_proj-lorasick_2021-03-31-14-30-22.353605
241	15	2	5	242	stable	8	200	42	vs	brown	green	brown	green	left	right	0.30000000000000004	0.7	4	2	1.2000000000000002	1.4	0	1	0.30000000000000004	0.7	4	2	1.2000000000000002	1.4	valid	0.7331501500011655	53248	0	1	2	53248	1	53248	1	51200	0	0.7	53248	green	brown	0	2	ml	2.7.3	lorasick	sub-15_ses-02_task-ml_proj-lorasick_2021-03-31-14-30-22.353605
242	15	2	5	243	stable	8	200	43	vs	green	brown	brown	green	right	left	0.30000000000000004	0.7	2	10	0.6000000000000001	7.0	0	1	0.7	0.30000000000000004	10	2	7.0	0.6000000000000001	valid	0.3499188919995504	51200	0	0	2	51200	1	51200	1	51200	1	0.7	51200	green	brown	1	10	ml	2.7.3	lorasick	sub-15_ses-02_task-ml_proj-lorasick_2021-03-31-14-30-22.353605
243	15	2	5	244	stable	8	200	44	vs	brown	green	brown	green	left	right	0.30000000000000004	0.7	2	6	0.6000000000000001	4.199999999999998	1	0	0.30000000000000004	0.7	2	6	0.6000000000000001	4.199999999999998	invalid	0.4165803300020343	53248	0	1	2	53248	1	53248	1	53248	1	0.7	53248	green	brown	1	0	ml	2.7.3	lorasick	sub-15_ses-02_task-ml_proj-lorasick_2021-03-31-14-30-22.353605
244	15	2	5	245	stable	8	200	45	vs	brown	green	brown	green	left	right	0.30000000000000004	0.7	2	6	0.6000000000000001	4.199999999999998	1	0	0.30000000000000004	0.7	2	6	0.6000000000000001	4.199999999999998	invalid	0.3499290119980287	53248	0	1	2	53248	1	53248	1	53248	1	0.7	53248	green	brown	1	0	ml	2.7.3	lorasick	sub-15_ses-02_task-ml_proj-lorasick_2021-03-31-14-30-22.353605
245	15	2	5	246	stable	8	200	46	vs	green	brown	brown	green	right	left	0.30000000000000004	0.7	2	2	0.6000000000000001	1.4	0	1	0.7	0.30000000000000004	2	2	1.4	0.6000000000000001	valid	0.39990161899913795	51200	0	0	2	51200	1	51200	1	53248	0	0.7	51200	green	brown	1	2	ml	2.7.3	lorasick	sub-15_ses-02_task-ml_proj-lorasick_2021-03-31-14-30-22.353605
246	15	2	5	247	stable	8	200	47	vs	green	brown	brown	green	right	left	0.30000000000000004	0.7	4	2	1.2000000000000002	1.4	0	1	0.7	0.30000000000000004	2	4	1.4	1.2000000000000002	valid	0.3665860410001187	51200	0	0	2	51200	1	51200	1	53248	0	0.7	51200	green	brown	0	2	ml	2.7.3	lorasick	sub-15_ses-02_task-ml_proj-lorasick_2021-03-31-14-30-22.353605
247	15	2	5	248	stable	8	200	48	vs	green	brown	brown	green	right	left	0.30000000000000004	0.7	6	2	1.8000000000000005	1.4	1	0	0.7	0.30000000000000004	2	6	1.4	1.8000000000000005	invalid	0.51653671099848	51200	0	0	2	53248	0	51200	1	53248	0	0.7	51200	green	brown	0	0	ml	2.7.3	lorasick	sub-15_ses-02_task-ml_proj-lorasick_2021-03-31-14-30-22.353605
248	15	2	5	249	stable	8	200	49	vs	green	brown	brown	green	right	left	0.30000000000000004	0.7	6	6	1.8000000000000005	4.199999999999998	0	1	0.7	0.30000000000000004	6	6	4.199999999999998	1.8000000000000005	valid	0.3332599259993003	51200	0	0	2	51200	1	51200	1	53248	0	0.7	51200	green	brown	1	6	ml	2.7.3	lorasick	sub-15_ses-02_task-ml_proj-lorasick_2021-03-31-14-30-22.353605
249	15	2	5	250	stable	8	200	50	vs	brown	green	brown	green	left	right	0.30000000000000004	0.7	6	4	1.8000000000000005	2.8	1	0	0.30000000000000004	0.7	6	4	1.8000000000000005	2.8	invalid	0.399920509000367	53248	0	1	2	53248	1	53248	1	51200	0	0.7	53248	green	brown	0	0	ml	2.7.3	lorasick	sub-15_ses-02_task-ml_proj-lorasick_2021-03-31-14-30-22.353605
250	15	2	6	251	stable	8	200	51	vs	brown	green	brown	green	left	right	0.30000000000000004	0.7	4	2	1.2000000000000002	1.4	0	1	0.30000000000000004	0.7	4	2	1.2000000000000002	1.4	valid	0.4665626989990415	53248	0	1	2	53248	1	53248	1	51200	0	0.7	53248	green	brown	0	2	ml	2.7.3	lorasick	sub-15_ses-02_task-ml_proj-lorasick_2021-03-31-14-30-22.353605
251	15	2	6	252	stable	8	200	52	vs	brown	green	brown	green	left	right	0.30000000000000004	0.7	2	6	0.6000000000000001	4.199999999999998	0	1	0.30000000000000004	0.7	2	6	0.6000000000000001	4.199999999999998	valid	0.3166041539989237	53248	0	1	2	53248	1	53248	1	53248	1	0.7	53248	green	brown	1	6	ml	2.7.3	lorasick	sub-15_ses-02_task-ml_proj-lorasick_2021-03-31-14-30-22.353605
252	15	2	6	253	stable	8	200	53	vs	green	brown	brown	green	right	left	0.30000000000000004	0.7	2	10	0.6000000000000001	7.0	1	0	0.7	0.30000000000000004	10	2	7.0	0.6000000000000001	invalid	0.3499221940001007	51200	0	0	2	51200	1	51200	1	51200	1	0.7	51200	green	brown	1	0	ml	2.7.3	lorasick	sub-15_ses-02_task-ml_proj-lorasick_2021-03-31-14-30-22.353605
253	15	2	6	254	stable	8	200	54	vs	brown	green	brown	green	left	right	0.30000000000000004	0.7	4	6	1.2000000000000002	4.199999999999998	0	1	0.30000000000000004	0.7	4	6	1.2000000000000002	4.199999999999998	valid	0.3166099779991782	53248	0	1	2	53248	1	53248	1	53248	1	0.7	53248	green	brown	1	6	ml	2.7.3	lorasick	sub-15_ses-02_task-ml_proj-lorasick_2021-03-31-14-30-22.353605
254	15	2	6	255	stable	8	200	55	vs	green	brown	brown	green	right	left	0.30000000000000004	0.7	6	4	1.8000000000000005	2.8	1	0	0.7	0.30000000000000004	4	6	2.8	1.8000000000000005	invalid	0.33325930899809464	51200	0	0	2	51200	1	51200	1	53248	0	0.7	51200	green	brown	0	0	ml	2.7.3	lorasick	sub-15_ses-02_task-ml_proj-lorasick_2021-03-31-14-30-22.353605
255	15	2	6	256	stable	8	200	56	vs	green	brown	brown	green	right	left	0.30000000000000004	0.7	6	2	1.8000000000000005	1.4	0	1	0.7	0.30000000000000004	2	6	1.4	1.8000000000000005	valid	0.3665889610019804	51200	0	0	2	53248	0	51200	1	53248	0	0.7	51200	green	brown	0	2	ml	2.7.3	lorasick	sub-15_ses-02_task-ml_proj-lorasick_2021-03-31-14-30-22.353605
256	15	2	6	257	stable	8	200	57	vs	green	brown	brown	green	right	left	0.30000000000000004	0.7	2	2	0.6000000000000001	1.4	0	1	0.7	0.30000000000000004	2	2	1.4	0.6000000000000001	valid	0.3832439489997341	51200	0	0	2	51200	1	51200	1	53248	0	0.7	51200	green	brown	1	2	ml	2.7.3	lorasick	sub-15_ses-02_task-ml_proj-lorasick_2021-03-31-14-30-22.353605
257	15	2	6	258	stable	8	200	58	vs	brown	green	brown	green	left	right	0.30000000000000004	0.7	2	2	0.6000000000000001	1.4	0	1	0.30000000000000004	0.7	2	2	0.6000000000000001	1.4	valid	0.34993360199950985	53248	0	1	2	53248	1	53248	1	53248	1	0.7	53248	green	brown	0	2	ml	2.7.3	lorasick	sub-15_ses-02_task-ml_proj-lorasick_2021-03-31-14-30-22.353605
258	15	2	6	259	stable	8	200	59	vs	green	brown	brown	green	right	left	0.30000000000000004	0.7	2	6	0.6000000000000001	4.199999999999998	0	1	0.7	0.30000000000000004	6	2	4.199999999999998	0.6000000000000001	valid	0.36658233500202186	51200	0	0	2	51200	1	51200	1	51200	1	0.7	51200	green	brown	1	6	ml	2.7.3	lorasick	sub-15_ses-02_task-ml_proj-lorasick_2021-03-31-14-30-22.353605
259	15	2	6	260	stable	8	200	60	vs	brown	green	brown	green	left	right	0.30000000000000004	0.7	2	6	0.6000000000000001	4.199999999999998	0	1	0.30000000000000004	0.7	2	6	0.6000000000000001	4.199999999999998	valid	0.3832652719975158	53248	0	1	2	53248	1	53248	1	53248	1	0.7	53248	green	brown	1	6	ml	2.7.3	lorasick	sub-15_ses-02_task-ml_proj-lorasick_2021-03-31-14-30-22.353605
260	15	2	6	261	stable	8	200	61	vs	brown	green	brown	green	left	right	0.30000000000000004	0.7	4	6	1.2000000000000002	4.199999999999998	1	0	0.30000000000000004	0.7	4	6	1.2000000000000002	4.199999999999998	invalid	0.4332431559996621	53248	0	1	2	53248	1	53248	1	53248	1	0.7	53248	green	brown	1	0	ml	2.7.3	lorasick	sub-15_ses-02_task-ml_proj-lorasick_2021-03-31-14-30-22.353605
261	15	2	6	262	stable	8	200	62	vs	green	brown	brown	green	right	left	0.30000000000000004	0.7	4	2	1.2000000000000002	1.4	0	1	0.7	0.30000000000000004	2	4	1.4	1.2000000000000002	valid	0.23330113599877225	53248	0	1	1	51200	0	51200	0	53248	1	0.7	51200	green	brown	0	0	ml	2.7.3	lorasick	sub-15_ses-02_task-ml_proj-lorasick_2021-03-31-14-30-22.353605
262	15	2	6	263	stable	8	200	63	vs	green	brown	brown	green	right	left	0.30000000000000004	0.7	4	2	1.2000000000000002	1.4	0	1	0.7	0.30000000000000004	2	4	1.4	1.2000000000000002	valid	0.31660826799998176	53248	0	1	1	51200	0	51200	0	53248	1	0.7	51200	green	brown	0	0	ml	2.7.3	lorasick	sub-15_ses-02_task-ml_proj-lorasick_2021-03-31-14-30-22.353605
263	15	2	6	264	stable	8	200	64	vs	brown	green	brown	green	left	right	0.30000000000000004	0.7	6	2	1.8000000000000005	1.4	1	0	0.30000000000000004	0.7	6	2	1.8000000000000005	1.4	invalid	0.5331940159994701	51200	0	0	1	51200	1	53248	0	51200	1	0.7	53248	green	brown	0	6	ml	2.7.3	lorasick	sub-15_ses-02_task-ml_proj-lorasick_2021-03-31-14-30-22.353605
264	15	2	6	265	stable	8	200	65	vs	green	brown	brown	green	right	left	0.30000000000000004	0.7	6	4	1.8000000000000005	2.8	0	1	0.7	0.30000000000000004	4	6	2.8	1.8000000000000005	valid	0.33327772399934474	53248	0	1	1	51200	0	51200	0	53248	1	0.7	51200	green	brown	0	0	ml	2.7.3	lorasick	sub-15_ses-02_task-ml_proj-lorasick_2021-03-31-14-30-22.353605
265	15	2	6	266	stable	8	200	66	vs	green	brown	brown	green	right	left	0.30000000000000004	0.7	6	6	1.8000000000000005	4.199999999999998	0	1	0.7	0.30000000000000004	6	6	4.199999999999998	1.8000000000000005	valid	0.34993058100008056	53248	0	1	1	51200	0	51200	0	53248	1	0.7	51200	green	brown	1	0	ml	2.7.3	lorasick	sub-15_ses-02_task-ml_proj-lorasick_2021-03-31-14-30-22.353605
266	15	2	6	267	stable	8	200	67	vs	green	brown	brown	green	right	left	0.30000000000000004	0.7	2	4	0.6000000000000001	2.8	0	1	0.7	0.30000000000000004	4	2	2.8	0.6000000000000001	valid	0.3165998250005941	51200	0	0	2	51200	1	51200	1	51200	1	0.7	51200	green	brown	1	4	ml	2.7.3	lorasick	sub-15_ses-02_task-ml_proj-lorasick_2021-03-31-14-30-22.353605
267	15	2	6	268	stable	8	200	68	vs	green	brown	brown	green	right	left	0.30000000000000004	0.7	2	2	0.6000000000000001	1.4	0	1	0.7	0.30000000000000004	2	2	1.4	0.6000000000000001	valid	0.34991449100198224	51200	0	0	2	51200	1	51200	1	53248	0	0.7	51200	green	brown	1	2	ml	2.7.3	lorasick	sub-15_ses-02_task-ml_proj-lorasick_2021-03-31-14-30-22.353605
268	15	2	6	269	stable	8	200	69	vs	green	brown	brown	green	right	left	0.30000000000000004	0.7	2	10	0.6000000000000001	7.0	0	1	0.7	0.30000000000000004	10	2	7.0	0.6000000000000001	valid	0.29993492200082983	51200	0	0	2	51200	1	51200	1	51200	1	0.7	51200	green	brown	1	10	ml	2.7.3	lorasick	sub-15_ses-02_task-ml_proj-lorasick_2021-03-31-14-30-22.353605
269	15	2	6	270	stable	8	200	70	vs	brown	green	brown	green	left	right	0.30000000000000004	0.7	6	2	1.8000000000000005	1.4	0	1	0.30000000000000004	0.7	6	2	1.8000000000000005	1.4	valid	0.3665937279984064	53248	0	1	2	51200	0	53248	1	51200	0	0.7	53248	green	brown	0	2	ml	2.7.3	lorasick	sub-15_ses-02_task-ml_proj-lorasick_2021-03-31-14-30-22.353605
270	15	2	6	271	stable	8	200	71	vs	green	brown	brown	green	right	left	0.30000000000000004	0.7	6	6	1.8000000000000005	4.199999999999998	0	1	0.7	0.30000000000000004	6	6	4.199999999999998	1.8000000000000005	valid	0.3832436749980843	51200	0	0	2	51200	1	51200	1	53248	0	0.7	51200	green	brown	1	6	ml	2.7.3	lorasick	sub-15_ses-02_task-ml_proj-lorasick_2021-03-31-14-30-22.353605
271	15	2	6	272	stable	8	200	72	vs	green	brown	brown	green	right	left	0.30000000000000004	0.7	2	10	0.6000000000000001	7.0	0	1	0.7	0.30000000000000004	10	2	7.0	0.6000000000000001	valid	0.3499223810031253	51200	0	0	2	51200	1	51200	1	51200	1	0.7	51200	green	brown	1	10	ml	2.7.3	lorasick	sub-15_ses-02_task-ml_proj-lorasick_2021-03-31-14-30-22.353605
272	15	2	6	273	stable	8	200	73	vs	brown	green	brown	green	left	right	0.30000000000000004	0.7	4	2	1.2000000000000002	1.4	0	1	0.30000000000000004	0.7	4	2	1.2000000000000002	1.4	valid	0.3832557179994183	53248	0	1	2	53248	1	53248	1	51200	0	0.7	53248	green	brown	0	2	ml	2.7.3	lorasick	sub-15_ses-02_task-ml_proj-lorasick_2021-03-31-14-30-22.353605
273	15	2	6	274	stable	8	200	74	vs	green	brown	brown	green	right	left	0.30000000000000004	0.7	6	2	1.8000000000000005	1.4	0	1	0.7	0.30000000000000004	2	6	1.4	1.8000000000000005	valid	0.34991910999815445	51200	0	0	2	53248	0	51200	1	53248	0	0.7	51200	green	brown	0	2	ml	2.7.3	lorasick	sub-15_ses-02_task-ml_proj-lorasick_2021-03-31-14-30-22.353605
274	15	2	6	275	stable	8	200	75	vs	brown	green	brown	green	left	right	0.30000000000000004	0.7	6	2	1.8000000000000005	1.4	0	1	0.30000000000000004	0.7	6	2	1.8000000000000005	1.4	valid	0.3499311380001018	53248	0	1	2	51200	0	53248	1	51200	0	0.7	53248	green	brown	0	2	ml	2.7.3	lorasick	sub-15_ses-02_task-ml_proj-lorasick_2021-03-31-14-30-22.353605
275	15	2	6	276	stable	8	200	76	vs	green	brown	brown	green	right	left	0.30000000000000004	0.7	4	6	1.2000000000000002	4.199999999999998	1	0	0.7	0.30000000000000004	6	4	4.199999999999998	1.2000000000000002	invalid	0.4165631549985847	51200	0	0	2	51200	1	51200	1	51200	1	0.7	51200	green	brown	1	0	ml	2.7.3	lorasick	sub-15_ses-02_task-ml_proj-lorasick_2021-03-31-14-30-22.353605
276	15	2	6	277	stable	8	200	77	vs	brown	green	brown	green	left	right	0.30000000000000004	0.7	6	4	1.8000000000000005	2.8	0	1	0.30000000000000004	0.7	6	4	1.8000000000000005	2.8	valid	0.4665702700003749	53248	0	1	2	53248	1	53248	1	51200	0	0.7	53248	green	brown	0	4	ml	2.7.3	lorasick	sub-15_ses-02_task-ml_proj-lorasick_2021-03-31-14-30-22.353605
277	15	2	6	278	stable	8	200	78	vs	green	brown	brown	green	right	left	0.30000000000000004	0.7	2	2	0.6000000000000001	1.4	1	0	0.7	0.30000000000000004	2	2	1.4	0.6000000000000001	invalid	0.3665851539990399	51200	0	0	2	51200	1	51200	1	53248	0	0.7	51200	green	brown	1	0	ml	2.7.3	lorasick	sub-15_ses-02_task-ml_proj-lorasick_2021-03-31-14-30-22.353605
278	15	2	6	279	stable	8	200	79	vs	green	brown	brown	green	right	left	0.30000000000000004	0.7	2	2	0.6000000000000001	1.4	1	0	0.7	0.30000000000000004	2	2	1.4	0.6000000000000001	invalid	0.28327707999778795	51200	0	0	2	51200	1	51200	1	53248	0	0.7	51200	green	brown	1	0	ml	2.7.3	lorasick	sub-15_ses-02_task-ml_proj-lorasick_2021-03-31-14-30-22.353605
279	15	2	6	280	stable	8	200	80	vs	brown	green	brown	green	left	right	0.30000000000000004	0.7	4	2	1.2000000000000002	1.4	0	1	0.30000000000000004	0.7	4	2	1.2000000000000002	1.4	valid	0.2999417999999423	53248	0	1	2	53248	1	53248	1	51200	0	0.7	53248	green	brown	0	2	ml	2.7.3	lorasick	sub-15_ses-02_task-ml_proj-lorasick_2021-03-31-14-30-22.353605
280	15	2	6	281	stable	8	200	81	vs	brown	green	brown	green	left	right	0.30000000000000004	0.7	6	4	1.8000000000000005	2.8	0	1	0.30000000000000004	0.7	6	4	1.8000000000000005	2.8	valid	0.3499290050021955	53248	0	1	2	53248	1	53248	1	51200	0	0.7	53248	green	brown	0	4	ml	2.7.3	lorasick	sub-15_ses-02_task-ml_proj-lorasick_2021-03-31-14-30-22.353605
281	15	2	6	282	stable	8	200	82	vs	green	brown	brown	green	right	left	0.30000000000000004	0.7	4	6	1.2000000000000002	4.199999999999998	0	1	0.7	0.30000000000000004	6	4	4.199999999999998	1.2000000000000002	valid	0.4498918790013704	51200	0	0	2	51200	1	51200	1	51200	1	0.7	51200	green	brown	1	6	ml	2.7.3	lorasick	sub-15_ses-02_task-ml_proj-lorasick_2021-03-31-14-30-22.353605
