Unnamed: 0	sub_id	ses_id	block_no	trial_no	phase_type	phase_no	phase_length	trialInPhase_no	phase_type_order	color_left	color_right	color1	color2	position1	position2	prob1	prob2	mag1	mag2	ev1	ev2	outcome1	outcome2	prob_left	prob_right	mag_left	mag_right	ev_left	ev_right	reward_validity	resp_time	resp_key	timeout	choice_side	choice	ev_corr_resp	ev_correct	prob_corr_resp	prob_correct	mag_corr_resp	mag_correct	high_prob	high_prob_side	high_prob_color	low_prob_color	no_brain	reward	name	version	proj_id	logFileID
0	6	1	1	1	stable	1	200	1	sv	purple	turquoise	purple	turquoise	left	right	0.7	0.30000000000000004	6	2	4.199999999999998	0.6000000000000001	0	1	0.7	0.30000000000000004	6	2	4.199999999999998	0.6000000000000001	invalid	0.4665571570003522	51200	0	0	1	51200	1	51200	1	51200	1	0.7	51200	purple	turquoise	1	0	ml	2.7.3	bip	sub-06_ses-01_task-ml_proj-bip_2020-11-13-10-08-24.958751
1	6	1	1	2	stable	1	200	2	sv	turquoise	purple	purple	turquoise	right	left	0.7	0.30000000000000004	6	4	4.199999999999998	1.2000000000000002	0	1	0.30000000000000004	0.7	4	6	1.2000000000000002	4.199999999999998	invalid	0.3499377520001872	53248	0	1	1	53248	1	53248	1	53248	1	0.7	53248	purple	turquoise	1	0	ml	2.7.3	bip	sub-06_ses-01_task-ml_proj-bip_2020-11-13-10-08-24.958751
2	6	1	1	3	stable	1	200	3	sv	purple	turquoise	purple	turquoise	left	right	0.7	0.30000000000000004	6	2	4.199999999999998	0.6000000000000001	1	0	0.7	0.30000000000000004	6	2	4.199999999999998	0.6000000000000001	valid	0.24995674600177156	51200	0	0	1	51200	1	51200	1	51200	1	0.7	51200	purple	turquoise	1	6	ml	2.7.3	bip	sub-06_ses-01_task-ml_proj-bip_2020-11-13-10-08-24.958751
3	6	1	1	4	stable	1	200	4	sv	purple	turquoise	purple	turquoise	left	right	0.7	0.30000000000000004	2	2	1.4	0.6000000000000001	0	1	0.7	0.30000000000000004	2	2	1.4	0.6000000000000001	invalid	0.31660379599998123	51200	0	0	1	51200	1	51200	1	53248	0	0.7	51200	purple	turquoise	1	0	ml	2.7.3	bip	sub-06_ses-01_task-ml_proj-bip_2020-11-13-10-08-24.958751
4	6	1	1	5	stable	1	200	5	sv	turquoise	purple	purple	turquoise	right	left	0.7	0.30000000000000004	4	2	2.8	0.6000000000000001	1	0	0.30000000000000004	0.7	2	4	0.6000000000000001	2.8	valid	0.2832787159986765	51200	0	0	2	53248	0	53248	0	53248	0	0.7	53248	purple	turquoise	1	0	ml	2.7.3	bip	sub-06_ses-01_task-ml_proj-bip_2020-11-13-10-08-24.958751
5	6	1	1	6	stable	1	200	6	sv	purple	turquoise	purple	turquoise	left	right	0.7	0.30000000000000004	2	2	1.4	0.6000000000000001	0	1	0.7	0.30000000000000004	2	2	1.4	0.6000000000000001	invalid	0.3332740840014594	53248	0	1	2	51200	0	51200	0	53248	1	0.7	51200	purple	turquoise	1	2	ml	2.7.3	bip	sub-06_ses-01_task-ml_proj-bip_2020-11-13-10-08-24.958751
6	6	1	1	7	stable	1	200	7	sv	turquoise	purple	purple	turquoise	right	left	0.7	0.30000000000000004	6	2	4.199999999999998	0.6000000000000001	1	0	0.30000000000000004	0.7	2	6	0.6000000000000001	4.199999999999998	valid	0.266617008999674	51200	0	0	2	53248	0	53248	0	53248	0	0.7	53248	purple	turquoise	1	0	ml	2.7.3	bip	sub-06_ses-01_task-ml_proj-bip_2020-11-13-10-08-24.958751
7	6	1	1	8	stable	1	200	8	sv	turquoise	purple	purple	turquoise	right	left	0.7	0.30000000000000004	4	6	2.8	1.8000000000000005	1	0	0.30000000000000004	0.7	6	4	1.8000000000000005	2.8	valid	0.3166032549997908	51200	0	0	2	53248	0	53248	0	51200	1	0.7	53248	purple	turquoise	0	0	ml	2.7.3	bip	sub-06_ses-01_task-ml_proj-bip_2020-11-13-10-08-24.958751
8	6	1	1	9	stable	1	200	9	sv	purple	turquoise	purple	turquoise	left	right	0.7	0.30000000000000004	4	2	2.8	0.6000000000000001	1	0	0.7	0.30000000000000004	4	2	2.8	0.6000000000000001	valid	0.2666177549999702	51200	0	0	1	51200	1	51200	1	51200	1	0.7	51200	purple	turquoise	1	4	ml	2.7.3	bip	sub-06_ses-01_task-ml_proj-bip_2020-11-13-10-08-24.958751
9	6	1	1	10	stable	1	200	10	sv	purple	turquoise	purple	turquoise	left	right	0.7	0.30000000000000004	4	2	2.8	0.6000000000000001	1	0	0.7	0.30000000000000004	4	2	2.8	0.6000000000000001	valid	0.29994033299954026	51200	0	0	1	51200	1	51200	1	51200	1	0.7	51200	purple	turquoise	1	4	ml	2.7.3	bip	sub-06_ses-01_task-ml_proj-bip_2020-11-13-10-08-24.958751
10	6	1	1	11	stable	1	200	11	sv	purple	turquoise	purple	turquoise	left	right	0.7	0.30000000000000004	4	2	2.8	0.6000000000000001	1	0	0.7	0.30000000000000004	4	2	2.8	0.6000000000000001	valid	0.31660011199892324	51200	0	0	1	51200	1	51200	1	51200	1	0.7	51200	purple	turquoise	1	4	ml	2.7.3	bip	sub-06_ses-01_task-ml_proj-bip_2020-11-13-10-08-24.958751
11	6	1	1	12	stable	1	200	12	sv	purple	turquoise	purple	turquoise	left	right	0.7	0.30000000000000004	6	6	4.199999999999998	1.8000000000000005	0	1	0.7	0.30000000000000004	6	6	4.199999999999998	1.8000000000000005	invalid	9.58639993768884e-05	51200	0	0	1	51200	1	51200	1	53248	0	0.7	51200	purple	turquoise	1	0	ml	2.7.3	bip	sub-06_ses-01_task-ml_proj-bip_2020-11-13-10-08-24.958751
12	6	1	1	13	stable	1	200	13	sv	turquoise	purple	purple	turquoise	right	left	0.7	0.30000000000000004	2	2	1.4	0.6000000000000001	1	0	0.30000000000000004	0.7	2	2	0.6000000000000001	1.4	valid	0.2666269130004366	51200	0	0	2	53248	0	53248	0	53248	0	0.7	53248	purple	turquoise	0	0	ml	2.7.3	bip	sub-06_ses-01_task-ml_proj-bip_2020-11-13-10-08-24.958751
13	6	1	1	14	stable	1	200	14	sv	purple	turquoise	purple	turquoise	left	right	0.7	0.30000000000000004	4	2	2.8	0.6000000000000001	1	0	0.7	0.30000000000000004	4	2	2.8	0.6000000000000001	valid	0.3166031799992197	51200	0	0	1	51200	1	51200	1	51200	1	0.7	51200	purple	turquoise	1	4	ml	2.7.3	bip	sub-06_ses-01_task-ml_proj-bip_2020-11-13-10-08-24.958751
14	6	1	1	15	stable	1	200	15	sv	turquoise	purple	purple	turquoise	right	left	0.7	0.30000000000000004	2	6	1.4	1.8000000000000005	0	1	0.30000000000000004	0.7	6	2	1.8000000000000005	1.4	invalid	0.28328930899988336	53248	0	1	1	51200	0	53248	1	51200	0	0.7	53248	purple	turquoise	0	0	ml	2.7.3	bip	sub-06_ses-01_task-ml_proj-bip_2020-11-13-10-08-24.958751
15	6	1	1	16	stable	1	200	16	sv	purple	turquoise	purple	turquoise	left	right	0.7	0.30000000000000004	2	10	1.4	3.0000000000000004	1	0	0.7	0.30000000000000004	2	10	1.4	3.0000000000000004	valid	0.3166254679999838	51200	0	0	1	53248	0	51200	1	53248	0	0.7	51200	purple	turquoise	0	2	ml	2.7.3	bip	sub-06_ses-01_task-ml_proj-bip_2020-11-13-10-08-24.958751
16	6	1	1	17	stable	1	200	17	sv	turquoise	purple	purple	turquoise	right	left	0.7	0.30000000000000004	2	10	1.4	3.0000000000000004	1	0	0.30000000000000004	0.7	10	2	3.0000000000000004	1.4	valid	0.3332752780006558	53248	0	1	1	51200	0	53248	1	51200	0	0.7	53248	purple	turquoise	0	2	ml	2.7.3	bip	sub-06_ses-01_task-ml_proj-bip_2020-11-13-10-08-24.958751
17	6	1	1	18	stable	1	200	18	sv	turquoise	purple	purple	turquoise	right	left	0.7	0.30000000000000004	2	2	1.4	0.6000000000000001	0	1	0.30000000000000004	0.7	2	2	0.6000000000000001	1.4	invalid	0.3665997389998665	53248	0	1	1	53248	1	53248	1	53248	1	0.7	53248	purple	turquoise	0	0	ml	2.7.3	bip	sub-06_ses-01_task-ml_proj-bip_2020-11-13-10-08-24.958751
18	6	1	1	19	stable	1	200	19	sv	turquoise	purple	purple	turquoise	right	left	0.7	0.30000000000000004	2	2	1.4	0.6000000000000001	1	0	0.30000000000000004	0.7	2	2	0.6000000000000001	1.4	valid	0.29995320799935143	53248	0	1	1	53248	1	53248	1	53248	1	0.7	53248	purple	turquoise	0	2	ml	2.7.3	bip	sub-06_ses-01_task-ml_proj-bip_2020-11-13-10-08-24.958751
19	6	1	1	20	stable	1	200	20	sv	turquoise	purple	purple	turquoise	right	left	0.7	0.30000000000000004	6	2	4.199999999999998	0.6000000000000001	1	0	0.30000000000000004	0.7	2	6	0.6000000000000001	4.199999999999998	valid	0.33327407500109985	53248	0	1	1	53248	1	53248	1	53248	1	0.7	53248	purple	turquoise	1	6	ml	2.7.3	bip	sub-06_ses-01_task-ml_proj-bip_2020-11-13-10-08-24.958751
20	6	1	1	21	stable	1	200	21	sv	purple	turquoise	purple	turquoise	left	right	0.7	0.30000000000000004	6	2	4.199999999999998	0.6000000000000001	1	0	0.7	0.30000000000000004	6	2	4.199999999999998	0.6000000000000001	valid	0.3665909379997174	51200	0	0	1	51200	1	51200	1	51200	1	0.7	51200	purple	turquoise	1	6	ml	2.7.3	bip	sub-06_ses-01_task-ml_proj-bip_2020-11-13-10-08-24.958751
21	6	1	1	22	stable	1	200	22	sv	turquoise	purple	purple	turquoise	right	left	0.7	0.30000000000000004	2	10	1.4	3.0000000000000004	0	1	0.30000000000000004	0.7	10	2	3.0000000000000004	1.4	invalid	0.3999225059997116	53248	0	1	1	51200	0	53248	1	51200	0	0.7	53248	purple	turquoise	0	0	ml	2.7.3	bip	sub-06_ses-01_task-ml_proj-bip_2020-11-13-10-08-24.958751
22	6	1	1	23	stable	1	200	23	sv	purple	turquoise	purple	turquoise	left	right	0.7	0.30000000000000004	6	6	4.199999999999998	1.8000000000000005	1	0	0.7	0.30000000000000004	6	6	4.199999999999998	1.8000000000000005	valid	0.3499347140004829	53248	0	1	2	51200	0	51200	0	53248	1	0.7	51200	purple	turquoise	1	0	ml	2.7.3	bip	sub-06_ses-01_task-ml_proj-bip_2020-11-13-10-08-24.958751
23	6	1	1	24	stable	1	200	24	sv	purple	turquoise	purple	turquoise	left	right	0.7	0.30000000000000004	6	4	4.199999999999998	1.2000000000000002	1	0	0.7	0.30000000000000004	6	4	4.199999999999998	1.2000000000000002	valid	0.2999377850010205	51200	0	0	1	51200	1	51200	1	51200	1	0.7	51200	purple	turquoise	1	6	ml	2.7.3	bip	sub-06_ses-01_task-ml_proj-bip_2020-11-13-10-08-24.958751
24	6	1	1	25	stable	1	200	25	sv	turquoise	purple	purple	turquoise	right	left	0.7	0.30000000000000004	10	2	7.0	0.6000000000000001	0	1	0.30000000000000004	0.7	2	10	0.6000000000000001	7.0	invalid	0.3832634190002864	53248	0	1	1	53248	1	53248	1	53248	1	0.7	53248	purple	turquoise	1	0	ml	2.7.3	bip	sub-06_ses-01_task-ml_proj-bip_2020-11-13-10-08-24.958751
25	6	1	1	26	stable	1	200	26	sv	purple	turquoise	purple	turquoise	left	right	0.7	0.30000000000000004	4	6	2.8	1.8000000000000005	1	0	0.7	0.30000000000000004	4	6	2.8	1.8000000000000005	valid	0.4165814640000463	51200	0	0	1	51200	1	51200	1	53248	0	0.7	51200	purple	turquoise	0	4	ml	2.7.3	bip	sub-06_ses-01_task-ml_proj-bip_2020-11-13-10-08-24.958751
26	6	1	1	27	stable	1	200	27	sv	purple	turquoise	purple	turquoise	left	right	0.7	0.30000000000000004	2	4	1.4	1.2000000000000002	0	1	0.7	0.30000000000000004	2	4	1.4	1.2000000000000002	invalid	0.4332374179994076	51200	0	0	1	51200	1	51200	1	53248	0	0.7	51200	purple	turquoise	0	0	ml	2.7.3	bip	sub-06_ses-01_task-ml_proj-bip_2020-11-13-10-08-24.958751
27	6	1	1	28	stable	1	200	28	sv	purple	turquoise	purple	turquoise	left	right	0.7	0.30000000000000004	2	2	1.4	0.6000000000000001	1	0	0.7	0.30000000000000004	2	2	1.4	0.6000000000000001	valid	0.4498955279996153	51200	0	0	1	51200	1	51200	1	53248	0	0.7	51200	purple	turquoise	1	2	ml	2.7.3	bip	sub-06_ses-01_task-ml_proj-bip_2020-11-13-10-08-24.958751
28	6	1	1	29	stable	1	200	29	sv	turquoise	purple	purple	turquoise	right	left	0.7	0.30000000000000004	6	4	4.199999999999998	1.2000000000000002	1	0	0.30000000000000004	0.7	4	6	1.2000000000000002	4.199999999999998	valid	0.3665989630007971	53248	0	1	1	53248	1	53248	1	53248	1	0.7	53248	purple	turquoise	1	6	ml	2.7.3	bip	sub-06_ses-01_task-ml_proj-bip_2020-11-13-10-08-24.958751
29	6	1	1	30	stable	1	200	30	sv	turquoise	purple	purple	turquoise	right	left	0.7	0.30000000000000004	2	4	1.4	1.2000000000000002	1	0	0.30000000000000004	0.7	4	2	1.2000000000000002	1.4	valid	0.3999227250005788	53248	0	1	1	53248	1	53248	1	51200	0	0.7	53248	purple	turquoise	0	2	ml	2.7.3	bip	sub-06_ses-01_task-ml_proj-bip_2020-11-13-10-08-24.958751
30	6	1	1	31	stable	1	200	31	sv	purple	turquoise	purple	turquoise	left	right	0.7	0.30000000000000004	2	10	1.4	3.0000000000000004	1	0	0.7	0.30000000000000004	2	10	1.4	3.0000000000000004	valid	0.4332388590009941	53248	0	1	2	53248	1	51200	0	53248	1	0.7	51200	purple	turquoise	0	0	ml	2.7.3	bip	sub-06_ses-01_task-ml_proj-bip_2020-11-13-10-08-24.958751
31	6	1	1	32	stable	1	200	32	sv	turquoise	purple	purple	turquoise	right	left	0.7	0.30000000000000004	2	2	1.4	0.6000000000000001	1	0	0.30000000000000004	0.7	2	2	0.6000000000000001	1.4	valid	0.3499365700008639	53248	0	1	1	53248	1	53248	1	53248	1	0.7	53248	purple	turquoise	0	2	ml	2.7.3	bip	sub-06_ses-01_task-ml_proj-bip_2020-11-13-10-08-24.958751
32	6	1	1	33	stable	1	200	33	sv	turquoise	purple	purple	turquoise	right	left	0.7	0.30000000000000004	4	6	2.8	1.8000000000000005	1	0	0.30000000000000004	0.7	6	4	1.8000000000000005	2.8	valid	0.39991217799979495	51200	0	0	2	53248	0	53248	0	51200	1	0.7	53248	purple	turquoise	0	0	ml	2.7.3	bip	sub-06_ses-01_task-ml_proj-bip_2020-11-13-10-08-24.958751
33	6	1	1	34	stable	1	200	34	sv	purple	turquoise	purple	turquoise	left	right	0.7	0.30000000000000004	2	4	1.4	1.2000000000000002	0	1	0.7	0.30000000000000004	2	4	1.4	1.2000000000000002	invalid	0.33326286900046403	51200	0	0	1	51200	1	51200	1	53248	0	0.7	51200	purple	turquoise	0	0	ml	2.7.3	bip	sub-06_ses-01_task-ml_proj-bip_2020-11-13-10-08-24.958751
34	6	1	1	35	stable	1	200	35	sv	purple	turquoise	purple	turquoise	left	right	0.7	0.30000000000000004	6	2	4.199999999999998	0.6000000000000001	1	0	0.7	0.30000000000000004	6	2	4.199999999999998	0.6000000000000001	valid	0.31660202800048864	51200	0	0	1	51200	1	51200	1	51200	1	0.7	51200	purple	turquoise	1	6	ml	2.7.3	bip	sub-06_ses-01_task-ml_proj-bip_2020-11-13-10-08-24.958751
35	6	1	1	36	stable	1	200	36	sv	purple	turquoise	purple	turquoise	left	right	0.7	0.30000000000000004	6	4	4.199999999999998	1.2000000000000002	1	0	0.7	0.30000000000000004	6	4	4.199999999999998	1.2000000000000002	valid	0.31660048899902904	51200	0	0	1	51200	1	51200	1	51200	1	0.7	51200	purple	turquoise	1	6	ml	2.7.3	bip	sub-06_ses-01_task-ml_proj-bip_2020-11-13-10-08-24.958751
36	6	1	1	37	stable	1	200	37	sv	purple	turquoise	purple	turquoise	left	right	0.7	0.30000000000000004	6	2	4.199999999999998	0.6000000000000001	0	1	0.7	0.30000000000000004	6	2	4.199999999999998	0.6000000000000001	invalid	0.3332652599983703	51200	0	0	1	51200	1	51200	1	51200	1	0.7	51200	purple	turquoise	1	0	ml	2.7.3	bip	sub-06_ses-01_task-ml_proj-bip_2020-11-13-10-08-24.958751
37	6	1	1	38	stable	1	200	38	sv	purple	turquoise	purple	turquoise	left	right	0.7	0.30000000000000004	6	4	4.199999999999998	1.2000000000000002	0	1	0.7	0.30000000000000004	6	4	4.199999999999998	1.2000000000000002	invalid	0.3332648600007815	51200	0	0	1	51200	1	51200	1	51200	1	0.7	51200	purple	turquoise	1	0	ml	2.7.3	bip	sub-06_ses-01_task-ml_proj-bip_2020-11-13-10-08-24.958751
38	6	1	1	39	stable	1	200	39	sv	turquoise	purple	purple	turquoise	right	left	0.7	0.30000000000000004	6	4	4.199999999999998	1.2000000000000002	1	0	0.30000000000000004	0.7	4	6	1.2000000000000002	4.199999999999998	valid	0.34993279500122304	51200	0	0	2	53248	0	53248	0	53248	0	0.7	53248	purple	turquoise	1	0	ml	2.7.3	bip	sub-06_ses-01_task-ml_proj-bip_2020-11-13-10-08-24.958751
39	6	1	1	40	stable	1	200	40	sv	turquoise	purple	purple	turquoise	right	left	0.7	0.30000000000000004	6	6	4.199999999999998	1.8000000000000005	0	1	0.30000000000000004	0.7	6	6	1.8000000000000005	4.199999999999998	invalid	0.3499390870001662	53248	0	1	1	53248	1	53248	1	53248	1	0.7	53248	purple	turquoise	0	0	ml	2.7.3	bip	sub-06_ses-01_task-ml_proj-bip_2020-11-13-10-08-24.958751
40	6	1	1	41	stable	1	200	41	sv	purple	turquoise	purple	turquoise	left	right	0.7	0.30000000000000004	2	10	1.4	3.0000000000000004	1	0	0.7	0.30000000000000004	2	10	1.4	3.0000000000000004	valid	0.3166149030002998	53248	0	1	2	53248	1	51200	0	53248	1	0.7	51200	purple	turquoise	0	0	ml	2.7.3	bip	sub-06_ses-01_task-ml_proj-bip_2020-11-13-10-08-24.958751
41	6	1	1	42	stable	1	200	42	sv	purple	turquoise	purple	turquoise	left	right	0.7	0.30000000000000004	2	6	1.4	1.8000000000000005	1	0	0.7	0.30000000000000004	2	6	1.4	1.8000000000000005	valid	0.3666001649999089	53248	0	1	2	53248	1	51200	0	53248	1	0.7	51200	purple	turquoise	0	0	ml	2.7.3	bip	sub-06_ses-01_task-ml_proj-bip_2020-11-13-10-08-24.958751
42	6	1	1	43	stable	1	200	43	sv	purple	turquoise	purple	turquoise	left	right	0.7	0.30000000000000004	10	2	7.0	0.6000000000000001	0	1	0.7	0.30000000000000004	10	2	7.0	0.6000000000000001	invalid	0.3999241849996906	51200	0	0	1	51200	1	51200	1	51200	1	0.7	51200	purple	turquoise	1	0	ml	2.7.3	bip	sub-06_ses-01_task-ml_proj-bip_2020-11-13-10-08-24.958751
43	6	1	1	44	stable	1	200	44	sv	turquoise	purple	purple	turquoise	right	left	0.7	0.30000000000000004	6	6	4.199999999999998	1.8000000000000005	0	1	0.30000000000000004	0.7	6	6	1.8000000000000005	4.199999999999998	invalid	0.316601227999854	51200	0	0	2	53248	0	53248	0	53248	0	0.7	53248	purple	turquoise	0	6	ml	2.7.3	bip	sub-06_ses-01_task-ml_proj-bip_2020-11-13-10-08-24.958751
44	6	1	1	45	stable	1	200	45	sv	turquoise	purple	purple	turquoise	right	left	0.7	0.30000000000000004	4	2	2.8	0.6000000000000001	1	0	0.30000000000000004	0.7	2	4	0.6000000000000001	2.8	valid	0.2999393580012111	51200	0	0	2	53248	0	53248	0	53248	0	0.7	53248	purple	turquoise	1	0	ml	2.7.3	bip	sub-06_ses-01_task-ml_proj-bip_2020-11-13-10-08-24.958751
45	6	1	1	46	stable	1	200	46	sv	purple	turquoise	purple	turquoise	left	right	0.7	0.30000000000000004	6	6	4.199999999999998	1.8000000000000005	1	0	0.7	0.30000000000000004	6	6	4.199999999999998	1.8000000000000005	valid	0.3832476499992481	51200	0	0	1	51200	1	51200	1	53248	0	0.7	51200	purple	turquoise	1	6	ml	2.7.3	bip	sub-06_ses-01_task-ml_proj-bip_2020-11-13-10-08-24.958751
46	6	1	1	47	stable	1	200	47	sv	purple	turquoise	purple	turquoise	left	right	0.7	0.30000000000000004	2	4	1.4	1.2000000000000002	1	0	0.7	0.30000000000000004	2	4	1.4	1.2000000000000002	valid	0.2832799550014897	51200	0	0	1	51200	1	51200	1	53248	0	0.7	51200	purple	turquoise	0	2	ml	2.7.3	bip	sub-06_ses-01_task-ml_proj-bip_2020-11-13-10-08-24.958751
47	6	1	1	48	stable	1	200	48	sv	purple	turquoise	purple	turquoise	left	right	0.7	0.30000000000000004	2	6	1.4	1.8000000000000005	0	1	0.7	0.30000000000000004	2	6	1.4	1.8000000000000005	invalid	0.2499527330001001	51200	0	0	1	53248	0	51200	1	53248	0	0.7	51200	purple	turquoise	0	0	ml	2.7.3	bip	sub-06_ses-01_task-ml_proj-bip_2020-11-13-10-08-24.958751
48	6	1	1	49	stable	1	200	49	sv	purple	turquoise	purple	turquoise	left	right	0.7	0.30000000000000004	6	4	4.199999999999998	1.2000000000000002	0	1	0.7	0.30000000000000004	6	4	4.199999999999998	1.2000000000000002	invalid	0.3166031440014194	51200	0	0	1	51200	1	51200	1	51200	1	0.7	51200	purple	turquoise	1	0	ml	2.7.3	bip	sub-06_ses-01_task-ml_proj-bip_2020-11-13-10-08-24.958751
49	6	1	1	50	stable	1	200	50	sv	purple	turquoise	purple	turquoise	left	right	0.7	0.30000000000000004	4	2	2.8	0.6000000000000001	1	0	0.7	0.30000000000000004	4	2	2.8	0.6000000000000001	valid	0.349936644999616	53248	0	1	2	51200	0	51200	0	51200	0	0.7	51200	purple	turquoise	1	0	ml	2.7.3	bip	sub-06_ses-01_task-ml_proj-bip_2020-11-13-10-08-24.958751
50	6	1	2	51	stable	1	200	51	sv	turquoise	purple	purple	turquoise	right	left	0.7	0.30000000000000004	10	2	7.0	0.6000000000000001	0	1	0.30000000000000004	0.7	2	10	0.6000000000000001	7.0	invalid	0.3999231649995636	53248	0	1	1	53248	1	53248	1	53248	1	0.7	53248	purple	turquoise	1	0	ml	2.7.3	bip	sub-06_ses-01_task-ml_proj-bip_2020-11-13-10-08-24.958751
51	6	1	2	52	stable	1	200	52	sv	purple	turquoise	purple	turquoise	left	right	0.7	0.30000000000000004	2	4	1.4	1.2000000000000002	0	1	0.7	0.30000000000000004	2	4	1.4	1.2000000000000002	invalid	0.28327904000070697	51200	0	0	1	51200	1	51200	1	53248	0	0.7	51200	purple	turquoise	0	0	ml	2.7.3	bip	sub-06_ses-01_task-ml_proj-bip_2020-11-13-10-08-24.958751
52	6	1	2	53	stable	1	200	53	sv	purple	turquoise	purple	turquoise	left	right	0.7	0.30000000000000004	10	2	7.0	0.6000000000000001	0	1	0.7	0.30000000000000004	10	2	7.0	0.6000000000000001	invalid	0.2499543369995081	51200	0	0	1	51200	1	51200	1	51200	1	0.7	51200	purple	turquoise	1	0	ml	2.7.3	bip	sub-06_ses-01_task-ml_proj-bip_2020-11-13-10-08-24.958751
53	6	1	2	54	stable	1	200	54	sv	turquoise	purple	purple	turquoise	right	left	0.7	0.30000000000000004	6	6	4.199999999999998	1.8000000000000005	1	0	0.30000000000000004	0.7	6	6	1.8000000000000005	4.199999999999998	valid	0.3832478969998192	51200	0	0	2	53248	0	53248	0	53248	0	0.7	53248	purple	turquoise	0	0	ml	2.7.3	bip	sub-06_ses-01_task-ml_proj-bip_2020-11-13-10-08-24.958751
54	6	1	2	55	stable	1	200	55	sv	turquoise	purple	purple	turquoise	right	left	0.7	0.30000000000000004	2	4	1.4	1.2000000000000002	0	1	0.30000000000000004	0.7	4	2	1.2000000000000002	1.4	invalid	0.2999380620003649	51200	0	0	2	53248	0	53248	0	51200	1	0.7	53248	purple	turquoise	0	4	ml	2.7.3	bip	sub-06_ses-01_task-ml_proj-bip_2020-11-13-10-08-24.958751
55	6	1	2	56	stable	1	200	56	sv	turquoise	purple	purple	turquoise	right	left	0.7	0.30000000000000004	6	2	4.199999999999998	0.6000000000000001	0	1	0.30000000000000004	0.7	2	6	0.6000000000000001	4.199999999999998	invalid	0.21663670599991747	51200	0	0	2	53248	0	53248	0	53248	0	0.7	53248	purple	turquoise	1	2	ml	2.7.3	bip	sub-06_ses-01_task-ml_proj-bip_2020-11-13-10-08-24.958751
56	6	1	2	57	stable	1	200	57	sv	turquoise	purple	purple	turquoise	right	left	0.7	0.30000000000000004	6	2	4.199999999999998	0.6000000000000001	1	0	0.30000000000000004	0.7	2	6	0.6000000000000001	4.199999999999998	valid	0.2666123870003503	51200	0	0	2	53248	0	53248	0	53248	0	0.7	53248	purple	turquoise	1	0	ml	2.7.3	bip	sub-06_ses-01_task-ml_proj-bip_2020-11-13-10-08-24.958751
57	6	1	2	58	stable	1	200	58	sv	purple	turquoise	purple	turquoise	left	right	0.7	0.30000000000000004	2	6	1.4	1.8000000000000005	0	1	0.7	0.30000000000000004	2	6	1.4	1.8000000000000005	invalid	0.34993834099987	53248	0	1	2	53248	1	51200	0	53248	1	0.7	51200	purple	turquoise	0	6	ml	2.7.3	bip	sub-06_ses-01_task-ml_proj-bip_2020-11-13-10-08-24.958751
58	6	1	2	59	stable	1	200	59	sv	purple	turquoise	purple	turquoise	left	right	0.7	0.30000000000000004	10	2	7.0	0.6000000000000001	1	0	0.7	0.30000000000000004	10	2	7.0	0.6000000000000001	valid	0.34993166200001724	53248	0	1	2	51200	0	51200	0	51200	0	0.7	51200	purple	turquoise	1	0	ml	2.7.3	bip	sub-06_ses-01_task-ml_proj-bip_2020-11-13-10-08-24.958751
59	6	1	2	60	stable	1	200	60	sv	purple	turquoise	purple	turquoise	left	right	0.7	0.30000000000000004	2	2	1.4	0.6000000000000001	0	1	0.7	0.30000000000000004	2	2	1.4	0.6000000000000001	invalid	0.3665968090008391	53248	0	1	2	51200	0	51200	0	53248	1	0.7	51200	purple	turquoise	1	2	ml	2.7.3	bip	sub-06_ses-01_task-ml_proj-bip_2020-11-13-10-08-24.958751
60	6	1	2	61	stable	1	200	61	sv	turquoise	purple	purple	turquoise	right	left	0.7	0.30000000000000004	6	6	4.199999999999998	1.8000000000000005	1	0	0.30000000000000004	0.7	6	6	1.8000000000000005	4.199999999999998	valid	0.5165445149996231	51200	0	0	2	53248	0	53248	0	53248	0	0.7	53248	purple	turquoise	0	0	ml	2.7.3	bip	sub-06_ses-01_task-ml_proj-bip_2020-11-13-10-08-24.958751
61	6	1	2	62	stable	1	200	62	sv	turquoise	purple	purple	turquoise	right	left	0.7	0.30000000000000004	2	4	1.4	1.2000000000000002	1	0	0.30000000000000004	0.7	4	2	1.2000000000000002	1.4	valid	0.3332658379986242	51200	0	0	2	53248	0	53248	0	51200	1	0.7	53248	purple	turquoise	0	0	ml	2.7.3	bip	sub-06_ses-01_task-ml_proj-bip_2020-11-13-10-08-24.958751
62	6	1	2	63	stable	1	200	63	sv	purple	turquoise	purple	turquoise	left	right	0.7	0.30000000000000004	2	6	1.4	1.8000000000000005	1	0	0.7	0.30000000000000004	2	6	1.4	1.8000000000000005	valid	0.31661200700000336	53248	0	1	2	53248	1	51200	0	53248	1	0.7	51200	purple	turquoise	0	0	ml	2.7.3	bip	sub-06_ses-01_task-ml_proj-bip_2020-11-13-10-08-24.958751
63	6	1	2	64	stable	1	200	64	sv	purple	turquoise	purple	turquoise	left	right	0.7	0.30000000000000004	2	10	1.4	3.0000000000000004	1	0	0.7	0.30000000000000004	2	10	1.4	3.0000000000000004	valid	0.3999237539992464	53248	0	1	2	53248	1	51200	0	53248	1	0.7	51200	purple	turquoise	0	0	ml	2.7.3	bip	sub-06_ses-01_task-ml_proj-bip_2020-11-13-10-08-24.958751
64	6	1	2	65	stable	1	200	65	sv	turquoise	purple	purple	turquoise	right	left	0.7	0.30000000000000004	10	2	7.0	0.6000000000000001	1	0	0.30000000000000004	0.7	2	10	0.6000000000000001	7.0	valid	0.2999516380004934	53248	0	1	1	53248	1	53248	1	53248	1	0.7	53248	purple	turquoise	1	10	ml	2.7.3	bip	sub-06_ses-01_task-ml_proj-bip_2020-11-13-10-08-24.958751
65	6	1	2	66	stable	1	200	66	sv	purple	turquoise	purple	turquoise	left	right	0.7	0.30000000000000004	2	2	1.4	0.6000000000000001	1	0	0.7	0.30000000000000004	2	2	1.4	0.6000000000000001	valid	0.33326269399913144	51200	0	0	1	51200	1	51200	1	53248	0	0.7	51200	purple	turquoise	1	2	ml	2.7.3	bip	sub-06_ses-01_task-ml_proj-bip_2020-11-13-10-08-24.958751
66	6	1	2	67	stable	1	200	67	sv	purple	turquoise	purple	turquoise	left	right	0.7	0.30000000000000004	2	2	1.4	0.6000000000000001	1	0	0.7	0.30000000000000004	2	2	1.4	0.6000000000000001	valid	0.31660070100042503	51200	0	0	1	51200	1	51200	1	53248	0	0.7	51200	purple	turquoise	1	2	ml	2.7.3	bip	sub-06_ses-01_task-ml_proj-bip_2020-11-13-10-08-24.958751
67	6	1	2	68	stable	1	200	68	sv	purple	turquoise	purple	turquoise	left	right	0.7	0.30000000000000004	2	4	1.4	1.2000000000000002	1	0	0.7	0.30000000000000004	2	4	1.4	1.2000000000000002	valid	0.36658599699876493	51200	0	0	1	51200	1	51200	1	53248	0	0.7	51200	purple	turquoise	0	2	ml	2.7.3	bip	sub-06_ses-01_task-ml_proj-bip_2020-11-13-10-08-24.958751
68	6	1	2	69	stable	1	200	69	sv	turquoise	purple	purple	turquoise	right	left	0.7	0.30000000000000004	6	4	4.199999999999998	1.2000000000000002	1	0	0.30000000000000004	0.7	4	6	1.2000000000000002	4.199999999999998	valid	0.4165838970002369	53248	0	1	1	53248	1	53248	1	53248	1	0.7	53248	purple	turquoise	1	6	ml	2.7.3	bip	sub-06_ses-01_task-ml_proj-bip_2020-11-13-10-08-24.958751
69	6	1	2	70	stable	1	200	70	sv	purple	turquoise	purple	turquoise	left	right	0.7	0.30000000000000004	4	6	2.8	1.8000000000000005	1	0	0.7	0.30000000000000004	4	6	2.8	1.8000000000000005	valid	0.3499312790008844	51200	0	0	1	51200	1	51200	1	53248	0	0.7	51200	purple	turquoise	0	4	ml	2.7.3	bip	sub-06_ses-01_task-ml_proj-bip_2020-11-13-10-08-24.958751
70	6	1	2	71	stable	1	200	71	sv	turquoise	purple	purple	turquoise	right	left	0.7	0.30000000000000004	2	6	1.4	1.8000000000000005	1	0	0.30000000000000004	0.7	6	2	1.8000000000000005	1.4	valid	0.3332812600001489	53248	0	1	1	51200	0	53248	1	51200	0	0.7	53248	purple	turquoise	0	2	ml	2.7.3	bip	sub-06_ses-01_task-ml_proj-bip_2020-11-13-10-08-24.958751
71	6	1	2	72	stable	1	200	72	sv	purple	turquoise	purple	turquoise	left	right	0.7	0.30000000000000004	6	2	4.199999999999998	0.6000000000000001	0	1	0.7	0.30000000000000004	6	2	4.199999999999998	0.6000000000000001	invalid	0.283278547000009	51200	0	0	1	51200	1	51200	1	51200	1	0.7	51200	purple	turquoise	1	0	ml	2.7.3	bip	sub-06_ses-01_task-ml_proj-bip_2020-11-13-10-08-24.958751
72	6	1	2	73	stable	1	200	73	sv	turquoise	purple	purple	turquoise	right	left	0.7	0.30000000000000004	2	10	1.4	3.0000000000000004	1	0	0.30000000000000004	0.7	10	2	3.0000000000000004	1.4	valid	0.31661957100004656	53248	0	1	1	51200	0	53248	1	51200	0	0.7	53248	purple	turquoise	0	2	ml	2.7.3	bip	sub-06_ses-01_task-ml_proj-bip_2020-11-13-10-08-24.958751
73	6	1	2	74	stable	1	200	74	sv	turquoise	purple	purple	turquoise	right	left	0.7	0.30000000000000004	6	6	4.199999999999998	1.8000000000000005	1	0	0.30000000000000004	0.7	6	6	1.8000000000000005	4.199999999999998	valid	0.3499351359987486	53248	0	1	1	53248	1	53248	1	53248	1	0.7	53248	purple	turquoise	0	6	ml	2.7.3	bip	sub-06_ses-01_task-ml_proj-bip_2020-11-13-10-08-24.958751
74	6	1	2	75	stable	1	200	75	sv	turquoise	purple	purple	turquoise	right	left	0.7	0.30000000000000004	2	10	1.4	3.0000000000000004	1	0	0.30000000000000004	0.7	10	2	3.0000000000000004	1.4	valid	0.39992336300019815	53248	0	1	1	51200	0	53248	1	51200	0	0.7	53248	purple	turquoise	0	2	ml	2.7.3	bip	sub-06_ses-01_task-ml_proj-bip_2020-11-13-10-08-24.958751
75	6	1	2	76	stable	1	200	76	sv	turquoise	purple	purple	turquoise	right	left	0.7	0.30000000000000004	6	2	4.199999999999998	0.6000000000000001	1	0	0.30000000000000004	0.7	2	6	0.6000000000000001	4.199999999999998	valid	0.2999507780004933	53248	0	1	1	53248	1	53248	1	53248	1	0.7	53248	purple	turquoise	1	6	ml	2.7.3	bip	sub-06_ses-01_task-ml_proj-bip_2020-11-13-10-08-24.958751
76	6	1	2	77	stable	1	200	77	sv	turquoise	purple	purple	turquoise	right	left	0.7	0.30000000000000004	2	6	1.4	1.8000000000000005	1	0	0.30000000000000004	0.7	6	2	1.8000000000000005	1.4	valid	0.3332763360012905	53248	0	1	1	51200	0	53248	1	51200	0	0.7	53248	purple	turquoise	0	2	ml	2.7.3	bip	sub-06_ses-01_task-ml_proj-bip_2020-11-13-10-08-24.958751
77	6	1	2	78	stable	1	200	78	sv	turquoise	purple	purple	turquoise	right	left	0.7	0.30000000000000004	2	4	1.4	1.2000000000000002	1	0	0.30000000000000004	0.7	4	2	1.2000000000000002	1.4	valid	0.2832891610014485	53248	0	1	1	53248	1	53248	1	51200	0	0.7	53248	purple	turquoise	0	2	ml	2.7.3	bip	sub-06_ses-01_task-ml_proj-bip_2020-11-13-10-08-24.958751
78	6	1	2	79	stable	1	200	79	sv	turquoise	purple	purple	turquoise	right	left	0.7	0.30000000000000004	4	2	2.8	0.6000000000000001	1	0	0.30000000000000004	0.7	2	4	0.6000000000000001	2.8	valid	0.3332809319999797	53248	0	1	1	53248	1	53248	1	53248	1	0.7	53248	purple	turquoise	1	4	ml	2.7.3	bip	sub-06_ses-01_task-ml_proj-bip_2020-11-13-10-08-24.958751
79	6	1	2	80	stable	1	200	80	sv	turquoise	purple	purple	turquoise	right	left	0.7	0.30000000000000004	6	4	4.199999999999998	1.2000000000000002	1	0	0.30000000000000004	0.7	4	6	1.2000000000000002	4.199999999999998	valid	0.2499673499987693	53248	0	1	1	53248	1	53248	1	53248	1	0.7	53248	purple	turquoise	1	6	ml	2.7.3	bip	sub-06_ses-01_task-ml_proj-bip_2020-11-13-10-08-24.958751
80	6	1	2	81	stable	1	200	81	sv	turquoise	purple	purple	turquoise	right	left	0.7	0.30000000000000004	6	4	4.199999999999998	1.2000000000000002	1	0	0.30000000000000004	0.7	4	6	1.2000000000000002	4.199999999999998	valid	0.24996515400016506	53248	0	1	1	53248	1	53248	1	53248	1	0.7	53248	purple	turquoise	1	6	ml	2.7.3	bip	sub-06_ses-01_task-ml_proj-bip_2020-11-13-10-08-24.958751
81	6	1	2	82	stable	1	200	82	sv	turquoise	purple	purple	turquoise	right	left	0.7	0.30000000000000004	10	2	7.0	0.6000000000000001	0	1	0.30000000000000004	0.7	2	10	0.6000000000000001	7.0	invalid	0.2832915190010681	53248	0	1	1	53248	1	53248	1	53248	1	0.7	53248	purple	turquoise	1	0	ml	2.7.3	bip	sub-06_ses-01_task-ml_proj-bip_2020-11-13-10-08-24.958751
82	6	1	2	83	stable	1	200	83	sv	purple	turquoise	purple	turquoise	left	right	0.7	0.30000000000000004	2	10	1.4	3.0000000000000004	1	0	0.7	0.30000000000000004	2	10	1.4	3.0000000000000004	valid	0.7164934300017194	51200	0	0	1	53248	0	51200	1	53248	0	0.7	51200	purple	turquoise	0	2	ml	2.7.3	bip	sub-06_ses-01_task-ml_proj-bip_2020-11-13-10-08-24.958751
83	6	1	2	84	stable	1	200	84	sv	turquoise	purple	purple	turquoise	right	left	0.7	0.30000000000000004	4	6	2.8	1.8000000000000005	1	0	0.30000000000000004	0.7	6	4	1.8000000000000005	2.8	valid	0.3832612019996304	53248	0	1	1	53248	1	53248	1	51200	0	0.7	53248	purple	turquoise	0	4	ml	2.7.3	bip	sub-06_ses-01_task-ml_proj-bip_2020-11-13-10-08-24.958751
84	6	1	2	85	stable	1	200	85	sv	turquoise	purple	purple	turquoise	right	left	0.7	0.30000000000000004	2	10	1.4	3.0000000000000004	1	0	0.30000000000000004	0.7	10	2	3.0000000000000004	1.4	valid	0.3499370150002505	53248	0	1	1	51200	0	53248	1	51200	0	0.7	53248	purple	turquoise	0	2	ml	2.7.3	bip	sub-06_ses-01_task-ml_proj-bip_2020-11-13-10-08-24.958751
85	6	1	2	86	stable	1	200	86	sv	purple	turquoise	purple	turquoise	left	right	0.7	0.30000000000000004	2	2	1.4	0.6000000000000001	1	0	0.7	0.30000000000000004	2	2	1.4	0.6000000000000001	valid	0.5332053410002118	51200	0	0	1	51200	1	51200	1	53248	0	0.7	51200	purple	turquoise	1	2	ml	2.7.3	bip	sub-06_ses-01_task-ml_proj-bip_2020-11-13-10-08-24.958751
86	6	1	2	87	stable	1	200	87	sv	turquoise	purple	purple	turquoise	right	left	0.7	0.30000000000000004	4	6	2.8	1.8000000000000005	0	1	0.30000000000000004	0.7	6	4	1.8000000000000005	2.8	invalid	0.3665970860001835	53248	0	1	1	53248	1	53248	1	51200	0	0.7	53248	purple	turquoise	0	0	ml	2.7.3	bip	sub-06_ses-01_task-ml_proj-bip_2020-11-13-10-08-24.958751
87	6	1	2	88	stable	1	200	88	sv	turquoise	purple	purple	turquoise	right	left	0.7	0.30000000000000004	2	4	1.4	1.2000000000000002	1	0	0.30000000000000004	0.7	4	2	1.2000000000000002	1.4	valid	0.34993970899995475	53248	0	1	1	53248	1	53248	1	51200	0	0.7	53248	purple	turquoise	0	2	ml	2.7.3	bip	sub-06_ses-01_task-ml_proj-bip_2020-11-13-10-08-24.958751
88	6	1	2	89	stable	1	200	89	sv	purple	turquoise	purple	turquoise	left	right	0.7	0.30000000000000004	6	4	4.199999999999998	1.2000000000000002	1	0	0.7	0.30000000000000004	6	4	4.199999999999998	1.2000000000000002	valid	0.333271257000888	53248	0	1	2	51200	0	51200	0	51200	0	0.7	51200	purple	turquoise	1	0	ml	2.7.3	bip	sub-06_ses-01_task-ml_proj-bip_2020-11-13-10-08-24.958751
89	6	1	2	90	stable	1	200	90	sv	purple	turquoise	purple	turquoise	left	right	0.7	0.30000000000000004	4	2	2.8	0.6000000000000001	1	0	0.7	0.30000000000000004	4	2	2.8	0.6000000000000001	valid	0.5998534600003039	51200	0	0	1	51200	1	51200	1	51200	1	0.7	51200	purple	turquoise	1	4	ml	2.7.3	bip	sub-06_ses-01_task-ml_proj-bip_2020-11-13-10-08-24.958751
90	6	1	2	91	stable	1	200	91	sv	turquoise	purple	purple	turquoise	right	left	0.7	0.30000000000000004	6	2	4.199999999999998	0.6000000000000001	1	0	0.30000000000000004	0.7	2	6	0.6000000000000001	4.199999999999998	valid	0.33327308899970376	53248	0	1	1	53248	1	53248	1	53248	1	0.7	53248	purple	turquoise	1	6	ml	2.7.3	bip	sub-06_ses-01_task-ml_proj-bip_2020-11-13-10-08-24.958751
91	6	1	2	92	stable	1	200	92	sv	purple	turquoise	purple	turquoise	left	right	0.7	0.30000000000000004	10	2	7.0	0.6000000000000001	1	0	0.7	0.30000000000000004	10	2	7.0	0.6000000000000001	valid	0.3499227240008622	51200	0	0	1	51200	1	51200	1	51200	1	0.7	51200	purple	turquoise	1	10	ml	2.7.3	bip	sub-06_ses-01_task-ml_proj-bip_2020-11-13-10-08-24.958751
92	6	1	2	93	stable	1	200	93	sv	purple	turquoise	purple	turquoise	left	right	0.7	0.30000000000000004	2	10	1.4	3.0000000000000004	0	1	0.7	0.30000000000000004	2	10	1.4	3.0000000000000004	invalid	0.3665927969996119	51200	0	0	1	53248	0	51200	1	53248	0	0.7	51200	purple	turquoise	0	0	ml	2.7.3	bip	sub-06_ses-01_task-ml_proj-bip_2020-11-13-10-08-24.958751
93	6	1	2	94	stable	1	200	94	sv	turquoise	purple	purple	turquoise	right	left	0.7	0.30000000000000004	2	10	1.4	3.0000000000000004	1	0	0.30000000000000004	0.7	10	2	3.0000000000000004	1.4	valid	0.3999245270006213	53248	0	1	1	51200	0	53248	1	51200	0	0.7	53248	purple	turquoise	0	2	ml	2.7.3	bip	sub-06_ses-01_task-ml_proj-bip_2020-11-13-10-08-24.958751
94	6	1	2	95	stable	1	200	95	sv	purple	turquoise	purple	turquoise	left	right	0.7	0.30000000000000004	2	10	1.4	3.0000000000000004	0	1	0.7	0.30000000000000004	2	10	1.4	3.0000000000000004	invalid	0.4165596269995149	51200	0	0	1	53248	0	51200	1	53248	0	0.7	51200	purple	turquoise	0	0	ml	2.7.3	bip	sub-06_ses-01_task-ml_proj-bip_2020-11-13-10-08-24.958751
95	6	1	2	96	stable	1	200	96	sv	turquoise	purple	purple	turquoise	right	left	0.7	0.30000000000000004	6	6	4.199999999999998	1.8000000000000005	0	1	0.30000000000000004	0.7	6	6	1.8000000000000005	4.199999999999998	invalid	0.5165610330004711	53248	0	1	1	53248	1	53248	1	53248	1	0.7	53248	purple	turquoise	0	0	ml	2.7.3	bip	sub-06_ses-01_task-ml_proj-bip_2020-11-13-10-08-24.958751
96	6	1	2	97	stable	1	200	97	sv	turquoise	purple	purple	turquoise	right	left	0.7	0.30000000000000004	6	6	4.199999999999998	1.8000000000000005	1	0	0.30000000000000004	0.7	6	6	1.8000000000000005	4.199999999999998	valid	0.34993529500025033	53248	0	1	1	53248	1	53248	1	53248	1	0.7	53248	purple	turquoise	0	6	ml	2.7.3	bip	sub-06_ses-01_task-ml_proj-bip_2020-11-13-10-08-24.958751
97	6	1	2	98	stable	1	200	98	sv	purple	turquoise	purple	turquoise	left	right	0.7	0.30000000000000004	2	4	1.4	1.2000000000000002	1	0	0.7	0.30000000000000004	2	4	1.4	1.2000000000000002	valid	0.5165445370002999	51200	0	0	1	51200	1	51200	1	53248	0	0.7	51200	purple	turquoise	0	2	ml	2.7.3	bip	sub-06_ses-01_task-ml_proj-bip_2020-11-13-10-08-24.958751
98	6	1	2	99	stable	1	200	99	sv	turquoise	purple	purple	turquoise	right	left	0.7	0.30000000000000004	6	4	4.199999999999998	1.2000000000000002	0	1	0.30000000000000004	0.7	4	6	1.2000000000000002	4.199999999999998	invalid	0.38326219500049774	53248	0	1	1	53248	1	53248	1	53248	1	0.7	53248	purple	turquoise	1	0	ml	2.7.3	bip	sub-06_ses-01_task-ml_proj-bip_2020-11-13-10-08-24.958751
99	6	1	2	100	stable	1	200	100	sv	purple	turquoise	purple	turquoise	left	right	0.7	0.30000000000000004	2	4	1.4	1.2000000000000002	1	0	0.7	0.30000000000000004	2	4	1.4	1.2000000000000002	valid	0.3499266479993821	51200	0	0	1	51200	1	51200	1	53248	0	0.7	51200	purple	turquoise	0	2	ml	2.7.3	bip	sub-06_ses-01_task-ml_proj-bip_2020-11-13-10-08-24.958751
100	6	1	3	101	stable	1	200	101	sv	purple	turquoise	purple	turquoise	left	right	0.7	0.30000000000000004	6	4	4.199999999999998	1.2000000000000002	0	1	0.7	0.30000000000000004	6	4	4.199999999999998	1.2000000000000002	invalid	0.4832193929996721	51200	0	0	1	51200	1	51200	1	51200	1	0.7	51200	purple	turquoise	1	0	ml	2.7.3	bip	sub-06_ses-01_task-ml_proj-bip_2020-11-13-10-08-24.958751
101	6	1	3	102	stable	1	200	102	sv	turquoise	purple	purple	turquoise	right	left	0.7	0.30000000000000004	2	10	1.4	3.0000000000000004	1	0	0.30000000000000004	0.7	10	2	3.0000000000000004	1.4	valid	0.33326661700084514	51200	0	0	2	51200	1	53248	0	51200	1	0.7	53248	purple	turquoise	0	0	ml	2.7.3	bip	sub-06_ses-01_task-ml_proj-bip_2020-11-13-10-08-24.958751
102	6	1	3	103	stable	1	200	103	sv	purple	turquoise	purple	turquoise	left	right	0.7	0.30000000000000004	10	2	7.0	0.6000000000000001	1	0	0.7	0.30000000000000004	10	2	7.0	0.6000000000000001	valid	0.7164892079999845	51200	0	0	1	51200	1	51200	1	51200	1	0.7	51200	purple	turquoise	1	10	ml	2.7.3	bip	sub-06_ses-01_task-ml_proj-bip_2020-11-13-10-08-24.958751
103	6	1	3	104	stable	1	200	104	sv	purple	turquoise	purple	turquoise	left	right	0.7	0.30000000000000004	2	10	1.4	3.0000000000000004	1	0	0.7	0.30000000000000004	2	10	1.4	3.0000000000000004	valid	0.3832608890006668	53248	0	1	2	53248	1	51200	0	53248	1	0.7	51200	purple	turquoise	0	0	ml	2.7.3	bip	sub-06_ses-01_task-ml_proj-bip_2020-11-13-10-08-24.958751
104	6	1	3	105	stable	1	200	105	sv	purple	turquoise	purple	turquoise	left	right	0.7	0.30000000000000004	6	2	4.199999999999998	0.6000000000000001	1	0	0.7	0.30000000000000004	6	2	4.199999999999998	0.6000000000000001	valid	0.4165720510009123	51200	0	0	1	51200	1	51200	1	51200	1	0.7	51200	purple	turquoise	1	6	ml	2.7.3	bip	sub-06_ses-01_task-ml_proj-bip_2020-11-13-10-08-24.958751
105	6	1	3	106	stable	1	200	106	sv	turquoise	purple	purple	turquoise	right	left	0.7	0.30000000000000004	2	10	1.4	3.0000000000000004	1	0	0.30000000000000004	0.7	10	2	3.0000000000000004	1.4	valid	0.5832036949996109	53248	0	1	1	51200	0	53248	1	51200	0	0.7	53248	purple	turquoise	0	2	ml	2.7.3	bip	sub-06_ses-01_task-ml_proj-bip_2020-11-13-10-08-24.958751
106	6	1	3	107	stable	1	200	107	sv	purple	turquoise	purple	turquoise	left	right	0.7	0.30000000000000004	2	10	1.4	3.0000000000000004	1	0	0.7	0.30000000000000004	2	10	1.4	3.0000000000000004	valid	0.4165722490015469	51200	0	0	1	53248	0	51200	1	53248	0	0.7	51200	purple	turquoise	0	2	ml	2.7.3	bip	sub-06_ses-01_task-ml_proj-bip_2020-11-13-10-08-24.958751
107	6	1	3	108	stable	1	200	108	sv	turquoise	purple	purple	turquoise	right	left	0.7	0.30000000000000004	2	4	1.4	1.2000000000000002	1	0	0.30000000000000004	0.7	4	2	1.2000000000000002	1.4	valid	0.3832595989988477	53248	0	1	1	53248	1	53248	1	51200	0	0.7	53248	purple	turquoise	0	2	ml	2.7.3	bip	sub-06_ses-01_task-ml_proj-bip_2020-11-13-10-08-24.958751
108	6	1	3	109	stable	1	200	109	sv	purple	turquoise	purple	turquoise	left	right	0.7	0.30000000000000004	10	2	7.0	0.6000000000000001	0	1	0.7	0.30000000000000004	10	2	7.0	0.6000000000000001	invalid	0.3832489999986137	51200	0	0	1	51200	1	51200	1	51200	1	0.7	51200	purple	turquoise	1	0	ml	2.7.3	bip	sub-06_ses-01_task-ml_proj-bip_2020-11-13-10-08-24.958751
109	6	1	3	110	stable	1	200	110	sv	purple	turquoise	purple	turquoise	left	right	0.7	0.30000000000000004	6	4	4.199999999999998	1.2000000000000002	1	0	0.7	0.30000000000000004	6	4	4.199999999999998	1.2000000000000002	valid	0.41657225800008746	51200	0	0	1	51200	1	51200	1	51200	1	0.7	51200	purple	turquoise	1	6	ml	2.7.3	bip	sub-06_ses-01_task-ml_proj-bip_2020-11-13-10-08-24.958751
110	6	1	3	111	stable	1	200	111	sv	turquoise	purple	purple	turquoise	right	left	0.7	0.30000000000000004	6	2	4.199999999999998	0.6000000000000001	1	0	0.30000000000000004	0.7	2	6	0.6000000000000001	4.199999999999998	valid	0.3499384770002507	53248	0	1	1	53248	1	53248	1	53248	1	0.7	53248	purple	turquoise	1	6	ml	2.7.3	bip	sub-06_ses-01_task-ml_proj-bip_2020-11-13-10-08-24.958751
111	6	1	3	112	stable	1	200	112	sv	turquoise	purple	purple	turquoise	right	left	0.7	0.30000000000000004	4	2	2.8	0.6000000000000001	0	1	0.30000000000000004	0.7	2	4	0.6000000000000001	2.8	invalid	0.33327550000103656	53248	0	1	1	53248	1	53248	1	53248	1	0.7	53248	purple	turquoise	1	0	ml	2.7.3	bip	sub-06_ses-01_task-ml_proj-bip_2020-11-13-10-08-24.958751
112	6	1	3	113	stable	1	200	113	sv	turquoise	purple	purple	turquoise	right	left	0.7	0.30000000000000004	4	6	2.8	1.8000000000000005	0	1	0.30000000000000004	0.7	6	4	1.8000000000000005	2.8	invalid	0.3332658219987934	51200	0	0	2	53248	0	53248	0	51200	1	0.7	53248	purple	turquoise	0	6	ml	2.7.3	bip	sub-06_ses-01_task-ml_proj-bip_2020-11-13-10-08-24.958751
113	6	1	3	114	stable	1	200	114	sv	turquoise	purple	purple	turquoise	right	left	0.7	0.30000000000000004	10	2	7.0	0.6000000000000001	1	0	0.30000000000000004	0.7	2	10	0.6000000000000001	7.0	valid	0.24994793299993034	51200	0	0	2	53248	0	53248	0	53248	0	0.7	53248	purple	turquoise	1	0	ml	2.7.3	bip	sub-06_ses-01_task-ml_proj-bip_2020-11-13-10-08-24.958751
114	6	1	3	115	stable	1	200	115	sv	purple	turquoise	purple	turquoise	left	right	0.7	0.30000000000000004	6	4	4.199999999999998	1.2000000000000002	0	1	0.7	0.30000000000000004	6	4	4.199999999999998	1.2000000000000002	invalid	0.4165682100010599	51200	0	0	1	51200	1	51200	1	51200	1	0.7	51200	purple	turquoise	1	0	ml	2.7.3	bip	sub-06_ses-01_task-ml_proj-bip_2020-11-13-10-08-24.958751
115	6	1	3	116	stable	1	200	116	sv	turquoise	purple	purple	turquoise	right	left	0.7	0.30000000000000004	4	2	2.8	0.6000000000000001	0	1	0.30000000000000004	0.7	2	4	0.6000000000000001	2.8	invalid	0.3665876849991037	51200	0	0	2	53248	0	53248	0	53248	0	0.7	53248	purple	turquoise	1	2	ml	2.7.3	bip	sub-06_ses-01_task-ml_proj-bip_2020-11-13-10-08-24.958751
116	6	1	3	117	stable	1	200	117	sv	purple	turquoise	purple	turquoise	left	right	0.7	0.30000000000000004	2	2	1.4	0.6000000000000001	1	0	0.7	0.30000000000000004	2	2	1.4	0.6000000000000001	valid	0.4165858069991373	53248	0	1	2	51200	0	51200	0	53248	1	0.7	51200	purple	turquoise	1	0	ml	2.7.3	bip	sub-06_ses-01_task-ml_proj-bip_2020-11-13-10-08-24.958751
117	6	1	3	118	stable	1	200	118	sv	turquoise	purple	purple	turquoise	right	left	0.7	0.30000000000000004	2	10	1.4	3.0000000000000004	1	0	0.30000000000000004	0.7	10	2	3.0000000000000004	1.4	valid	0.3332627239997237	51200	0	0	2	51200	1	53248	0	51200	1	0.7	53248	purple	turquoise	0	0	ml	2.7.3	bip	sub-06_ses-01_task-ml_proj-bip_2020-11-13-10-08-24.958751
118	6	1	3	119	stable	1	200	119	sv	purple	turquoise	purple	turquoise	left	right	0.7	0.30000000000000004	2	4	1.4	1.2000000000000002	1	0	0.7	0.30000000000000004	2	4	1.4	1.2000000000000002	valid	0.3998973779998778	51200	0	0	1	51200	1	51200	1	53248	0	0.7	51200	purple	turquoise	0	2	ml	2.7.3	bip	sub-06_ses-01_task-ml_proj-bip_2020-11-13-10-08-24.958751
119	6	1	3	120	stable	1	200	120	sv	purple	turquoise	purple	turquoise	left	right	0.7	0.30000000000000004	6	6	4.199999999999998	1.8000000000000005	1	0	0.7	0.30000000000000004	6	6	4.199999999999998	1.8000000000000005	valid	0.3166012729998329	51200	0	0	1	51200	1	51200	1	53248	0	0.7	51200	purple	turquoise	1	6	ml	2.7.3	bip	sub-06_ses-01_task-ml_proj-bip_2020-11-13-10-08-24.958751
120	6	1	3	121	stable	1	200	121	sv	purple	turquoise	purple	turquoise	left	right	0.7	0.30000000000000004	6	4	4.199999999999998	1.2000000000000002	1	0	0.7	0.30000000000000004	6	4	4.199999999999998	1.2000000000000002	valid	0.4165734369998973	51200	0	0	1	51200	1	51200	1	51200	1	0.7	51200	purple	turquoise	1	6	ml	2.7.3	bip	sub-06_ses-01_task-ml_proj-bip_2020-11-13-10-08-24.958751
121	6	1	3	122	stable	1	200	122	sv	turquoise	purple	purple	turquoise	right	left	0.7	0.30000000000000004	6	4	4.199999999999998	1.2000000000000002	1	0	0.30000000000000004	0.7	4	6	1.2000000000000002	4.199999999999998	valid	0.6498514619997877	53248	0	1	1	53248	1	53248	1	53248	1	0.7	53248	purple	turquoise	1	6	ml	2.7.3	bip	sub-06_ses-01_task-ml_proj-bip_2020-11-13-10-08-24.958751
122	6	1	3	123	stable	1	200	123	sv	purple	turquoise	purple	turquoise	left	right	0.7	0.30000000000000004	6	4	4.199999999999998	1.2000000000000002	1	0	0.7	0.30000000000000004	6	4	4.199999999999998	1.2000000000000002	valid	0.5831999180009007	51200	0	0	1	51200	1	51200	1	51200	1	0.7	51200	purple	turquoise	1	6	ml	2.7.3	bip	sub-06_ses-01_task-ml_proj-bip_2020-11-13-10-08-24.958751
123	6	1	3	124	stable	1	200	124	sv	purple	turquoise	purple	turquoise	left	right	0.7	0.30000000000000004	2	2	1.4	0.6000000000000001	1	0	0.7	0.30000000000000004	2	2	1.4	0.6000000000000001	valid	0.3999129240000912	51200	0	0	1	51200	1	51200	1	53248	0	0.7	51200	purple	turquoise	1	2	ml	2.7.3	bip	sub-06_ses-01_task-ml_proj-bip_2020-11-13-10-08-24.958751
124	6	1	3	125	stable	1	200	125	sv	turquoise	purple	purple	turquoise	right	left	0.7	0.30000000000000004	10	2	7.0	0.6000000000000001	1	0	0.30000000000000004	0.7	2	10	0.6000000000000001	7.0	valid	0.43324868099989533	53248	0	1	1	53248	1	53248	1	53248	1	0.7	53248	purple	turquoise	1	10	ml	2.7.3	bip	sub-06_ses-01_task-ml_proj-bip_2020-11-13-10-08-24.958751
125	6	1	3	126	stable	1	200	126	sv	purple	turquoise	purple	turquoise	left	right	0.7	0.30000000000000004	4	2	2.8	0.6000000000000001	1	0	0.7	0.30000000000000004	4	2	2.8	0.6000000000000001	valid	0.4498966890005249	51200	0	0	1	51200	1	51200	1	51200	1	0.7	51200	purple	turquoise	1	4	ml	2.7.3	bip	sub-06_ses-01_task-ml_proj-bip_2020-11-13-10-08-24.958751
126	6	1	3	127	stable	1	200	127	sv	purple	turquoise	purple	turquoise	left	right	0.7	0.30000000000000004	4	2	2.8	0.6000000000000001	1	0	0.7	0.30000000000000004	4	2	2.8	0.6000000000000001	valid	0.4498976430004405	51200	0	0	1	51200	1	51200	1	51200	1	0.7	51200	purple	turquoise	1	4	ml	2.7.3	bip	sub-06_ses-01_task-ml_proj-bip_2020-11-13-10-08-24.958751
127	6	1	3	128	stable	1	200	128	sv	purple	turquoise	purple	turquoise	left	right	0.7	0.30000000000000004	6	2	4.199999999999998	0.6000000000000001	1	0	0.7	0.30000000000000004	6	2	4.199999999999998	0.6000000000000001	valid	0.4998906729997543	51200	0	0	1	51200	1	51200	1	51200	1	0.7	51200	purple	turquoise	1	6	ml	2.7.3	bip	sub-06_ses-01_task-ml_proj-bip_2020-11-13-10-08-24.958751
128	6	1	3	129	stable	1	200	129	sv	turquoise	purple	purple	turquoise	right	left	0.7	0.30000000000000004	4	2	2.8	0.6000000000000001	0	1	0.30000000000000004	0.7	2	4	0.6000000000000001	2.8	invalid	0.3665999039985763	53248	0	1	1	53248	1	53248	1	53248	1	0.7	53248	purple	turquoise	1	0	ml	2.7.3	bip	sub-06_ses-01_task-ml_proj-bip_2020-11-13-10-08-24.958751
129	6	1	3	130	stable	1	200	130	sv	turquoise	purple	purple	turquoise	right	left	0.7	0.30000000000000004	2	2	1.4	0.6000000000000001	1	0	0.30000000000000004	0.7	2	2	0.6000000000000001	1.4	valid	0.5165455620008288	51200	0	0	2	53248	0	53248	0	53248	0	0.7	53248	purple	turquoise	0	0	ml	2.7.3	bip	sub-06_ses-01_task-ml_proj-bip_2020-11-13-10-08-24.958751
130	6	1	3	131	stable	1	200	131	sv	turquoise	purple	purple	turquoise	right	left	0.7	0.30000000000000004	2	10	1.4	3.0000000000000004	0	1	0.30000000000000004	0.7	10	2	3.0000000000000004	1.4	invalid	0.4165741439992416	51200	0	0	2	51200	1	53248	0	51200	1	0.7	53248	purple	turquoise	0	10	ml	2.7.3	bip	sub-06_ses-01_task-ml_proj-bip_2020-11-13-10-08-24.958751
131	6	1	3	132	stable	1	200	132	sv	purple	turquoise	purple	turquoise	left	right	0.7	0.30000000000000004	4	2	2.8	0.6000000000000001	1	0	0.7	0.30000000000000004	4	2	2.8	0.6000000000000001	valid	0.4832314109989966	53248	0	1	2	51200	0	51200	0	51200	0	0.7	51200	purple	turquoise	1	0	ml	2.7.3	bip	sub-06_ses-01_task-ml_proj-bip_2020-11-13-10-08-24.958751
132	6	1	3	133	stable	1	200	133	sv	purple	turquoise	purple	turquoise	left	right	0.7	0.30000000000000004	6	4	4.199999999999998	1.2000000000000002	1	0	0.7	0.30000000000000004	6	4	4.199999999999998	1.2000000000000002	valid	0.3999089549997734	51200	0	0	1	51200	1	51200	1	51200	1	0.7	51200	purple	turquoise	1	6	ml	2.7.3	bip	sub-06_ses-01_task-ml_proj-bip_2020-11-13-10-08-24.958751
133	6	1	3	134	stable	1	200	134	sv	purple	turquoise	purple	turquoise	left	right	0.7	0.30000000000000004	2	6	1.4	1.8000000000000005	1	0	0.7	0.30000000000000004	2	6	1.4	1.8000000000000005	valid	0.7164891779993923	51200	0	0	1	53248	0	51200	1	53248	0	0.7	51200	purple	turquoise	0	2	ml	2.7.3	bip	sub-06_ses-01_task-ml_proj-bip_2020-11-13-10-08-24.958751
134	6	1	3	135	stable	1	200	135	sv	purple	turquoise	purple	turquoise	left	right	0.7	0.30000000000000004	2	6	1.4	1.8000000000000005	0	1	0.7	0.30000000000000004	2	6	1.4	1.8000000000000005	invalid	0.5165464669989888	51200	0	0	1	53248	0	51200	1	53248	0	0.7	51200	purple	turquoise	0	0	ml	2.7.3	bip	sub-06_ses-01_task-ml_proj-bip_2020-11-13-10-08-24.958751
135	6	1	3	136	stable	1	200	136	sv	turquoise	purple	purple	turquoise	right	left	0.7	0.30000000000000004	4	6	2.8	1.8000000000000005	1	0	0.30000000000000004	0.7	6	4	1.8000000000000005	2.8	valid	0.5165435799990519	51200	0	0	2	53248	0	53248	0	51200	1	0.7	53248	purple	turquoise	0	0	ml	2.7.3	bip	sub-06_ses-01_task-ml_proj-bip_2020-11-13-10-08-24.958751
136	6	1	3	137	stable	1	200	137	sv	turquoise	purple	purple	turquoise	right	left	0.7	0.30000000000000004	2	4	1.4	1.2000000000000002	0	1	0.30000000000000004	0.7	4	2	1.2000000000000002	1.4	invalid	0.43324771600055106	53248	0	1	1	53248	1	53248	1	51200	0	0.7	53248	purple	turquoise	0	0	ml	2.7.3	bip	sub-06_ses-01_task-ml_proj-bip_2020-11-13-10-08-24.958751
137	6	1	3	138	stable	1	200	138	sv	purple	turquoise	purple	turquoise	left	right	0.7	0.30000000000000004	6	6	4.199999999999998	1.8000000000000005	1	0	0.7	0.30000000000000004	6	6	4.199999999999998	1.8000000000000005	valid	0.666508182999678	51200	0	0	1	51200	1	51200	1	53248	0	0.7	51200	purple	turquoise	1	6	ml	2.7.3	bip	sub-06_ses-01_task-ml_proj-bip_2020-11-13-10-08-24.958751
138	6	1	3	139	stable	1	200	139	sv	turquoise	purple	purple	turquoise	right	left	0.7	0.30000000000000004	4	6	2.8	1.8000000000000005	1	0	0.30000000000000004	0.7	6	4	1.8000000000000005	2.8	valid	0.43324556200059305	53248	0	1	1	53248	1	53248	1	51200	0	0.7	53248	purple	turquoise	0	4	ml	2.7.3	bip	sub-06_ses-01_task-ml_proj-bip_2020-11-13-10-08-24.958751
139	6	1	3	140	stable	1	200	140	sv	turquoise	purple	purple	turquoise	right	left	0.7	0.30000000000000004	6	6	4.199999999999998	1.8000000000000005	0	1	0.30000000000000004	0.7	6	6	1.8000000000000005	4.199999999999998	invalid	0.4165823509993061	53248	0	1	1	53248	1	53248	1	53248	1	0.7	53248	purple	turquoise	0	0	ml	2.7.3	bip	sub-06_ses-01_task-ml_proj-bip_2020-11-13-10-08-24.958751
140	6	1	3	141	stable	1	200	141	sv	purple	turquoise	purple	turquoise	left	right	0.7	0.30000000000000004	6	2	4.199999999999998	0.6000000000000001	1	0	0.7	0.30000000000000004	6	2	4.199999999999998	0.6000000000000001	valid	0.5332045329996618	51200	0	0	1	51200	1	51200	1	51200	1	0.7	51200	purple	turquoise	1	6	ml	2.7.3	bip	sub-06_ses-01_task-ml_proj-bip_2020-11-13-10-08-24.958751
141	6	1	3	142	stable	1	200	142	sv	turquoise	purple	purple	turquoise	right	left	0.7	0.30000000000000004	6	6	4.199999999999998	1.8000000000000005	1	0	0.30000000000000004	0.7	6	6	1.8000000000000005	4.199999999999998	valid	0.3665974020004796	53248	0	1	1	53248	1	53248	1	53248	1	0.7	53248	purple	turquoise	0	6	ml	2.7.3	bip	sub-06_ses-01_task-ml_proj-bip_2020-11-13-10-08-24.958751
142	6	1	3	143	stable	1	200	143	sv	purple	turquoise	purple	turquoise	left	right	0.7	0.30000000000000004	6	2	4.199999999999998	0.6000000000000001	0	1	0.7	0.30000000000000004	6	2	4.199999999999998	0.6000000000000001	invalid	0.38324503599869786	51200	0	0	1	51200	1	51200	1	51200	1	0.7	51200	purple	turquoise	1	0	ml	2.7.3	bip	sub-06_ses-01_task-ml_proj-bip_2020-11-13-10-08-24.958751
143	6	1	3	144	stable	1	200	144	sv	turquoise	purple	purple	turquoise	right	left	0.7	0.30000000000000004	2	10	1.4	3.0000000000000004	1	0	0.30000000000000004	0.7	10	2	3.0000000000000004	1.4	valid	0.4832190809993335	51200	0	0	2	51200	1	53248	0	51200	1	0.7	53248	purple	turquoise	0	0	ml	2.7.3	bip	sub-06_ses-01_task-ml_proj-bip_2020-11-13-10-08-24.958751
144	6	1	3	145	stable	1	200	145	sv	turquoise	purple	purple	turquoise	right	left	0.7	0.30000000000000004	2	6	1.4	1.8000000000000005	0	1	0.30000000000000004	0.7	6	2	1.8000000000000005	1.4	invalid	0.5998465030006628	51200	0	0	2	51200	1	53248	0	51200	1	0.7	53248	purple	turquoise	0	6	ml	2.7.3	bip	sub-06_ses-01_task-ml_proj-bip_2020-11-13-10-08-24.958751
145	6	1	3	146	stable	1	200	146	sv	turquoise	purple	purple	turquoise	right	left	0.7	0.30000000000000004	6	2	4.199999999999998	0.6000000000000001	0	1	0.30000000000000004	0.7	2	6	0.6000000000000001	4.199999999999998	invalid	0.5832033019996743	53248	0	1	1	53248	1	53248	1	53248	1	0.7	53248	purple	turquoise	1	0	ml	2.7.3	bip	sub-06_ses-01_task-ml_proj-bip_2020-11-13-10-08-24.958751
146	6	1	3	147	stable	1	200	147	sv	purple	turquoise	purple	turquoise	left	right	0.7	0.30000000000000004	2	6	1.4	1.8000000000000005	0	1	0.7	0.30000000000000004	2	6	1.4	1.8000000000000005	invalid	0.4665748649986199	53248	0	1	2	53248	1	51200	0	53248	1	0.7	51200	purple	turquoise	0	6	ml	2.7.3	bip	sub-06_ses-01_task-ml_proj-bip_2020-11-13-10-08-24.958751
147	6	1	3	148	stable	1	200	148	sv	turquoise	purple	purple	turquoise	right	left	0.7	0.30000000000000004	4	6	2.8	1.8000000000000005	1	0	0.30000000000000004	0.7	6	4	1.8000000000000005	2.8	valid	0.4165671869996004	51200	0	0	2	53248	0	53248	0	51200	1	0.7	53248	purple	turquoise	0	0	ml	2.7.3	bip	sub-06_ses-01_task-ml_proj-bip_2020-11-13-10-08-24.958751
148	6	1	3	149	stable	1	200	149	sv	turquoise	purple	purple	turquoise	right	left	0.7	0.30000000000000004	6	6	4.199999999999998	1.8000000000000005	0	1	0.30000000000000004	0.7	6	6	1.8000000000000005	4.199999999999998	invalid	0.3166272550006397	51200	0	0	2	53248	0	53248	0	53248	0	0.7	53248	purple	turquoise	0	6	ml	2.7.3	bip	sub-06_ses-01_task-ml_proj-bip_2020-11-13-10-08-24.958751
149	6	1	3	150	stable	1	200	150	sv	turquoise	purple	purple	turquoise	right	left	0.7	0.30000000000000004	2	2	1.4	0.6000000000000001	1	0	0.30000000000000004	0.7	2	2	0.6000000000000001	1.4	valid	0.41657878199839615	51200	0	0	2	53248	0	53248	0	53248	0	0.7	53248	purple	turquoise	0	0	ml	2.7.3	bip	sub-06_ses-01_task-ml_proj-bip_2020-11-13-10-08-24.958751
150	6	1	4	151	stable	1	200	151	sv	turquoise	purple	purple	turquoise	right	left	0.7	0.30000000000000004	2	4	1.4	1.2000000000000002	1	0	0.30000000000000004	0.7	4	2	1.2000000000000002	1.4	valid	0.4998834010002611	51200	0	0	2	53248	0	53248	0	51200	1	0.7	53248	purple	turquoise	0	0	ml	2.7.3	bip	sub-06_ses-01_task-ml_proj-bip_2020-11-13-10-08-24.958751
151	6	1	4	152	stable	1	200	152	sv	turquoise	purple	purple	turquoise	right	left	0.7	0.30000000000000004	10	2	7.0	0.6000000000000001	1	0	0.30000000000000004	0.7	2	10	0.6000000000000001	7.0	valid	0.4165855390001525	53248	0	1	1	53248	1	53248	1	53248	1	0.7	53248	purple	turquoise	1	10	ml	2.7.3	bip	sub-06_ses-01_task-ml_proj-bip_2020-11-13-10-08-24.958751
152	6	1	4	153	stable	1	200	153	sv	turquoise	purple	purple	turquoise	right	left	0.7	0.30000000000000004	2	10	1.4	3.0000000000000004	0	1	0.30000000000000004	0.7	10	2	3.0000000000000004	1.4	invalid	0.33326309499898343	51200	0	0	2	51200	1	53248	0	51200	1	0.7	53248	purple	turquoise	0	10	ml	2.7.3	bip	sub-06_ses-01_task-ml_proj-bip_2020-11-13-10-08-24.958751
153	6	1	4	154	stable	1	200	154	sv	turquoise	purple	purple	turquoise	right	left	0.7	0.30000000000000004	6	4	4.199999999999998	1.2000000000000002	1	0	0.30000000000000004	0.7	4	6	1.2000000000000002	4.199999999999998	valid	0.4165846399992006	53248	0	1	1	53248	1	53248	1	53248	1	0.7	53248	purple	turquoise	1	6	ml	2.7.3	bip	sub-06_ses-01_task-ml_proj-bip_2020-11-13-10-08-24.958751
154	6	1	4	155	stable	1	200	155	sv	purple	turquoise	purple	turquoise	left	right	0.7	0.30000000000000004	2	2	1.4	0.6000000000000001	1	0	0.7	0.30000000000000004	2	2	1.4	0.6000000000000001	valid	0.5332022889997461	51200	0	0	1	51200	1	51200	1	53248	0	0.7	51200	purple	turquoise	1	2	ml	2.7.3	bip	sub-06_ses-01_task-ml_proj-bip_2020-11-13-10-08-24.958751
155	6	1	4	156	stable	1	200	156	sv	turquoise	purple	purple	turquoise	right	left	0.7	0.30000000000000004	2	6	1.4	1.8000000000000005	0	1	0.30000000000000004	0.7	6	2	1.8000000000000005	1.4	invalid	0.3499441399999341	53248	0	1	1	51200	0	53248	1	51200	0	0.7	53248	purple	turquoise	0	0	ml	2.7.3	bip	sub-06_ses-01_task-ml_proj-bip_2020-11-13-10-08-24.958751
156	6	1	4	157	stable	1	200	157	sv	turquoise	purple	purple	turquoise	right	left	0.7	0.30000000000000004	2	2	1.4	0.6000000000000001	1	0	0.30000000000000004	0.7	2	2	0.6000000000000001	1.4	valid	0.4665598420015158	51200	0	0	2	53248	0	53248	0	53248	0	0.7	53248	purple	turquoise	0	0	ml	2.7.3	bip	sub-06_ses-01_task-ml_proj-bip_2020-11-13-10-08-24.958751
157	6	1	4	158	stable	1	200	158	sv	turquoise	purple	purple	turquoise	right	left	0.7	0.30000000000000004	2	6	1.4	1.8000000000000005	1	0	0.30000000000000004	0.7	6	2	1.8000000000000005	1.4	valid	0.5831906970015552	51200	0	0	2	51200	1	53248	0	51200	1	0.7	53248	purple	turquoise	0	0	ml	2.7.3	bip	sub-06_ses-01_task-ml_proj-bip_2020-11-13-10-08-24.958751
158	6	1	4	159	stable	1	200	159	sv	turquoise	purple	purple	turquoise	right	left	0.7	0.30000000000000004	6	6	4.199999999999998	1.8000000000000005	1	0	0.30000000000000004	0.7	6	6	1.8000000000000005	4.199999999999998	valid	0.3166117790005956	53248	0	1	1	53248	1	53248	1	53248	1	0.7	53248	purple	turquoise	0	6	ml	2.7.3	bip	sub-06_ses-01_task-ml_proj-bip_2020-11-13-10-08-24.958751
159	6	1	4	160	stable	1	200	160	sv	purple	turquoise	purple	turquoise	left	right	0.7	0.30000000000000004	6	6	4.199999999999998	1.8000000000000005	1	0	0.7	0.30000000000000004	6	6	4.199999999999998	1.8000000000000005	valid	0.3665875100014091	51200	0	0	1	51200	1	51200	1	53248	0	0.7	51200	purple	turquoise	1	6	ml	2.7.3	bip	sub-06_ses-01_task-ml_proj-bip_2020-11-13-10-08-24.958751
160	6	1	4	161	stable	1	200	161	sv	turquoise	purple	purple	turquoise	right	left	0.7	0.30000000000000004	4	2	2.8	0.6000000000000001	0	1	0.30000000000000004	0.7	2	4	0.6000000000000001	2.8	invalid	0.3499382570007583	53248	0	1	1	53248	1	53248	1	53248	1	0.7	53248	purple	turquoise	1	0	ml	2.7.3	bip	sub-06_ses-01_task-ml_proj-bip_2020-11-13-10-08-24.958751
161	6	1	4	162	stable	1	200	162	sv	purple	turquoise	purple	turquoise	left	right	0.7	0.30000000000000004	2	6	1.4	1.8000000000000005	1	0	0.7	0.30000000000000004	2	6	1.4	1.8000000000000005	valid	0.43323591999978817	51200	0	0	1	53248	0	51200	1	53248	0	0.7	51200	purple	turquoise	0	2	ml	2.7.3	bip	sub-06_ses-01_task-ml_proj-bip_2020-11-13-10-08-24.958751
162	6	1	4	163	stable	1	200	163	sv	purple	turquoise	purple	turquoise	left	right	0.7	0.30000000000000004	2	4	1.4	1.2000000000000002	0	1	0.7	0.30000000000000004	2	4	1.4	1.2000000000000002	invalid	0.4498962859997846	51200	0	0	1	51200	1	51200	1	53248	0	0.7	51200	purple	turquoise	0	0	ml	2.7.3	bip	sub-06_ses-01_task-ml_proj-bip_2020-11-13-10-08-24.958751
163	6	1	4	164	stable	1	200	164	sv	turquoise	purple	purple	turquoise	right	left	0.7	0.30000000000000004	2	6	1.4	1.8000000000000005	1	0	0.30000000000000004	0.7	6	2	1.8000000000000005	1.4	valid	0.4832300430007308	53248	0	1	1	51200	0	53248	1	51200	0	0.7	53248	purple	turquoise	0	2	ml	2.7.3	bip	sub-06_ses-01_task-ml_proj-bip_2020-11-13-10-08-24.958751
164	6	1	4	165	stable	1	200	165	sv	purple	turquoise	purple	turquoise	left	right	0.7	0.30000000000000004	4	6	2.8	1.8000000000000005	0	1	0.7	0.30000000000000004	4	6	2.8	1.8000000000000005	invalid	0.4165742999994109	51200	0	0	1	51200	1	51200	1	53248	0	0.7	51200	purple	turquoise	0	0	ml	2.7.3	bip	sub-06_ses-01_task-ml_proj-bip_2020-11-13-10-08-24.958751
165	6	1	4	166	stable	1	200	166	sv	purple	turquoise	purple	turquoise	left	right	0.7	0.30000000000000004	4	2	2.8	0.6000000000000001	1	0	0.7	0.30000000000000004	4	2	2.8	0.6000000000000001	valid	0.4998812900012126	51200	0	0	1	51200	1	51200	1	51200	1	0.7	51200	purple	turquoise	1	4	ml	2.7.3	bip	sub-06_ses-01_task-ml_proj-bip_2020-11-13-10-08-24.958751
166	6	1	4	167	stable	1	200	167	sv	purple	turquoise	purple	turquoise	left	right	0.7	0.30000000000000004	4	6	2.8	1.8000000000000005	1	0	0.7	0.30000000000000004	4	6	2.8	1.8000000000000005	valid	0.483238512000753	53248	0	1	2	51200	0	51200	0	53248	1	0.7	51200	purple	turquoise	0	0	ml	2.7.3	bip	sub-06_ses-01_task-ml_proj-bip_2020-11-13-10-08-24.958751
167	6	1	4	168	stable	1	200	168	sv	turquoise	purple	purple	turquoise	right	left	0.7	0.30000000000000004	2	2	1.4	0.6000000000000001	1	0	0.30000000000000004	0.7	2	2	0.6000000000000001	1.4	valid	0.4999032810010249	53248	0	1	1	53248	1	53248	1	53248	1	0.7	53248	purple	turquoise	0	2	ml	2.7.3	bip	sub-06_ses-01_task-ml_proj-bip_2020-11-13-10-08-24.958751
168	6	1	4	169	stable	1	200	169	sv	purple	turquoise	purple	turquoise	left	right	0.7	0.30000000000000004	10	2	7.0	0.6000000000000001	1	0	0.7	0.30000000000000004	10	2	7.0	0.6000000000000001	valid	0.5831907699994189	51200	0	0	1	51200	1	51200	1	51200	1	0.7	51200	purple	turquoise	1	10	ml	2.7.3	bip	sub-06_ses-01_task-ml_proj-bip_2020-11-13-10-08-24.958751
169	6	1	4	170	stable	1	200	170	sv	purple	turquoise	purple	turquoise	left	right	0.7	0.30000000000000004	2	10	1.4	3.0000000000000004	1	0	0.7	0.30000000000000004	2	10	1.4	3.0000000000000004	valid	0.5332248360009544	53248	0	1	2	53248	1	51200	0	53248	1	0.7	51200	purple	turquoise	0	0	ml	2.7.3	bip	sub-06_ses-01_task-ml_proj-bip_2020-11-13-10-08-24.958751
170	6	1	4	171	stable	1	200	171	sv	turquoise	purple	purple	turquoise	right	left	0.7	0.30000000000000004	6	2	4.199999999999998	0.6000000000000001	1	0	0.30000000000000004	0.7	2	6	0.6000000000000001	4.199999999999998	valid	0.7664844939990871	53248	0	1	1	53248	1	53248	1	53248	1	0.7	53248	purple	turquoise	1	6	ml	2.7.3	bip	sub-06_ses-01_task-ml_proj-bip_2020-11-13-10-08-24.958751
171	6	1	4	172	stable	1	200	172	sv	turquoise	purple	purple	turquoise	right	left	0.7	0.30000000000000004	4	2	2.8	0.6000000000000001	0	1	0.30000000000000004	0.7	2	4	0.6000000000000001	2.8	invalid	0.4165878969997721	53248	0	1	1	53248	1	53248	1	53248	1	0.7	53248	purple	turquoise	1	0	ml	2.7.3	bip	sub-06_ses-01_task-ml_proj-bip_2020-11-13-10-08-24.958751
172	6	1	4	173	stable	1	200	173	sv	purple	turquoise	purple	turquoise	left	right	0.7	0.30000000000000004	2	4	1.4	1.2000000000000002	1	0	0.7	0.30000000000000004	2	4	1.4	1.2000000000000002	valid	0.3999163349999435	51200	0	0	1	51200	1	51200	1	53248	0	0.7	51200	purple	turquoise	0	2	ml	2.7.3	bip	sub-06_ses-01_task-ml_proj-bip_2020-11-13-10-08-24.958751
173	6	1	4	174	stable	1	200	174	sv	turquoise	purple	purple	turquoise	right	left	0.7	0.30000000000000004	4	6	2.8	1.8000000000000005	1	0	0.30000000000000004	0.7	6	4	1.8000000000000005	2.8	valid	0.7664842199992563	53248	0	1	1	53248	1	53248	1	51200	0	0.7	53248	purple	turquoise	0	4	ml	2.7.3	bip	sub-06_ses-01_task-ml_proj-bip_2020-11-13-10-08-24.958751
174	6	1	4	175	stable	1	200	175	sv	purple	turquoise	purple	turquoise	left	right	0.7	0.30000000000000004	10	2	7.0	0.6000000000000001	1	0	0.7	0.30000000000000004	10	2	7.0	0.6000000000000001	valid	0.3499260980006511	51200	0	0	1	51200	1	51200	1	51200	1	0.7	51200	purple	turquoise	1	10	ml	2.7.3	bip	sub-06_ses-01_task-ml_proj-bip_2020-11-13-10-08-24.958751
175	6	1	4	176	stable	1	200	176	sv	purple	turquoise	purple	turquoise	left	right	0.7	0.30000000000000004	2	6	1.4	1.8000000000000005	1	0	0.7	0.30000000000000004	2	6	1.4	1.8000000000000005	valid	0.4499038710000605	51200	0	0	1	53248	0	51200	1	53248	0	0.7	51200	purple	turquoise	0	2	ml	2.7.3	bip	sub-06_ses-01_task-ml_proj-bip_2020-11-13-10-08-24.958751
176	6	1	4	177	stable	1	200	177	sv	purple	turquoise	purple	turquoise	left	right	0.7	0.30000000000000004	4	6	2.8	1.8000000000000005	1	0	0.7	0.30000000000000004	4	6	2.8	1.8000000000000005	valid	0.3665867609997804	51200	0	0	1	51200	1	51200	1	53248	0	0.7	51200	purple	turquoise	0	4	ml	2.7.3	bip	sub-06_ses-01_task-ml_proj-bip_2020-11-13-10-08-24.958751
177	6	1	4	178	stable	1	200	178	sv	turquoise	purple	purple	turquoise	right	left	0.7	0.30000000000000004	6	4	4.199999999999998	1.2000000000000002	1	0	0.30000000000000004	0.7	4	6	1.2000000000000002	4.199999999999998	valid	0.4165824119991157	53248	0	1	1	53248	1	53248	1	53248	1	0.7	53248	purple	turquoise	1	6	ml	2.7.3	bip	sub-06_ses-01_task-ml_proj-bip_2020-11-13-10-08-24.958751
178	6	1	4	179	stable	1	200	179	sv	purple	turquoise	purple	turquoise	left	right	0.7	0.30000000000000004	2	10	1.4	3.0000000000000004	1	0	0.7	0.30000000000000004	2	10	1.4	3.0000000000000004	valid	0.48322036699937604	51200	0	0	1	53248	0	51200	1	53248	0	0.7	51200	purple	turquoise	0	2	ml	2.7.3	bip	sub-06_ses-01_task-ml_proj-bip_2020-11-13-10-08-24.958751
179	6	1	4	180	stable	1	200	180	sv	turquoise	purple	purple	turquoise	right	left	0.7	0.30000000000000004	6	6	4.199999999999998	1.8000000000000005	1	0	0.30000000000000004	0.7	6	6	1.8000000000000005	4.199999999999998	valid	0.3832592050002859	53248	0	1	1	53248	1	53248	1	53248	1	0.7	53248	purple	turquoise	0	6	ml	2.7.3	bip	sub-06_ses-01_task-ml_proj-bip_2020-11-13-10-08-24.958751
180	6	1	4	181	stable	1	200	181	sv	purple	turquoise	purple	turquoise	left	right	0.7	0.30000000000000004	6	2	4.199999999999998	0.6000000000000001	1	0	0.7	0.30000000000000004	6	2	4.199999999999998	0.6000000000000001	valid	0.9164306359998592	51200	0	0	1	51200	1	51200	1	51200	1	0.7	51200	purple	turquoise	1	6	ml	2.7.3	bip	sub-06_ses-01_task-ml_proj-bip_2020-11-13-10-08-24.958751
181	6	1	4	182	stable	1	200	182	sv	turquoise	purple	purple	turquoise	right	left	0.7	0.30000000000000004	2	2	1.4	0.6000000000000001	0	1	0.30000000000000004	0.7	2	2	0.6000000000000001	1.4	invalid	0.549880103999385	53248	0	1	1	53248	1	53248	1	53248	1	0.7	53248	purple	turquoise	0	0	ml	2.7.3	bip	sub-06_ses-01_task-ml_proj-bip_2020-11-13-10-08-24.958751
182	6	1	4	183	stable	1	200	183	sv	purple	turquoise	purple	turquoise	left	right	0.7	0.30000000000000004	2	2	1.4	0.6000000000000001	1	0	0.7	0.30000000000000004	2	2	1.4	0.6000000000000001	valid	0.5332071670000005	51200	0	0	1	51200	1	51200	1	53248	0	0.7	51200	purple	turquoise	1	2	ml	2.7.3	bip	sub-06_ses-01_task-ml_proj-bip_2020-11-13-10-08-24.958751
183	6	1	4	184	stable	1	200	184	sv	turquoise	purple	purple	turquoise	right	left	0.7	0.30000000000000004	2	6	1.4	1.8000000000000005	1	0	0.30000000000000004	0.7	6	2	1.8000000000000005	1.4	valid	0.4332465940005932	53248	0	1	1	51200	0	53248	1	51200	0	0.7	53248	purple	turquoise	0	2	ml	2.7.3	bip	sub-06_ses-01_task-ml_proj-bip_2020-11-13-10-08-24.958751
184	6	1	4	185	stable	1	200	185	sv	purple	turquoise	purple	turquoise	left	right	0.7	0.30000000000000004	4	6	2.8	1.8000000000000005	0	1	0.7	0.30000000000000004	4	6	2.8	1.8000000000000005	invalid	0.5165504880005756	51200	0	0	1	51200	1	51200	1	53248	0	0.7	51200	purple	turquoise	0	0	ml	2.7.3	bip	sub-06_ses-01_task-ml_proj-bip_2020-11-13-10-08-24.958751
185	6	1	4	186	stable	1	200	186	sv	purple	turquoise	purple	turquoise	left	right	0.7	0.30000000000000004	2	10	1.4	3.0000000000000004	0	1	0.7	0.30000000000000004	2	10	1.4	3.0000000000000004	invalid	0.5498723239998071	51200	0	0	1	53248	0	51200	1	53248	0	0.7	51200	purple	turquoise	0	0	ml	2.7.3	bip	sub-06_ses-01_task-ml_proj-bip_2020-11-13-10-08-24.958751
186	6	1	4	187	stable	1	200	187	sv	purple	turquoise	purple	turquoise	left	right	0.7	0.30000000000000004	2	4	1.4	1.2000000000000002	0	1	0.7	0.30000000000000004	2	4	1.4	1.2000000000000002	invalid	0.3332846139983303	53248	0	1	2	51200	0	51200	0	53248	1	0.7	51200	purple	turquoise	0	4	ml	2.7.3	bip	sub-06_ses-01_task-ml_proj-bip_2020-11-13-10-08-24.958751
187	6	1	4	188	stable	1	200	188	sv	purple	turquoise	purple	turquoise	left	right	0.7	0.30000000000000004	4	2	2.8	0.6000000000000001	1	0	0.7	0.30000000000000004	4	2	2.8	0.6000000000000001	valid	0.3332750640001905	53248	0	1	2	51200	0	51200	0	51200	0	0.7	51200	purple	turquoise	1	0	ml	2.7.3	bip	sub-06_ses-01_task-ml_proj-bip_2020-11-13-10-08-24.958751
188	6	1	4	189	stable	1	200	189	sv	turquoise	purple	purple	turquoise	right	left	0.7	0.30000000000000004	10	2	7.0	0.6000000000000001	1	0	0.30000000000000004	0.7	2	10	0.6000000000000001	7.0	valid	0.4165367749992584	51200	0	0	2	53248	0	53248	0	53248	0	0.7	53248	purple	turquoise	1	0	ml	2.7.3	bip	sub-06_ses-01_task-ml_proj-bip_2020-11-13-10-08-24.958751
189	6	1	4	190	stable	1	200	190	sv	turquoise	purple	purple	turquoise	right	left	0.7	0.30000000000000004	6	4	4.199999999999998	1.2000000000000002	1	0	0.30000000000000004	0.7	4	6	1.2000000000000002	4.199999999999998	valid	0.4165796329998557	51200	0	0	2	53248	0	53248	0	53248	0	0.7	53248	purple	turquoise	1	0	ml	2.7.3	bip	sub-06_ses-01_task-ml_proj-bip_2020-11-13-10-08-24.958751
190	6	1	4	191	stable	1	200	191	sv	purple	turquoise	purple	turquoise	left	right	0.7	0.30000000000000004	2	6	1.4	1.8000000000000005	1	0	0.7	0.30000000000000004	2	6	1.4	1.8000000000000005	valid	0.5498666749990662	51200	0	0	1	53248	0	51200	1	53248	0	0.7	51200	purple	turquoise	0	2	ml	2.7.3	bip	sub-06_ses-01_task-ml_proj-bip_2020-11-13-10-08-24.958751
191	6	1	4	192	stable	1	200	192	sv	turquoise	purple	purple	turquoise	right	left	0.7	0.30000000000000004	2	6	1.4	1.8000000000000005	1	0	0.30000000000000004	0.7	6	2	1.8000000000000005	1.4	valid	0.5332078039991757	51200	0	0	2	51200	1	53248	0	51200	1	0.7	53248	purple	turquoise	0	0	ml	2.7.3	bip	sub-06_ses-01_task-ml_proj-bip_2020-11-13-10-08-24.958751
192	6	1	4	193	stable	1	200	193	sv	turquoise	purple	purple	turquoise	right	left	0.7	0.30000000000000004	6	4	4.199999999999998	1.2000000000000002	1	0	0.30000000000000004	0.7	4	6	1.2000000000000002	4.199999999999998	valid	0.4332436739987315	53248	0	1	1	53248	1	53248	1	53248	1	0.7	53248	purple	turquoise	1	6	ml	2.7.3	bip	sub-06_ses-01_task-ml_proj-bip_2020-11-13-10-08-24.958751
193	6	1	4	194	stable	1	200	194	sv	purple	turquoise	purple	turquoise	left	right	0.7	0.30000000000000004	6	6	4.199999999999998	1.8000000000000005	1	0	0.7	0.30000000000000004	6	6	4.199999999999998	1.8000000000000005	valid	0.4499027639994893	51200	0	0	1	51200	1	51200	1	53248	0	0.7	51200	purple	turquoise	1	6	ml	2.7.3	bip	sub-06_ses-01_task-ml_proj-bip_2020-11-13-10-08-24.958751
194	6	1	4	195	stable	1	200	195	sv	turquoise	purple	purple	turquoise	right	left	0.7	0.30000000000000004	4	2	2.8	0.6000000000000001	1	0	0.30000000000000004	0.7	2	4	0.6000000000000001	2.8	valid	0.3665960660000565	53248	0	1	1	53248	1	53248	1	53248	1	0.7	53248	purple	turquoise	1	4	ml	2.7.3	bip	sub-06_ses-01_task-ml_proj-bip_2020-11-13-10-08-24.958751
195	6	1	4	196	stable	1	200	196	sv	purple	turquoise	purple	turquoise	left	right	0.7	0.30000000000000004	6	6	4.199999999999998	1.8000000000000005	1	0	0.7	0.30000000000000004	6	6	4.199999999999998	1.8000000000000005	valid	0.33326368699999875	51200	0	0	1	51200	1	51200	1	53248	0	0.7	51200	purple	turquoise	1	6	ml	2.7.3	bip	sub-06_ses-01_task-ml_proj-bip_2020-11-13-10-08-24.958751
196	6	1	4	197	stable	1	200	197	sv	purple	turquoise	purple	turquoise	left	right	0.7	0.30000000000000004	4	6	2.8	1.8000000000000005	0	1	0.7	0.30000000000000004	4	6	2.8	1.8000000000000005	invalid	0.3832536380014062	51200	0	0	1	51200	1	51200	1	53248	0	0.7	51200	purple	turquoise	0	0	ml	2.7.3	bip	sub-06_ses-01_task-ml_proj-bip_2020-11-13-10-08-24.958751
197	6	1	4	198	stable	1	200	198	sv	turquoise	purple	purple	turquoise	right	left	0.7	0.30000000000000004	6	4	4.199999999999998	1.2000000000000002	1	0	0.30000000000000004	0.7	4	6	1.2000000000000002	4.199999999999998	valid	0.3999145359994145	51200	0	0	2	53248	0	53248	0	53248	0	0.7	53248	purple	turquoise	1	0	ml	2.7.3	bip	sub-06_ses-01_task-ml_proj-bip_2020-11-13-10-08-24.958751
198	6	1	4	199	stable	1	200	199	sv	turquoise	purple	purple	turquoise	right	left	0.7	0.30000000000000004	6	2	4.199999999999998	0.6000000000000001	0	1	0.30000000000000004	0.7	2	6	0.6000000000000001	4.199999999999998	invalid	0.4165840360001312	53248	0	1	1	53248	1	53248	1	53248	1	0.7	53248	purple	turquoise	1	0	ml	2.7.3	bip	sub-06_ses-01_task-ml_proj-bip_2020-11-13-10-08-24.958751
199	6	1	4	200	stable	1	200	200	sv	turquoise	purple	purple	turquoise	right	left	0.7	0.30000000000000004	2	4	1.4	1.2000000000000002	1	0	0.30000000000000004	0.7	4	2	1.2000000000000002	1.4	valid	0.4999006010002631	53248	0	1	1	53248	1	53248	1	51200	0	0.7	53248	purple	turquoise	0	2	ml	2.7.3	bip	sub-06_ses-01_task-ml_proj-bip_2020-11-13-10-08-24.958751
200	6	1	5	201	volatile	2	40	1	sv	turquoise	purple	purple	turquoise	right	left	0.30000000000000004	0.7	6	6	1.8000000000000005	4.199999999999998	1	0	0.7	0.30000000000000004	6	6	4.199999999999998	1.8000000000000005	invalid	0.5665414199993393	53248	0	1	1	51200	0	51200	0	53248	1	0.7	51200	turquoise	purple	1	6	ml	2.7.3	bip	sub-06_ses-01_task-ml_proj-bip_2020-11-13-10-08-24.958751
201	6	1	5	202	volatile	2	40	2	sv	purple	turquoise	purple	turquoise	left	right	0.30000000000000004	0.7	2	6	0.6000000000000001	4.199999999999998	0	1	0.30000000000000004	0.7	2	6	0.6000000000000001	4.199999999999998	valid	0.3832512620010675	51200	0	0	1	53248	0	53248	0	53248	0	0.7	53248	turquoise	purple	1	0	ml	2.7.3	bip	sub-06_ses-01_task-ml_proj-bip_2020-11-13-10-08-24.958751
202	6	1	5	203	volatile	2	40	3	sv	purple	turquoise	purple	turquoise	left	right	0.30000000000000004	0.7	4	2	1.2000000000000002	1.4	0	1	0.30000000000000004	0.7	4	2	1.2000000000000002	1.4	valid	0.3499276789989381	51200	0	0	1	53248	0	53248	0	51200	1	0.7	53248	turquoise	purple	0	0	ml	2.7.3	bip	sub-06_ses-01_task-ml_proj-bip_2020-11-13-10-08-24.958751
203	6	1	5	204	volatile	2	40	4	sv	purple	turquoise	purple	turquoise	left	right	0.30000000000000004	0.7	4	2	1.2000000000000002	1.4	0	1	0.30000000000000004	0.7	4	2	1.2000000000000002	1.4	valid	0.5665377089990216	51200	0	0	1	53248	0	53248	0	51200	1	0.7	53248	turquoise	purple	0	0	ml	2.7.3	bip	sub-06_ses-01_task-ml_proj-bip_2020-11-13-10-08-24.958751
204	6	1	5	205	volatile	2	40	5	sv	purple	turquoise	purple	turquoise	left	right	0.30000000000000004	0.7	2	6	0.6000000000000001	4.199999999999998	0	1	0.30000000000000004	0.7	2	6	0.6000000000000001	4.199999999999998	valid	0.2999516020008741	53248	0	1	2	53248	1	53248	1	53248	1	0.7	53248	turquoise	purple	1	6	ml	2.7.3	bip	sub-06_ses-01_task-ml_proj-bip_2020-11-13-10-08-24.958751
205	6	1	5	206	volatile	2	40	6	sv	purple	turquoise	purple	turquoise	left	right	0.30000000000000004	0.7	10	2	3.0000000000000004	1.4	0	1	0.30000000000000004	0.7	10	2	3.0000000000000004	1.4	valid	0.7331482980007422	51200	0	0	1	51200	1	53248	0	51200	1	0.7	53248	turquoise	purple	0	0	ml	2.7.3	bip	sub-06_ses-01_task-ml_proj-bip_2020-11-13-10-08-24.958751
206	6	1	5	207	volatile	2	40	7	sv	turquoise	purple	purple	turquoise	right	left	0.30000000000000004	0.7	4	6	1.2000000000000002	4.199999999999998	0	1	0.7	0.30000000000000004	6	4	4.199999999999998	1.2000000000000002	valid	0.6165161739991163	51200	0	0	2	51200	1	51200	1	51200	1	0.7	51200	turquoise	purple	1	6	ml	2.7.3	bip	sub-06_ses-01_task-ml_proj-bip_2020-11-13-10-08-24.958751
207	6	1	5	208	volatile	2	40	8	sv	turquoise	purple	purple	turquoise	right	left	0.30000000000000004	0.7	4	2	1.2000000000000002	1.4	0	1	0.7	0.30000000000000004	2	4	1.4	1.2000000000000002	valid	0.48322180499963	51200	0	0	2	51200	1	51200	1	53248	0	0.7	51200	turquoise	purple	0	2	ml	2.7.3	bip	sub-06_ses-01_task-ml_proj-bip_2020-11-13-10-08-24.958751
208	6	1	5	209	volatile	2	40	9	sv	turquoise	purple	purple	turquoise	right	left	0.30000000000000004	0.7	2	10	0.6000000000000001	7.0	1	0	0.7	0.30000000000000004	10	2	7.0	0.6000000000000001	invalid	0.41657355399911467	51200	0	0	2	51200	1	51200	1	51200	1	0.7	51200	turquoise	purple	1	0	ml	2.7.3	bip	sub-06_ses-01_task-ml_proj-bip_2020-11-13-10-08-24.958751
209	6	1	5	210	volatile	2	40	10	sv	turquoise	purple	purple	turquoise	right	left	0.30000000000000004	0.7	4	2	1.2000000000000002	1.4	0	1	0.7	0.30000000000000004	2	4	1.4	1.2000000000000002	valid	0.41657481099900906	51200	0	0	2	51200	1	51200	1	53248	0	0.7	51200	turquoise	purple	0	2	ml	2.7.3	bip	sub-06_ses-01_task-ml_proj-bip_2020-11-13-10-08-24.958751
210	6	1	5	211	volatile	2	40	11	sv	purple	turquoise	purple	turquoise	left	right	0.30000000000000004	0.7	6	2	1.8000000000000005	1.4	1	0	0.30000000000000004	0.7	6	2	1.8000000000000005	1.4	invalid	0.4832301420010481	53248	0	1	2	51200	0	53248	1	51200	0	0.7	53248	turquoise	purple	0	0	ml	2.7.3	bip	sub-06_ses-01_task-ml_proj-bip_2020-11-13-10-08-24.958751
211	6	1	5	212	volatile	2	40	12	sv	purple	turquoise	purple	turquoise	left	right	0.30000000000000004	0.7	6	2	1.8000000000000005	1.4	1	0	0.30000000000000004	0.7	6	2	1.8000000000000005	1.4	invalid	0.7331452429989441	51200	0	0	1	51200	1	53248	0	51200	1	0.7	53248	turquoise	purple	0	6	ml	2.7.3	bip	sub-06_ses-01_task-ml_proj-bip_2020-11-13-10-08-24.958751
212	6	1	5	213	volatile	2	40	13	sv	turquoise	purple	purple	turquoise	right	left	0.30000000000000004	0.7	2	6	0.6000000000000001	4.199999999999998	0	1	0.7	0.30000000000000004	6	2	4.199999999999998	0.6000000000000001	valid	0.53320964500017	51200	0	0	2	51200	1	51200	1	51200	1	0.7	51200	turquoise	purple	1	6	ml	2.7.3	bip	sub-06_ses-01_task-ml_proj-bip_2020-11-13-10-08-24.958751
213	6	1	5	214	volatile	2	40	14	sv	purple	turquoise	purple	turquoise	left	right	0.30000000000000004	0.7	6	4	1.8000000000000005	2.8	0	1	0.30000000000000004	0.7	6	4	1.8000000000000005	2.8	valid	0.7331585690008069	53248	0	1	2	53248	1	53248	1	51200	0	0.7	53248	turquoise	purple	0	4	ml	2.7.3	bip	sub-06_ses-01_task-ml_proj-bip_2020-11-13-10-08-24.958751
214	6	1	5	215	volatile	2	40	15	sv	purple	turquoise	purple	turquoise	left	right	0.30000000000000004	0.7	4	6	1.2000000000000002	4.199999999999998	0	1	0.30000000000000004	0.7	4	6	1.2000000000000002	4.199999999999998	valid	0.4832386530015356	53248	0	1	2	53248	1	53248	1	53248	1	0.7	53248	turquoise	purple	1	6	ml	2.7.3	bip	sub-06_ses-01_task-ml_proj-bip_2020-11-13-10-08-24.958751
215	6	1	5	216	volatile	2	40	16	sv	purple	turquoise	purple	turquoise	left	right	0.30000000000000004	0.7	6	6	1.8000000000000005	4.199999999999998	0	1	0.30000000000000004	0.7	6	6	1.8000000000000005	4.199999999999998	valid	0.3832576410004549	53248	0	1	2	53248	1	53248	1	53248	1	0.7	53248	turquoise	purple	0	6	ml	2.7.3	bip	sub-06_ses-01_task-ml_proj-bip_2020-11-13-10-08-24.958751
216	6	1	5	217	volatile	2	40	17	sv	turquoise	purple	purple	turquoise	right	left	0.30000000000000004	0.7	10	2	3.0000000000000004	1.4	0	1	0.7	0.30000000000000004	2	10	1.4	3.0000000000000004	valid	0.4832207859999471	51200	0	0	2	53248	0	51200	1	53248	0	0.7	51200	turquoise	purple	0	2	ml	2.7.3	bip	sub-06_ses-01_task-ml_proj-bip_2020-11-13-10-08-24.958751
217	6	1	5	218	volatile	2	40	18	sv	turquoise	purple	purple	turquoise	right	left	0.30000000000000004	0.7	6	6	1.8000000000000005	4.199999999999998	0	1	0.7	0.30000000000000004	6	6	4.199999999999998	1.8000000000000005	valid	0.6331765009999799	51200	0	0	2	51200	1	51200	1	53248	0	0.7	51200	turquoise	purple	1	6	ml	2.7.3	bip	sub-06_ses-01_task-ml_proj-bip_2020-11-13-10-08-24.958751
218	6	1	5	219	volatile	2	40	19	sv	purple	turquoise	purple	turquoise	left	right	0.30000000000000004	0.7	2	2	0.6000000000000001	1.4	0	1	0.30000000000000004	0.7	2	2	0.6000000000000001	1.4	valid	0.4832333089998429	53248	0	1	2	53248	1	53248	1	53248	1	0.7	53248	turquoise	purple	0	2	ml	2.7.3	bip	sub-06_ses-01_task-ml_proj-bip_2020-11-13-10-08-24.958751
219	6	1	5	220	volatile	2	40	20	sv	turquoise	purple	purple	turquoise	right	left	0.30000000000000004	0.7	6	2	1.8000000000000005	1.4	0	1	0.7	0.30000000000000004	2	6	1.4	1.8000000000000005	valid	0.983081246000438	51200	0	0	2	53248	0	51200	1	53248	0	0.7	51200	turquoise	purple	0	2	ml	2.7.3	bip	sub-06_ses-01_task-ml_proj-bip_2020-11-13-10-08-24.958751
220	6	1	5	221	volatile	2	40	21	sv	turquoise	purple	purple	turquoise	right	left	0.30000000000000004	0.7	10	2	3.0000000000000004	1.4	1	0	0.7	0.30000000000000004	2	10	1.4	3.0000000000000004	invalid	0.4332333329984976	51200	0	0	2	53248	0	51200	1	53248	0	0.7	51200	turquoise	purple	0	0	ml	2.7.3	bip	sub-06_ses-01_task-ml_proj-bip_2020-11-13-10-08-24.958751
221	6	1	5	222	volatile	2	40	22	sv	purple	turquoise	purple	turquoise	left	right	0.30000000000000004	0.7	4	2	1.2000000000000002	1.4	0	1	0.30000000000000004	0.7	4	2	1.2000000000000002	1.4	valid	0.5332096809997893	51200	0	0	1	53248	0	53248	0	51200	1	0.7	53248	turquoise	purple	0	0	ml	2.7.3	bip	sub-06_ses-01_task-ml_proj-bip_2020-11-13-10-08-24.958751
222	6	1	5	223	volatile	2	40	23	sv	turquoise	purple	purple	turquoise	right	left	0.30000000000000004	0.7	6	4	1.8000000000000005	2.8	0	1	0.7	0.30000000000000004	4	6	2.8	1.8000000000000005	valid	0.36658863800039393	51200	0	0	2	51200	1	51200	1	53248	0	0.7	51200	turquoise	purple	0	4	ml	2.7.3	bip	sub-06_ses-01_task-ml_proj-bip_2020-11-13-10-08-24.958751
223	6	1	5	224	volatile	2	40	24	sv	purple	turquoise	purple	turquoise	left	right	0.30000000000000004	0.7	2	4	0.6000000000000001	2.8	0	1	0.30000000000000004	0.7	2	4	0.6000000000000001	2.8	valid	0.38326036299986294	53248	0	1	2	53248	1	53248	1	53248	1	0.7	53248	turquoise	purple	1	4	ml	2.7.3	bip	sub-06_ses-01_task-ml_proj-bip_2020-11-13-10-08-24.958751
224	6	1	5	225	volatile	2	40	25	sv	purple	turquoise	purple	turquoise	left	right	0.30000000000000004	0.7	2	6	0.6000000000000001	4.199999999999998	0	1	0.30000000000000004	0.7	2	6	0.6000000000000001	4.199999999999998	valid	0.4332453429997257	53248	0	1	2	53248	1	53248	1	53248	1	0.7	53248	turquoise	purple	1	6	ml	2.7.3	bip	sub-06_ses-01_task-ml_proj-bip_2020-11-13-10-08-24.958751
225	6	1	5	226	volatile	2	40	26	sv	purple	turquoise	purple	turquoise	left	right	0.30000000000000004	0.7	2	10	0.6000000000000001	7.0	0	1	0.30000000000000004	0.7	2	10	0.6000000000000001	7.0	valid	0.3665990440003952	53248	0	1	2	53248	1	53248	1	53248	1	0.7	53248	turquoise	purple	1	10	ml	2.7.3	bip	sub-06_ses-01_task-ml_proj-bip_2020-11-13-10-08-24.958751
226	6	1	5	227	volatile	2	40	27	sv	turquoise	purple	purple	turquoise	right	left	0.30000000000000004	0.7	2	10	0.6000000000000001	7.0	0	1	0.7	0.30000000000000004	10	2	7.0	0.6000000000000001	valid	0.4832158509998408	51200	0	0	2	51200	1	51200	1	51200	1	0.7	51200	turquoise	purple	1	10	ml	2.7.3	bip	sub-06_ses-01_task-ml_proj-bip_2020-11-13-10-08-24.958751
227	6	1	5	228	volatile	2	40	28	sv	purple	turquoise	purple	turquoise	left	right	0.30000000000000004	0.7	6	6	1.8000000000000005	4.199999999999998	1	0	0.30000000000000004	0.7	6	6	1.8000000000000005	4.199999999999998	invalid	0.3832589789999474	53248	0	1	2	53248	1	53248	1	53248	1	0.7	53248	turquoise	purple	0	0	ml	2.7.3	bip	sub-06_ses-01_task-ml_proj-bip_2020-11-13-10-08-24.958751
228	6	1	5	229	volatile	2	40	29	sv	turquoise	purple	purple	turquoise	right	left	0.30000000000000004	0.7	2	2	0.6000000000000001	1.4	0	1	0.7	0.30000000000000004	2	2	1.4	0.6000000000000001	valid	0.4499013960012235	51200	0	0	2	51200	1	51200	1	53248	0	0.7	51200	turquoise	purple	1	2	ml	2.7.3	bip	sub-06_ses-01_task-ml_proj-bip_2020-11-13-10-08-24.958751
229	6	1	5	230	volatile	2	40	30	sv	turquoise	purple	purple	turquoise	right	left	0.30000000000000004	0.7	2	4	0.6000000000000001	2.8	0	1	0.7	0.30000000000000004	4	2	2.8	0.6000000000000001	valid	0.466558113001156	51200	0	0	2	51200	1	51200	1	51200	1	0.7	51200	turquoise	purple	1	4	ml	2.7.3	bip	sub-06_ses-01_task-ml_proj-bip_2020-11-13-10-08-24.958751
230	6	1	5	231	volatile	2	40	31	sv	purple	turquoise	purple	turquoise	left	right	0.30000000000000004	0.7	10	2	3.0000000000000004	1.4	1	0	0.30000000000000004	0.7	10	2	3.0000000000000004	1.4	invalid	0.3999400610009616	53248	0	1	2	51200	0	53248	1	51200	0	0.7	53248	turquoise	purple	0	0	ml	2.7.3	bip	sub-06_ses-01_task-ml_proj-bip_2020-11-13-10-08-24.958751
231	6	1	5	232	volatile	2	40	32	sv	turquoise	purple	purple	turquoise	right	left	0.30000000000000004	0.7	4	6	1.2000000000000002	4.199999999999998	0	1	0.7	0.30000000000000004	6	4	4.199999999999998	1.2000000000000002	valid	0.4998863180007902	51200	0	0	2	51200	1	51200	1	51200	1	0.7	51200	turquoise	purple	1	6	ml	2.7.3	bip	sub-06_ses-01_task-ml_proj-bip_2020-11-13-10-08-24.958751
232	6	1	5	233	volatile	2	40	33	sv	turquoise	purple	purple	turquoise	right	left	0.30000000000000004	0.7	6	4	1.8000000000000005	2.8	1	0	0.7	0.30000000000000004	4	6	2.8	1.8000000000000005	invalid	0.399909536999985	51200	0	0	2	51200	1	51200	1	53248	0	0.7	51200	turquoise	purple	0	0	ml	2.7.3	bip	sub-06_ses-01_task-ml_proj-bip_2020-11-13-10-08-24.958751
233	6	1	5	234	volatile	2	40	34	sv	turquoise	purple	purple	turquoise	right	left	0.30000000000000004	0.7	2	6	0.6000000000000001	4.199999999999998	1	0	0.7	0.30000000000000004	6	2	4.199999999999998	0.6000000000000001	invalid	0.3832325879993732	51200	0	0	2	51200	1	51200	1	51200	1	0.7	51200	turquoise	purple	1	0	ml	2.7.3	bip	sub-06_ses-01_task-ml_proj-bip_2020-11-13-10-08-24.958751
234	6	1	5	235	volatile	2	40	35	sv	turquoise	purple	purple	turquoise	right	left	0.30000000000000004	0.7	2	2	0.6000000000000001	1.4	0	1	0.7	0.30000000000000004	2	2	1.4	0.6000000000000001	valid	0.3332628419993853	51200	0	0	2	51200	1	51200	1	53248	0	0.7	51200	turquoise	purple	1	2	ml	2.7.3	bip	sub-06_ses-01_task-ml_proj-bip_2020-11-13-10-08-24.958751
235	6	1	5	236	volatile	2	40	36	sv	turquoise	purple	purple	turquoise	right	left	0.30000000000000004	0.7	6	4	1.8000000000000005	2.8	0	1	0.7	0.30000000000000004	4	6	2.8	1.8000000000000005	valid	0.29994311799964635	51200	0	0	2	51200	1	51200	1	53248	0	0.7	51200	turquoise	purple	0	4	ml	2.7.3	bip	sub-06_ses-01_task-ml_proj-bip_2020-11-13-10-08-24.958751
236	6	1	5	237	volatile	2	40	37	sv	purple	turquoise	purple	turquoise	left	right	0.30000000000000004	0.7	2	10	0.6000000000000001	7.0	1	0	0.30000000000000004	0.7	2	10	0.6000000000000001	7.0	invalid	0.3832618540000112	53248	0	1	2	53248	1	53248	1	53248	1	0.7	53248	turquoise	purple	1	0	ml	2.7.3	bip	sub-06_ses-01_task-ml_proj-bip_2020-11-13-10-08-24.958751
237	6	1	5	238	volatile	2	40	38	sv	purple	turquoise	purple	turquoise	left	right	0.30000000000000004	0.7	2	4	0.6000000000000001	2.8	0	1	0.30000000000000004	0.7	2	4	0.6000000000000001	2.8	valid	0.5498783319999347	53248	0	1	2	53248	1	53248	1	53248	1	0.7	53248	turquoise	purple	1	4	ml	2.7.3	bip	sub-06_ses-01_task-ml_proj-bip_2020-11-13-10-08-24.958751
238	6	1	5	239	volatile	2	40	39	sv	turquoise	purple	purple	turquoise	right	left	0.30000000000000004	0.7	4	6	1.2000000000000002	4.199999999999998	1	0	0.7	0.30000000000000004	6	4	4.199999999999998	1.2000000000000002	invalid	0.3832316800016997	51200	0	0	2	51200	1	51200	1	51200	1	0.7	51200	turquoise	purple	1	0	ml	2.7.3	bip	sub-06_ses-01_task-ml_proj-bip_2020-11-13-10-08-24.958751
239	6	1	5	240	volatile	2	40	40	sv	purple	turquoise	purple	turquoise	left	right	0.30000000000000004	0.7	2	2	0.6000000000000001	1.4	1	0	0.30000000000000004	0.7	2	2	0.6000000000000001	1.4	invalid	0.4499079699999129	53248	0	1	2	53248	1	53248	1	53248	1	0.7	53248	turquoise	purple	0	0	ml	2.7.3	bip	sub-06_ses-01_task-ml_proj-bip_2020-11-13-10-08-24.958751
240	6	1	5	241	volatile	3	40	1	sv	purple	turquoise	purple	turquoise	left	right	0.7	0.30000000000000004	6	4	4.199999999999998	1.2000000000000002	1	0	0.7	0.30000000000000004	6	4	4.199999999999998	1.2000000000000002	valid	0.3665860969995265	51200	0	0	1	51200	1	51200	1	51200	1	0.7	51200	purple	turquoise	1	6	ml	2.7.3	bip	sub-06_ses-01_task-ml_proj-bip_2020-11-13-10-08-24.958751
241	6	1	5	242	volatile	3	40	2	sv	turquoise	purple	purple	turquoise	right	left	0.7	0.30000000000000004	6	4	4.199999999999998	1.2000000000000002	0	1	0.30000000000000004	0.7	4	6	1.2000000000000002	4.199999999999998	invalid	0.4665676709992113	53248	0	1	1	53248	1	53248	1	53248	1	0.7	53248	purple	turquoise	1	0	ml	2.7.3	bip	sub-06_ses-01_task-ml_proj-bip_2020-11-13-10-08-24.958751
242	6	1	5	243	volatile	3	40	3	sv	turquoise	purple	purple	turquoise	right	left	0.7	0.30000000000000004	2	2	1.4	0.6000000000000001	0	1	0.30000000000000004	0.7	2	2	0.6000000000000001	1.4	invalid	0.3665970460006065	53248	0	1	1	53248	1	53248	1	53248	1	0.7	53248	purple	turquoise	0	0	ml	2.7.3	bip	sub-06_ses-01_task-ml_proj-bip_2020-11-13-10-08-24.958751
243	6	1	5	244	volatile	3	40	4	sv	turquoise	purple	purple	turquoise	right	left	0.7	0.30000000000000004	6	4	4.199999999999998	1.2000000000000002	1	0	0.30000000000000004	0.7	4	6	1.2000000000000002	4.199999999999998	valid	0.3332706370001688	53248	0	1	1	53248	1	53248	1	53248	1	0.7	53248	purple	turquoise	1	6	ml	2.7.3	bip	sub-06_ses-01_task-ml_proj-bip_2020-11-13-10-08-24.958751
244	6	1	5	245	volatile	3	40	5	sv	turquoise	purple	purple	turquoise	right	left	0.7	0.30000000000000004	4	2	2.8	0.6000000000000001	0	1	0.30000000000000004	0.7	2	4	0.6000000000000001	2.8	invalid	0.4832268179998209	53248	0	1	1	53248	1	53248	1	53248	1	0.7	53248	purple	turquoise	1	0	ml	2.7.3	bip	sub-06_ses-01_task-ml_proj-bip_2020-11-13-10-08-24.958751
245	6	1	5	246	volatile	3	40	6	sv	purple	turquoise	purple	turquoise	left	right	0.7	0.30000000000000004	2	10	1.4	3.0000000000000004	1	0	0.7	0.30000000000000004	2	10	1.4	3.0000000000000004	valid	0.41658701699998346	53248	0	1	2	53248	1	51200	0	53248	1	0.7	51200	purple	turquoise	0	0	ml	2.7.3	bip	sub-06_ses-01_task-ml_proj-bip_2020-11-13-10-08-24.958751
246	6	1	5	247	volatile	3	40	7	sv	purple	turquoise	purple	turquoise	left	right	0.7	0.30000000000000004	2	4	1.4	1.2000000000000002	0	1	0.7	0.30000000000000004	2	4	1.4	1.2000000000000002	invalid	0.4665594939997391	51200	0	0	1	51200	1	51200	1	53248	0	0.7	51200	purple	turquoise	0	0	ml	2.7.3	bip	sub-06_ses-01_task-ml_proj-bip_2020-11-13-10-08-24.958751
247	6	1	5	248	volatile	3	40	8	sv	purple	turquoise	purple	turquoise	left	right	0.7	0.30000000000000004	4	2	2.8	0.6000000000000001	1	0	0.7	0.30000000000000004	4	2	2.8	0.6000000000000001	valid	0.5332065499987948	51200	0	0	1	51200	1	51200	1	51200	1	0.7	51200	purple	turquoise	1	4	ml	2.7.3	bip	sub-06_ses-01_task-ml_proj-bip_2020-11-13-10-08-24.958751
248	6	1	5	249	volatile	3	40	9	sv	purple	turquoise	purple	turquoise	left	right	0.7	0.30000000000000004	2	4	1.4	1.2000000000000002	0	1	0.7	0.30000000000000004	2	4	1.4	1.2000000000000002	invalid	0.5332182980000653	53248	0	1	2	51200	0	51200	0	53248	1	0.7	51200	purple	turquoise	0	4	ml	2.7.3	bip	sub-06_ses-01_task-ml_proj-bip_2020-11-13-10-08-24.958751
249	6	1	5	250	volatile	3	40	10	sv	turquoise	purple	purple	turquoise	right	left	0.7	0.30000000000000004	6	2	4.199999999999998	0.6000000000000001	1	0	0.30000000000000004	0.7	2	6	0.6000000000000001	4.199999999999998	valid	0.6498547459996189	53248	0	1	1	53248	1	53248	1	53248	1	0.7	53248	purple	turquoise	1	6	ml	2.7.3	bip	sub-06_ses-01_task-ml_proj-bip_2020-11-13-10-08-24.958751
250	6	1	6	251	volatile	3	40	11	sv	purple	turquoise	purple	turquoise	left	right	0.7	0.30000000000000004	4	2	2.8	0.6000000000000001	0	1	0.7	0.30000000000000004	4	2	2.8	0.6000000000000001	invalid	0.683164644999124	51200	0	0	1	51200	1	51200	1	51200	1	0.7	51200	purple	turquoise	1	0	ml	2.7.3	bip	sub-06_ses-01_task-ml_proj-bip_2020-11-13-10-08-24.958751
251	6	1	6	252	volatile	3	40	12	sv	purple	turquoise	purple	turquoise	left	right	0.7	0.30000000000000004	2	2	1.4	0.6000000000000001	1	0	0.7	0.30000000000000004	2	2	1.4	0.6000000000000001	valid	0.9497693499997696	53248	0	1	2	51200	0	51200	0	53248	1	0.7	51200	purple	turquoise	1	0	ml	2.7.3	bip	sub-06_ses-01_task-ml_proj-bip_2020-11-13-10-08-24.958751
252	6	1	6	253	volatile	3	40	13	sv	turquoise	purple	purple	turquoise	right	left	0.7	0.30000000000000004	2	10	1.4	3.0000000000000004	1	0	0.30000000000000004	0.7	10	2	3.0000000000000004	1.4	valid	0.4332396289992175	51200	0	0	2	51200	1	53248	0	51200	1	0.7	53248	purple	turquoise	0	0	ml	2.7.3	bip	sub-06_ses-01_task-ml_proj-bip_2020-11-13-10-08-24.958751
253	6	1	6	254	volatile	3	40	14	sv	purple	turquoise	purple	turquoise	left	right	0.7	0.30000000000000004	2	6	1.4	1.8000000000000005	1	0	0.7	0.30000000000000004	2	6	1.4	1.8000000000000005	valid	0.3499378810010967	53248	0	1	2	53248	1	51200	0	53248	1	0.7	51200	purple	turquoise	0	0	ml	2.7.3	bip	sub-06_ses-01_task-ml_proj-bip_2020-11-13-10-08-24.958751
254	6	1	6	255	volatile	3	40	15	sv	turquoise	purple	purple	turquoise	right	left	0.7	0.30000000000000004	6	6	4.199999999999998	1.8000000000000005	1	0	0.30000000000000004	0.7	6	6	1.8000000000000005	4.199999999999998	valid	0.5332232420005312	53248	0	1	1	53248	1	53248	1	53248	1	0.7	53248	purple	turquoise	0	6	ml	2.7.3	bip	sub-06_ses-01_task-ml_proj-bip_2020-11-13-10-08-24.958751
255	6	1	6	256	volatile	3	40	16	sv	turquoise	purple	purple	turquoise	right	left	0.7	0.30000000000000004	4	6	2.8	1.8000000000000005	1	0	0.30000000000000004	0.7	6	4	1.8000000000000005	2.8	valid	0.2832910289998836	53248	0	1	1	53248	1	53248	1	51200	0	0.7	53248	purple	turquoise	0	4	ml	2.7.3	bip	sub-06_ses-01_task-ml_proj-bip_2020-11-13-10-08-24.958751
256	6	1	6	257	volatile	3	40	17	sv	turquoise	purple	purple	turquoise	right	left	0.7	0.30000000000000004	4	6	2.8	1.8000000000000005	1	0	0.30000000000000004	0.7	6	4	1.8000000000000005	2.8	valid	0.2999521380006627	53248	0	1	1	53248	1	53248	1	51200	0	0.7	53248	purple	turquoise	0	4	ml	2.7.3	bip	sub-06_ses-01_task-ml_proj-bip_2020-11-13-10-08-24.958751
257	6	1	6	258	volatile	3	40	18	sv	purple	turquoise	purple	turquoise	left	right	0.7	0.30000000000000004	4	2	2.8	0.6000000000000001	1	0	0.7	0.30000000000000004	4	2	2.8	0.6000000000000001	valid	0.3499239140001009	51200	0	0	1	51200	1	51200	1	51200	1	0.7	51200	purple	turquoise	1	4	ml	2.7.3	bip	sub-06_ses-01_task-ml_proj-bip_2020-11-13-10-08-24.958751
258	6	1	6	259	volatile	3	40	19	sv	turquoise	purple	purple	turquoise	right	left	0.7	0.30000000000000004	2	2	1.4	0.6000000000000001	1	0	0.30000000000000004	0.7	2	2	0.6000000000000001	1.4	valid	0.3166109689991572	53248	0	1	1	53248	1	53248	1	53248	1	0.7	53248	purple	turquoise	0	2	ml	2.7.3	bip	sub-06_ses-01_task-ml_proj-bip_2020-11-13-10-08-24.958751
259	6	1	6	260	volatile	3	40	20	sv	turquoise	purple	purple	turquoise	right	left	0.7	0.30000000000000004	6	6	4.199999999999998	1.8000000000000005	1	0	0.30000000000000004	0.7	6	6	1.8000000000000005	4.199999999999998	valid	0.3499436140009493	53248	0	1	1	53248	1	53248	1	53248	1	0.7	53248	purple	turquoise	0	6	ml	2.7.3	bip	sub-06_ses-01_task-ml_proj-bip_2020-11-13-10-08-24.958751
260	6	1	6	261	volatile	3	40	21	sv	turquoise	purple	purple	turquoise	right	left	0.7	0.30000000000000004	4	6	2.8	1.8000000000000005	0	1	0.30000000000000004	0.7	6	4	1.8000000000000005	2.8	invalid	0.4665719750009885	53248	0	1	1	53248	1	53248	1	51200	0	0.7	53248	purple	turquoise	0	0	ml	2.7.3	bip	sub-06_ses-01_task-ml_proj-bip_2020-11-13-10-08-24.958751
261	6	1	6	262	volatile	3	40	22	sv	purple	turquoise	purple	turquoise	left	right	0.7	0.30000000000000004	2	6	1.4	1.8000000000000005	1	0	0.7	0.30000000000000004	2	6	1.4	1.8000000000000005	valid	0.5332178800017573	53248	0	1	2	53248	1	51200	0	53248	1	0.7	51200	purple	turquoise	0	0	ml	2.7.3	bip	sub-06_ses-01_task-ml_proj-bip_2020-11-13-10-08-24.958751
262	6	1	6	263	volatile	3	40	23	sv	purple	turquoise	purple	turquoise	left	right	0.7	0.30000000000000004	6	6	4.199999999999998	1.8000000000000005	1	0	0.7	0.30000000000000004	6	6	4.199999999999998	1.8000000000000005	valid	0.48321238599965005	51200	0	0	1	51200	1	51200	1	53248	0	0.7	51200	purple	turquoise	1	6	ml	2.7.3	bip	sub-06_ses-01_task-ml_proj-bip_2020-11-13-10-08-24.958751
263	6	1	6	264	volatile	3	40	24	sv	purple	turquoise	purple	turquoise	left	right	0.7	0.30000000000000004	2	4	1.4	1.2000000000000002	0	1	0.7	0.30000000000000004	2	4	1.4	1.2000000000000002	invalid	0.4998813010006416	51200	0	0	1	51200	1	51200	1	53248	0	0.7	51200	purple	turquoise	0	0	ml	2.7.3	bip	sub-06_ses-01_task-ml_proj-bip_2020-11-13-10-08-24.958751
264	6	1	6	265	volatile	3	40	25	sv	turquoise	purple	purple	turquoise	right	left	0.7	0.30000000000000004	6	4	4.199999999999998	1.2000000000000002	1	0	0.30000000000000004	0.7	4	6	1.2000000000000002	4.199999999999998	valid	0.5665392430000793	53248	0	1	1	53248	1	53248	1	53248	1	0.7	53248	purple	turquoise	1	6	ml	2.7.3	bip	sub-06_ses-01_task-ml_proj-bip_2020-11-13-10-08-24.958751
265	6	1	6	266	volatile	3	40	26	sv	turquoise	purple	purple	turquoise	right	left	0.7	0.30000000000000004	2	6	1.4	1.8000000000000005	1	0	0.30000000000000004	0.7	6	2	1.8000000000000005	1.4	valid	0.4665602240002045	51200	0	0	2	51200	1	53248	0	51200	1	0.7	53248	purple	turquoise	0	0	ml	2.7.3	bip	sub-06_ses-01_task-ml_proj-bip_2020-11-13-10-08-24.958751
266	6	1	6	267	volatile	3	40	27	sv	purple	turquoise	purple	turquoise	left	right	0.7	0.30000000000000004	6	2	4.199999999999998	0.6000000000000001	1	0	0.7	0.30000000000000004	6	2	4.199999999999998	0.6000000000000001	valid	0.6165164960002585	51200	0	0	1	51200	1	51200	1	51200	1	0.7	51200	purple	turquoise	1	6	ml	2.7.3	bip	sub-06_ses-01_task-ml_proj-bip_2020-11-13-10-08-24.958751
267	6	1	6	268	volatile	3	40	28	sv	purple	turquoise	purple	turquoise	left	right	0.7	0.30000000000000004	10	2	7.0	0.6000000000000001	1	0	0.7	0.30000000000000004	10	2	7.0	0.6000000000000001	valid	0.5332075040005293	51200	0	0	1	51200	1	51200	1	51200	1	0.7	51200	purple	turquoise	1	10	ml	2.7.3	bip	sub-06_ses-01_task-ml_proj-bip_2020-11-13-10-08-24.958751
268	6	1	6	269	volatile	3	40	29	sv	purple	turquoise	purple	turquoise	left	right	0.7	0.30000000000000004	4	6	2.8	1.8000000000000005	1	0	0.7	0.30000000000000004	4	6	2.8	1.8000000000000005	valid	0.5998551229986333	51200	0	0	1	51200	1	51200	1	53248	0	0.7	51200	purple	turquoise	0	4	ml	2.7.3	bip	sub-06_ses-01_task-ml_proj-bip_2020-11-13-10-08-24.958751
269	6	1	6	270	volatile	3	40	30	sv	turquoise	purple	purple	turquoise	right	left	0.7	0.30000000000000004	10	2	7.0	0.6000000000000001	1	0	0.30000000000000004	0.7	2	10	0.6000000000000001	7.0	valid	0.6332034360002581	53248	0	1	1	53248	1	53248	1	53248	1	0.7	53248	purple	turquoise	1	10	ml	2.7.3	bip	sub-06_ses-01_task-ml_proj-bip_2020-11-13-10-08-24.958751
270	6	1	6	271	volatile	3	40	31	sv	purple	turquoise	purple	turquoise	left	right	0.7	0.30000000000000004	2	2	1.4	0.6000000000000001	0	1	0.7	0.30000000000000004	2	2	1.4	0.6000000000000001	invalid	0.6831699859994842	51200	0	0	1	51200	1	51200	1	53248	0	0.7	51200	purple	turquoise	1	0	ml	2.7.3	bip	sub-06_ses-01_task-ml_proj-bip_2020-11-13-10-08-24.958751
271	6	1	6	272	volatile	3	40	32	sv	purple	turquoise	purple	turquoise	left	right	0.7	0.30000000000000004	4	2	2.8	0.6000000000000001	1	0	0.7	0.30000000000000004	4	2	2.8	0.6000000000000001	valid	0.583190776000265	51200	0	0	1	51200	1	51200	1	51200	1	0.7	51200	purple	turquoise	1	4	ml	2.7.3	bip	sub-06_ses-01_task-ml_proj-bip_2020-11-13-10-08-24.958751
272	6	1	6	273	volatile	3	40	33	sv	purple	turquoise	purple	turquoise	left	right	0.7	0.30000000000000004	10	2	7.0	0.6000000000000001	0	1	0.7	0.30000000000000004	10	2	7.0	0.6000000000000001	invalid	0.5665277200005221	51200	0	0	1	51200	1	51200	1	51200	1	0.7	51200	purple	turquoise	1	0	ml	2.7.3	bip	sub-06_ses-01_task-ml_proj-bip_2020-11-13-10-08-24.958751
273	6	1	6	274	volatile	3	40	34	sv	turquoise	purple	purple	turquoise	right	left	0.7	0.30000000000000004	2	6	1.4	1.8000000000000005	1	0	0.30000000000000004	0.7	6	2	1.8000000000000005	1.4	valid	0.5498774269999558	53248	0	1	1	51200	0	53248	1	51200	0	0.7	53248	purple	turquoise	0	2	ml	2.7.3	bip	sub-06_ses-01_task-ml_proj-bip_2020-11-13-10-08-24.958751
274	6	1	6	275	volatile	3	40	35	sv	turquoise	purple	purple	turquoise	right	left	0.7	0.30000000000000004	2	10	1.4	3.0000000000000004	0	1	0.30000000000000004	0.7	10	2	3.0000000000000004	1.4	invalid	0.5998699439987831	53248	0	1	1	51200	0	53248	1	51200	0	0.7	53248	purple	turquoise	0	0	ml	2.7.3	bip	sub-06_ses-01_task-ml_proj-bip_2020-11-13-10-08-24.958751
275	6	1	6	276	volatile	3	40	36	sv	turquoise	purple	purple	turquoise	right	left	0.7	0.30000000000000004	10	2	7.0	0.6000000000000001	0	1	0.30000000000000004	0.7	2	10	0.6000000000000001	7.0	invalid	0.4832397660011338	53248	0	1	1	53248	1	53248	1	53248	1	0.7	53248	purple	turquoise	1	0	ml	2.7.3	bip	sub-06_ses-01_task-ml_proj-bip_2020-11-13-10-08-24.958751
276	6	1	6	277	volatile	3	40	37	sv	purple	turquoise	purple	turquoise	left	right	0.7	0.30000000000000004	6	2	4.199999999999998	0.6000000000000001	1	0	0.7	0.30000000000000004	6	2	4.199999999999998	0.6000000000000001	valid	0.4998791940015508	51200	0	0	1	51200	1	51200	1	51200	1	0.7	51200	purple	turquoise	1	6	ml	2.7.3	bip	sub-06_ses-01_task-ml_proj-bip_2020-11-13-10-08-24.958751
277	6	1	6	278	volatile	3	40	38	sv	turquoise	purple	purple	turquoise	right	left	0.7	0.30000000000000004	6	6	4.199999999999998	1.8000000000000005	1	0	0.30000000000000004	0.7	6	6	1.8000000000000005	4.199999999999998	valid	0.7164978360015084	53248	0	1	1	53248	1	53248	1	53248	1	0.7	53248	purple	turquoise	0	6	ml	2.7.3	bip	sub-06_ses-01_task-ml_proj-bip_2020-11-13-10-08-24.958751
