Unnamed: 0	sub_id	ses_id	block_no	trial_no	phase_type	phase_no	phase_length	trialInPhase_no	phase_type_order	color_left	color_right	color1	color2	position1	position2	prob1	prob2	mag1	mag2	ev1	ev2	outcome1	outcome2	prob_left	prob_right	mag_left	mag_right	ev_left	ev_right	reward_validity	resp_time	resp_key	timeout	choice_side	choice	ev_corr_resp	ev_correct	prob_corr_resp	prob_correct	mag_corr_resp	mag_correct	high_prob	high_prob_side	high_prob_color	low_prob_color	no_brain	reward	name	version	proj_id	logFileID
0	12	1	1	1	volatile	1	20	1	vs	turquoise	purple	purple	turquoise	right	left	0.7	0.30000000000000004	2	2	1.4	0.6000000000000001	0	1	0.30000000000000004	0.7	2	2	0.6000000000000001	1.4	invalid	0.7998045519998414	53248	0	1	1	53248	1	53248	1	53248	1	0.7	53248	purple	turquoise	0	0	ml	2.7.3	lorasick	sub-12_ses-01_task-ml_proj-lorasick_2021-02-24-13-56-01.903383
1	12	1	1	2	volatile	1	20	2	vs	turquoise	purple	purple	turquoise	right	left	0.7	0.30000000000000004	6	2	4.199999999999998	0.6000000000000001	1	0	0.30000000000000004	0.7	2	6	0.6000000000000001	4.199999999999998	valid	0.4832359920001181	53248	0	1	1	53248	1	53248	1	53248	1	0.7	53248	purple	turquoise	1	6	ml	2.7.3	lorasick	sub-12_ses-01_task-ml_proj-lorasick_2021-02-24-13-56-01.903383
2	12	1	1	3	volatile	1	20	3	vs	purple	turquoise	purple	turquoise	left	right	0.7	0.30000000000000004	10	2	7.0	0.6000000000000001	1	0	0.7	0.30000000000000004	10	2	7.0	0.6000000000000001	valid	0.449895061999996	51200	0	0	1	51200	1	51200	1	51200	1	0.7	51200	purple	turquoise	1	10	ml	2.7.3	lorasick	sub-12_ses-01_task-ml_proj-lorasick_2021-02-24-13-56-01.903383
3	12	1	1	4	volatile	1	20	4	vs	turquoise	purple	purple	turquoise	right	left	0.7	0.30000000000000004	2	4	1.4	1.2000000000000002	1	0	0.30000000000000004	0.7	4	2	1.2000000000000002	1.4	valid	0.7831507459995919	53248	0	1	1	53248	1	53248	1	51200	0	0.7	53248	purple	turquoise	0	2	ml	2.7.3	lorasick	sub-12_ses-01_task-ml_proj-lorasick_2021-02-24-13-56-01.903383
4	12	1	1	5	volatile	1	20	5	vs	purple	turquoise	purple	turquoise	left	right	0.7	0.30000000000000004	4	6	2.8	1.8000000000000005	1	0	0.7	0.30000000000000004	4	6	2.8	1.8000000000000005	valid	0.3665892419994634	51200	0	0	1	51200	1	51200	1	53248	0	0.7	51200	purple	turquoise	0	4	ml	2.7.3	lorasick	sub-12_ses-01_task-ml_proj-lorasick_2021-02-24-13-56-01.903383
5	12	1	1	6	volatile	1	20	6	vs	purple	turquoise	purple	turquoise	left	right	0.7	0.30000000000000004	2	4	1.4	1.2000000000000002	1	0	0.7	0.30000000000000004	2	4	1.4	1.2000000000000002	valid	0.6498363799983053	51200	0	0	1	51200	1	51200	1	53248	0	0.7	51200	purple	turquoise	0	2	ml	2.7.3	lorasick	sub-12_ses-01_task-ml_proj-lorasick_2021-02-24-13-56-01.903383
6	12	1	1	7	volatile	1	20	7	vs	turquoise	purple	purple	turquoise	right	left	0.7	0.30000000000000004	2	6	1.4	1.8000000000000005	1	0	0.30000000000000004	0.7	6	2	1.8000000000000005	1.4	valid	0.6498485870033619	53248	0	1	1	51200	0	53248	1	51200	0	0.7	53248	purple	turquoise	0	2	ml	2.7.3	lorasick	sub-12_ses-01_task-ml_proj-lorasick_2021-02-24-13-56-01.903383
7	12	1	1	8	volatile	1	20	8	vs	turquoise	purple	purple	turquoise	right	left	0.7	0.30000000000000004	2	2	1.4	0.6000000000000001	1	0	0.30000000000000004	0.7	2	2	0.6000000000000001	1.4	valid	0.4998921830010658	53248	0	1	1	53248	1	53248	1	53248	1	0.7	53248	purple	turquoise	0	2	ml	2.7.3	lorasick	sub-12_ses-01_task-ml_proj-lorasick_2021-02-24-13-56-01.903383
8	12	1	1	9	volatile	1	20	9	vs	purple	turquoise	purple	turquoise	left	right	0.7	0.30000000000000004	6	6	4.199999999999998	1.8000000000000005	0	1	0.7	0.30000000000000004	6	6	4.199999999999998	1.8000000000000005	invalid	0.33326407800268504	51200	0	0	1	51200	1	51200	1	53248	0	0.7	51200	purple	turquoise	1	0	ml	2.7.3	lorasick	sub-12_ses-01_task-ml_proj-lorasick_2021-02-24-13-56-01.903383
9	12	1	1	10	volatile	1	20	10	vs	purple	turquoise	purple	turquoise	left	right	0.7	0.30000000000000004	2	6	1.4	1.8000000000000005	1	0	0.7	0.30000000000000004	2	6	1.4	1.8000000000000005	valid	0.6498478170033195	53248	0	1	2	53248	1	51200	0	53248	1	0.7	51200	purple	turquoise	0	0	ml	2.7.3	lorasick	sub-12_ses-01_task-ml_proj-lorasick_2021-02-24-13-56-01.903383
10	12	1	1	11	volatile	1	20	11	vs	turquoise	purple	purple	turquoise	right	left	0.7	0.30000000000000004	2	6	1.4	1.8000000000000005	0	1	0.30000000000000004	0.7	6	2	1.8000000000000005	1.4	invalid	0.6331870180001715	53248	0	1	1	51200	0	53248	1	51200	0	0.7	53248	purple	turquoise	0	0	ml	2.7.3	lorasick	sub-12_ses-01_task-ml_proj-lorasick_2021-02-24-13-56-01.903383
11	12	1	1	12	volatile	1	20	12	vs	turquoise	purple	purple	turquoise	right	left	0.7	0.30000000000000004	6	4	4.199999999999998	1.2000000000000002	1	0	0.30000000000000004	0.7	4	6	1.2000000000000002	4.199999999999998	valid	0.6165237180030091	53248	0	1	1	53248	1	53248	1	53248	1	0.7	53248	purple	turquoise	1	6	ml	2.7.3	lorasick	sub-12_ses-01_task-ml_proj-lorasick_2021-02-24-13-56-01.903383
12	12	1	1	13	volatile	1	20	13	vs	purple	turquoise	purple	turquoise	left	right	0.7	0.30000000000000004	2	10	1.4	3.0000000000000004	1	0	0.7	0.30000000000000004	2	10	1.4	3.0000000000000004	valid	0.733146835998923	51200	0	0	1	53248	0	51200	1	53248	0	0.7	51200	purple	turquoise	0	2	ml	2.7.3	lorasick	sub-12_ses-01_task-ml_proj-lorasick_2021-02-24-13-56-01.903383
13	12	1	1	14	volatile	1	20	14	vs	purple	turquoise	purple	turquoise	left	right	0.7	0.30000000000000004	10	2	7.0	0.6000000000000001	1	0	0.7	0.30000000000000004	10	2	7.0	0.6000000000000001	valid	0.43324150199987344	51200	0	0	1	51200	1	51200	1	51200	1	0.7	51200	purple	turquoise	1	10	ml	2.7.3	lorasick	sub-12_ses-01_task-ml_proj-lorasick_2021-02-24-13-56-01.903383
14	12	1	1	15	volatile	1	20	15	vs	turquoise	purple	purple	turquoise	right	left	0.7	0.30000000000000004	10	2	7.0	0.6000000000000001	0	1	0.30000000000000004	0.7	2	10	0.6000000000000001	7.0	invalid	0.4165848779994121	53248	0	1	1	53248	1	53248	1	53248	1	0.7	53248	purple	turquoise	1	0	ml	2.7.3	lorasick	sub-12_ses-01_task-ml_proj-lorasick_2021-02-24-13-56-01.903383
15	12	1	1	16	volatile	1	20	16	vs	purple	turquoise	purple	turquoise	left	right	0.7	0.30000000000000004	2	4	1.4	1.2000000000000002	1	0	0.7	0.30000000000000004	2	4	1.4	1.2000000000000002	valid	0.4332328439995763	51200	0	0	1	51200	1	51200	1	53248	0	0.7	51200	purple	turquoise	0	2	ml	2.7.3	lorasick	sub-12_ses-01_task-ml_proj-lorasick_2021-02-24-13-56-01.903383
16	12	1	1	17	volatile	1	20	17	vs	turquoise	purple	purple	turquoise	right	left	0.7	0.30000000000000004	4	6	2.8	1.8000000000000005	1	0	0.30000000000000004	0.7	6	4	1.8000000000000005	2.8	valid	0.4665675510004803	53248	0	1	1	53248	1	53248	1	51200	0	0.7	53248	purple	turquoise	0	4	ml	2.7.3	lorasick	sub-12_ses-01_task-ml_proj-lorasick_2021-02-24-13-56-01.903383
17	12	1	1	18	volatile	1	20	18	vs	turquoise	purple	purple	turquoise	right	left	0.7	0.30000000000000004	6	6	4.199999999999998	1.8000000000000005	1	0	0.30000000000000004	0.7	6	6	1.8000000000000005	4.199999999999998	valid	0.6331771449986263	51200	0	0	2	53248	0	53248	0	53248	0	0.7	53248	purple	turquoise	0	0	ml	2.7.3	lorasick	sub-12_ses-01_task-ml_proj-lorasick_2021-02-24-13-56-01.903383
18	12	1	1	19	volatile	1	20	19	vs	purple	turquoise	purple	turquoise	left	right	0.7	0.30000000000000004	4	2	2.8	0.6000000000000001	0	1	0.7	0.30000000000000004	4	2	2.8	0.6000000000000001	invalid	0.4165728990010393	51200	0	0	1	51200	1	51200	1	51200	1	0.7	51200	purple	turquoise	1	0	ml	2.7.3	lorasick	sub-12_ses-01_task-ml_proj-lorasick_2021-02-24-13-56-01.903383
19	12	1	1	20	volatile	1	20	20	vs	purple	turquoise	purple	turquoise	left	right	0.7	0.30000000000000004	6	4	4.199999999999998	1.2000000000000002	0	1	0.7	0.30000000000000004	6	4	4.199999999999998	1.2000000000000002	invalid	0.38324861300134216	51200	0	0	1	51200	1	51200	1	51200	1	0.7	51200	purple	turquoise	1	0	ml	2.7.3	lorasick	sub-12_ses-01_task-ml_proj-lorasick_2021-02-24-13-56-01.903383
20	12	1	1	21	volatile	2	40	1	vs	turquoise	purple	purple	turquoise	right	left	0.30000000000000004	0.7	10	2	3.0000000000000004	1.4	0	1	0.7	0.30000000000000004	2	10	1.4	3.0000000000000004	valid	0.4332460639998317	53248	0	1	1	53248	1	51200	0	53248	1	0.7	51200	turquoise	purple	0	0	ml	2.7.3	lorasick	sub-12_ses-01_task-ml_proj-lorasick_2021-02-24-13-56-01.903383
21	12	1	1	22	volatile	2	40	2	vs	purple	turquoise	purple	turquoise	left	right	0.30000000000000004	0.7	2	6	0.6000000000000001	4.199999999999998	0	1	0.30000000000000004	0.7	2	6	0.6000000000000001	4.199999999999998	valid	0.4832316850006464	53248	0	1	2	53248	1	53248	1	53248	1	0.7	53248	turquoise	purple	1	6	ml	2.7.3	lorasick	sub-12_ses-01_task-ml_proj-lorasick_2021-02-24-13-56-01.903383
22	12	1	1	23	volatile	2	40	3	vs	turquoise	purple	purple	turquoise	right	left	0.30000000000000004	0.7	2	10	0.6000000000000001	7.0	0	1	0.7	0.30000000000000004	10	2	7.0	0.6000000000000001	valid	0.33326068300084444	51200	0	0	2	51200	1	51200	1	51200	1	0.7	51200	turquoise	purple	1	10	ml	2.7.3	lorasick	sub-12_ses-01_task-ml_proj-lorasick_2021-02-24-13-56-01.903383
23	12	1	1	24	volatile	2	40	4	vs	purple	turquoise	purple	turquoise	left	right	0.30000000000000004	0.7	2	2	0.6000000000000001	1.4	0	1	0.30000000000000004	0.7	2	2	0.6000000000000001	1.4	valid	0.41658113400262653	53248	0	1	2	53248	1	53248	1	53248	1	0.7	53248	turquoise	purple	0	2	ml	2.7.3	lorasick	sub-12_ses-01_task-ml_proj-lorasick_2021-02-24-13-56-01.903383
24	12	1	1	25	volatile	2	40	5	vs	turquoise	purple	purple	turquoise	right	left	0.30000000000000004	0.7	4	6	1.2000000000000002	4.199999999999998	1	0	0.7	0.30000000000000004	6	4	4.199999999999998	1.2000000000000002	invalid	0.2832890919999045	51200	0	0	2	51200	1	51200	1	51200	1	0.7	51200	turquoise	purple	1	0	ml	2.7.3	lorasick	sub-12_ses-01_task-ml_proj-lorasick_2021-02-24-13-56-01.903383
25	12	1	1	26	volatile	2	40	6	vs	purple	turquoise	purple	turquoise	left	right	0.30000000000000004	0.7	6	6	1.8000000000000005	4.199999999999998	0	1	0.30000000000000004	0.7	6	6	1.8000000000000005	4.199999999999998	valid	0.3499403839996376	51200	0	0	1	53248	0	53248	0	53248	0	0.7	53248	turquoise	purple	0	0	ml	2.7.3	lorasick	sub-12_ses-01_task-ml_proj-lorasick_2021-02-24-13-56-01.903383
26	12	1	1	27	volatile	2	40	7	vs	purple	turquoise	purple	turquoise	left	right	0.30000000000000004	0.7	4	2	1.2000000000000002	1.4	0	1	0.30000000000000004	0.7	4	2	1.2000000000000002	1.4	valid	0.4998822369998379	51200	0	0	1	53248	0	53248	0	51200	1	0.7	53248	turquoise	purple	0	0	ml	2.7.3	lorasick	sub-12_ses-01_task-ml_proj-lorasick_2021-02-24-13-56-01.903383
27	12	1	1	28	volatile	2	40	8	vs	purple	turquoise	purple	turquoise	left	right	0.30000000000000004	0.7	6	2	1.8000000000000005	1.4	0	1	0.30000000000000004	0.7	6	2	1.8000000000000005	1.4	valid	0.4499074769992149	53248	0	1	2	51200	0	53248	1	51200	0	0.7	53248	turquoise	purple	0	2	ml	2.7.3	lorasick	sub-12_ses-01_task-ml_proj-lorasick_2021-02-24-13-56-01.903383
28	12	1	1	29	volatile	2	40	9	vs	turquoise	purple	purple	turquoise	right	left	0.30000000000000004	0.7	6	2	1.8000000000000005	1.4	0	1	0.7	0.30000000000000004	2	6	1.4	1.8000000000000005	valid	0.4832389690018317	53248	0	1	1	53248	1	51200	0	53248	1	0.7	51200	turquoise	purple	0	0	ml	2.7.3	lorasick	sub-12_ses-01_task-ml_proj-lorasick_2021-02-24-13-56-01.903383
29	12	1	1	30	volatile	2	40	10	vs	purple	turquoise	purple	turquoise	left	right	0.30000000000000004	0.7	6	2	1.8000000000000005	1.4	1	0	0.30000000000000004	0.7	6	2	1.8000000000000005	1.4	invalid	0.4832282569987001	53248	0	1	2	51200	0	53248	1	51200	0	0.7	53248	turquoise	purple	0	0	ml	2.7.3	lorasick	sub-12_ses-01_task-ml_proj-lorasick_2021-02-24-13-56-01.903383
30	12	1	1	31	volatile	2	40	11	vs	turquoise	purple	purple	turquoise	right	left	0.30000000000000004	0.7	4	2	1.2000000000000002	1.4	1	0	0.7	0.30000000000000004	2	4	1.4	1.2000000000000002	invalid	0.48322011500204104	51200	0	0	2	51200	1	51200	1	53248	0	0.7	51200	turquoise	purple	0	0	ml	2.7.3	lorasick	sub-12_ses-01_task-ml_proj-lorasick_2021-02-24-13-56-01.903383
31	12	1	1	32	volatile	2	40	12	vs	turquoise	purple	purple	turquoise	right	left	0.30000000000000004	0.7	6	6	1.8000000000000005	4.199999999999998	1	0	0.7	0.30000000000000004	6	6	4.199999999999998	1.8000000000000005	invalid	0.3999222379970888	53248	0	1	1	51200	0	51200	0	53248	1	0.7	51200	turquoise	purple	1	6	ml	2.7.3	lorasick	sub-12_ses-01_task-ml_proj-lorasick_2021-02-24-13-56-01.903383
32	12	1	1	33	volatile	2	40	13	vs	purple	turquoise	purple	turquoise	left	right	0.30000000000000004	0.7	4	6	1.2000000000000002	4.199999999999998	0	1	0.30000000000000004	0.7	4	6	1.2000000000000002	4.199999999999998	valid	0.4165745589998551	51200	0	0	1	53248	0	53248	0	53248	0	0.7	53248	turquoise	purple	1	0	ml	2.7.3	lorasick	sub-12_ses-01_task-ml_proj-lorasick_2021-02-24-13-56-01.903383
33	12	1	1	34	volatile	2	40	14	vs	turquoise	purple	purple	turquoise	right	left	0.30000000000000004	0.7	2	2	0.6000000000000001	1.4	1	0	0.7	0.30000000000000004	2	2	1.4	0.6000000000000001	invalid	0.6331881619989872	53248	0	1	1	51200	0	51200	0	53248	1	0.7	51200	turquoise	purple	1	2	ml	2.7.3	lorasick	sub-12_ses-01_task-ml_proj-lorasick_2021-02-24-13-56-01.903383
34	12	1	1	35	volatile	2	40	15	vs	purple	turquoise	purple	turquoise	left	right	0.30000000000000004	0.7	10	2	3.0000000000000004	1.4	1	0	0.30000000000000004	0.7	10	2	3.0000000000000004	1.4	invalid	0.4332347170020512	51200	0	0	1	51200	1	53248	0	51200	1	0.7	53248	turquoise	purple	0	10	ml	2.7.3	lorasick	sub-12_ses-01_task-ml_proj-lorasick_2021-02-24-13-56-01.903383
35	12	1	1	36	volatile	2	40	16	vs	purple	turquoise	purple	turquoise	left	right	0.30000000000000004	0.7	6	2	1.8000000000000005	1.4	0	1	0.30000000000000004	0.7	6	2	1.8000000000000005	1.4	valid	0.4165684949985007	51200	0	0	1	51200	1	53248	0	51200	1	0.7	53248	turquoise	purple	0	0	ml	2.7.3	lorasick	sub-12_ses-01_task-ml_proj-lorasick_2021-02-24-13-56-01.903383
36	12	1	1	37	volatile	2	40	17	vs	turquoise	purple	purple	turquoise	right	left	0.30000000000000004	0.7	4	6	1.2000000000000002	4.199999999999998	0	1	0.7	0.30000000000000004	6	4	4.199999999999998	1.2000000000000002	valid	0.5498798970002099	53248	0	1	1	51200	0	51200	0	51200	0	0.7	51200	turquoise	purple	1	0	ml	2.7.3	lorasick	sub-12_ses-01_task-ml_proj-lorasick_2021-02-24-13-56-01.903383
37	12	1	1	38	volatile	2	40	18	vs	turquoise	purple	purple	turquoise	right	left	0.30000000000000004	0.7	2	4	0.6000000000000001	2.8	0	1	0.7	0.30000000000000004	4	2	2.8	0.6000000000000001	valid	0.9830767979983648	51200	0	0	2	51200	1	51200	1	51200	1	0.7	51200	turquoise	purple	1	4	ml	2.7.3	lorasick	sub-12_ses-01_task-ml_proj-lorasick_2021-02-24-13-56-01.903383
38	12	1	1	39	volatile	2	40	19	vs	purple	turquoise	purple	turquoise	left	right	0.30000000000000004	0.7	2	4	0.6000000000000001	2.8	0	1	0.30000000000000004	0.7	2	4	0.6000000000000001	2.8	valid	0.4165834970008291	53248	0	1	2	53248	1	53248	1	53248	1	0.7	53248	turquoise	purple	1	4	ml	2.7.3	lorasick	sub-12_ses-01_task-ml_proj-lorasick_2021-02-24-13-56-01.903383
39	12	1	1	40	volatile	2	40	20	vs	turquoise	purple	purple	turquoise	right	left	0.30000000000000004	0.7	10	2	3.0000000000000004	1.4	0	1	0.7	0.30000000000000004	2	10	1.4	3.0000000000000004	valid	0.6998324209998827	53248	0	1	1	53248	1	51200	0	53248	1	0.7	51200	turquoise	purple	0	0	ml	2.7.3	lorasick	sub-12_ses-01_task-ml_proj-lorasick_2021-02-24-13-56-01.903383
40	12	1	1	41	volatile	2	40	21	vs	purple	turquoise	purple	turquoise	left	right	0.30000000000000004	0.7	2	6	0.6000000000000001	4.199999999999998	1	0	0.30000000000000004	0.7	2	6	0.6000000000000001	4.199999999999998	invalid	0.4998953620015527	53248	0	1	2	53248	1	53248	1	53248	1	0.7	53248	turquoise	purple	1	0	ml	2.7.3	lorasick	sub-12_ses-01_task-ml_proj-lorasick_2021-02-24-13-56-01.903383
41	12	1	1	42	volatile	2	40	22	vs	turquoise	purple	purple	turquoise	right	left	0.30000000000000004	0.7	6	6	1.8000000000000005	4.199999999999998	1	0	0.7	0.30000000000000004	6	6	4.199999999999998	1.8000000000000005	invalid	0.4332338269996399	51200	0	0	2	51200	1	51200	1	53248	0	0.7	51200	turquoise	purple	1	0	ml	2.7.3	lorasick	sub-12_ses-01_task-ml_proj-lorasick_2021-02-24-13-56-01.903383
42	12	1	1	43	volatile	2	40	23	vs	turquoise	purple	purple	turquoise	right	left	0.30000000000000004	0.7	2	2	0.6000000000000001	1.4	0	1	0.7	0.30000000000000004	2	2	1.4	0.6000000000000001	valid	0.5332156359982037	53248	0	1	1	51200	0	51200	0	53248	1	0.7	51200	turquoise	purple	1	0	ml	2.7.3	lorasick	sub-12_ses-01_task-ml_proj-lorasick_2021-02-24-13-56-01.903383
43	12	1	1	44	volatile	2	40	24	vs	turquoise	purple	purple	turquoise	right	left	0.30000000000000004	0.7	4	2	1.2000000000000002	1.4	0	1	0.7	0.30000000000000004	2	4	1.4	1.2000000000000002	valid	0.4165908450013376	53248	0	1	1	51200	0	51200	0	53248	1	0.7	51200	turquoise	purple	0	0	ml	2.7.3	lorasick	sub-12_ses-01_task-ml_proj-lorasick_2021-02-24-13-56-01.903383
44	12	1	1	45	volatile	2	40	25	vs	purple	turquoise	purple	turquoise	left	right	0.30000000000000004	0.7	6	4	1.8000000000000005	2.8	0	1	0.30000000000000004	0.7	6	4	1.8000000000000005	2.8	valid	0.3999103610003658	51200	0	0	1	53248	0	53248	0	51200	1	0.7	53248	turquoise	purple	0	0	ml	2.7.3	lorasick	sub-12_ses-01_task-ml_proj-lorasick_2021-02-24-13-56-01.903383
45	12	1	1	46	volatile	2	40	26	vs	purple	turquoise	purple	turquoise	left	right	0.30000000000000004	0.7	2	6	0.6000000000000001	4.199999999999998	0	1	0.30000000000000004	0.7	2	6	0.6000000000000001	4.199999999999998	valid	0.5998609630005376	53248	0	1	2	53248	1	53248	1	53248	1	0.7	53248	turquoise	purple	1	6	ml	2.7.3	lorasick	sub-12_ses-01_task-ml_proj-lorasick_2021-02-24-13-56-01.903383
46	12	1	1	47	volatile	2	40	27	vs	purple	turquoise	purple	turquoise	left	right	0.30000000000000004	0.7	6	2	1.8000000000000005	1.4	1	0	0.30000000000000004	0.7	6	2	1.8000000000000005	1.4	invalid	0.5832062879999285	53248	0	1	2	51200	0	53248	1	51200	0	0.7	53248	turquoise	purple	0	0	ml	2.7.3	lorasick	sub-12_ses-01_task-ml_proj-lorasick_2021-02-24-13-56-01.903383
47	12	1	1	48	volatile	2	40	28	vs	purple	turquoise	purple	turquoise	left	right	0.30000000000000004	0.7	4	6	1.2000000000000002	4.199999999999998	0	1	0.30000000000000004	0.7	4	6	1.2000000000000002	4.199999999999998	valid	0.43324549300086795	53248	0	1	2	53248	1	53248	1	53248	1	0.7	53248	turquoise	purple	1	6	ml	2.7.3	lorasick	sub-12_ses-01_task-ml_proj-lorasick_2021-02-24-13-56-01.903383
48	12	1	1	49	volatile	2	40	29	vs	purple	turquoise	purple	turquoise	left	right	0.30000000000000004	0.7	10	2	3.0000000000000004	1.4	1	0	0.30000000000000004	0.7	10	2	3.0000000000000004	1.4	invalid	0.566545371999382	51200	0	0	1	51200	1	53248	0	51200	1	0.7	53248	turquoise	purple	0	10	ml	2.7.3	lorasick	sub-12_ses-01_task-ml_proj-lorasick_2021-02-24-13-56-01.903383
49	12	1	1	50	volatile	2	40	30	vs	purple	turquoise	purple	turquoise	left	right	0.30000000000000004	0.7	6	4	1.8000000000000005	2.8	1	0	0.30000000000000004	0.7	6	4	1.8000000000000005	2.8	invalid	0.5332142349980131	51200	0	0	1	53248	0	53248	0	51200	1	0.7	53248	turquoise	purple	0	6	ml	2.7.3	lorasick	sub-12_ses-01_task-ml_proj-lorasick_2021-02-24-13-56-01.903383
50	12	1	2	51	volatile	2	40	31	vs	turquoise	purple	purple	turquoise	right	left	0.30000000000000004	0.7	10	2	3.0000000000000004	1.4	0	1	0.7	0.30000000000000004	2	10	1.4	3.0000000000000004	valid	0.6998410199994396	53248	0	1	1	53248	1	51200	0	53248	1	0.7	51200	turquoise	purple	0	0	ml	2.7.3	lorasick	sub-12_ses-01_task-ml_proj-lorasick_2021-02-24-13-56-01.903383
51	12	1	2	52	volatile	2	40	32	vs	purple	turquoise	purple	turquoise	left	right	0.30000000000000004	0.7	4	2	1.2000000000000002	1.4	0	1	0.30000000000000004	0.7	4	2	1.2000000000000002	1.4	valid	0.8497877869995136	53248	0	1	2	53248	1	53248	1	51200	0	0.7	53248	turquoise	purple	0	2	ml	2.7.3	lorasick	sub-12_ses-01_task-ml_proj-lorasick_2021-02-24-13-56-01.903383
52	12	1	2	53	volatile	2	40	33	vs	turquoise	purple	purple	turquoise	right	left	0.30000000000000004	0.7	2	2	0.6000000000000001	1.4	0	1	0.7	0.30000000000000004	2	2	1.4	0.6000000000000001	valid	0.3665881960005208	51200	0	0	2	51200	1	51200	1	53248	0	0.7	51200	turquoise	purple	1	2	ml	2.7.3	lorasick	sub-12_ses-01_task-ml_proj-lorasick_2021-02-24-13-56-01.903383
53	12	1	2	54	volatile	2	40	34	vs	purple	turquoise	purple	turquoise	left	right	0.30000000000000004	0.7	6	6	1.8000000000000005	4.199999999999998	0	1	0.30000000000000004	0.7	6	6	1.8000000000000005	4.199999999999998	valid	0.3665982560014527	53248	0	1	2	53248	1	53248	1	53248	1	0.7	53248	turquoise	purple	0	6	ml	2.7.3	lorasick	sub-12_ses-01_task-ml_proj-lorasick_2021-02-24-13-56-01.903383
54	12	1	2	55	volatile	2	40	35	vs	turquoise	purple	purple	turquoise	right	left	0.30000000000000004	0.7	2	10	0.6000000000000001	7.0	0	1	0.7	0.30000000000000004	10	2	7.0	0.6000000000000001	valid	0.3832463960025052	51200	0	0	2	51200	1	51200	1	51200	1	0.7	51200	turquoise	purple	1	10	ml	2.7.3	lorasick	sub-12_ses-01_task-ml_proj-lorasick_2021-02-24-13-56-01.903383
55	12	1	2	56	volatile	2	40	36	vs	turquoise	purple	purple	turquoise	right	left	0.30000000000000004	0.7	6	4	1.8000000000000005	2.8	0	1	0.7	0.30000000000000004	4	6	2.8	1.8000000000000005	valid	0.6331873700000871	53248	0	1	1	51200	0	51200	0	53248	1	0.7	51200	turquoise	purple	0	0	ml	2.7.3	lorasick	sub-12_ses-01_task-ml_proj-lorasick_2021-02-24-13-56-01.903383
56	12	1	2	57	volatile	2	40	37	vs	purple	turquoise	purple	turquoise	left	right	0.30000000000000004	0.7	4	6	1.2000000000000002	4.199999999999998	0	1	0.30000000000000004	0.7	4	6	1.2000000000000002	4.199999999999998	valid	0.4832288699981291	53248	0	1	2	53248	1	53248	1	53248	1	0.7	53248	turquoise	purple	1	6	ml	2.7.3	lorasick	sub-12_ses-01_task-ml_proj-lorasick_2021-02-24-13-56-01.903383
57	12	1	2	58	volatile	2	40	38	vs	turquoise	purple	purple	turquoise	right	left	0.30000000000000004	0.7	2	4	0.6000000000000001	2.8	1	0	0.7	0.30000000000000004	4	2	2.8	0.6000000000000001	invalid	0.4665570610013674	51200	0	0	2	51200	1	51200	1	51200	1	0.7	51200	turquoise	purple	1	0	ml	2.7.3	lorasick	sub-12_ses-01_task-ml_proj-lorasick_2021-02-24-13-56-01.903383
58	12	1	2	59	volatile	2	40	39	vs	turquoise	purple	purple	turquoise	right	left	0.30000000000000004	0.7	10	2	3.0000000000000004	1.4	0	1	0.7	0.30000000000000004	2	10	1.4	3.0000000000000004	valid	0.4998936049996701	53248	0	1	1	53248	1	51200	0	53248	1	0.7	51200	turquoise	purple	0	0	ml	2.7.3	lorasick	sub-12_ses-01_task-ml_proj-lorasick_2021-02-24-13-56-01.903383
59	12	1	2	60	volatile	2	40	40	vs	turquoise	purple	purple	turquoise	right	left	0.30000000000000004	0.7	4	2	1.2000000000000002	1.4	0	1	0.7	0.30000000000000004	2	4	1.4	1.2000000000000002	valid	0.549876184999448	53248	0	1	1	51200	0	51200	0	53248	1	0.7	51200	turquoise	purple	0	0	ml	2.7.3	lorasick	sub-12_ses-01_task-ml_proj-lorasick_2021-02-24-13-56-01.903383
60	12	1	2	61	volatile	3	40	1	vs	purple	turquoise	purple	turquoise	left	right	0.7	0.30000000000000004	6	2	4.199999999999998	0.6000000000000001	1	0	0.7	0.30000000000000004	6	2	4.199999999999998	0.6000000000000001	valid	0.3999135039994144	51200	0	0	1	51200	1	51200	1	51200	1	0.7	51200	purple	turquoise	1	6	ml	2.7.3	lorasick	sub-12_ses-01_task-ml_proj-lorasick_2021-02-24-13-56-01.903383
61	12	1	2	62	volatile	3	40	2	vs	purple	turquoise	purple	turquoise	left	right	0.7	0.30000000000000004	4	2	2.8	0.6000000000000001	1	0	0.7	0.30000000000000004	4	2	2.8	0.6000000000000001	valid	0.499884603999817	51200	0	0	1	51200	1	51200	1	51200	1	0.7	51200	purple	turquoise	1	4	ml	2.7.3	lorasick	sub-12_ses-01_task-ml_proj-lorasick_2021-02-24-13-56-01.903383
62	12	1	2	63	volatile	3	40	3	vs	purple	turquoise	purple	turquoise	left	right	0.7	0.30000000000000004	10	2	7.0	0.6000000000000001	1	0	0.7	0.30000000000000004	10	2	7.0	0.6000000000000001	valid	0.3832494779999252	51200	0	0	1	51200	1	51200	1	51200	1	0.7	51200	purple	turquoise	1	10	ml	2.7.3	lorasick	sub-12_ses-01_task-ml_proj-lorasick_2021-02-24-13-56-01.903383
63	12	1	2	64	volatile	3	40	4	vs	turquoise	purple	purple	turquoise	right	left	0.7	0.30000000000000004	6	4	4.199999999999998	1.2000000000000002	1	0	0.30000000000000004	0.7	4	6	1.2000000000000002	4.199999999999998	valid	0.5498773190010979	53248	0	1	1	53248	1	53248	1	53248	1	0.7	53248	purple	turquoise	1	6	ml	2.7.3	lorasick	sub-12_ses-01_task-ml_proj-lorasick_2021-02-24-13-56-01.903383
64	12	1	2	65	volatile	3	40	5	vs	purple	turquoise	purple	turquoise	left	right	0.7	0.30000000000000004	10	2	7.0	0.6000000000000001	0	1	0.7	0.30000000000000004	10	2	7.0	0.6000000000000001	invalid	0.3999097400010214	51200	0	0	1	51200	1	51200	1	51200	1	0.7	51200	purple	turquoise	1	0	ml	2.7.3	lorasick	sub-12_ses-01_task-ml_proj-lorasick_2021-02-24-13-56-01.903383
65	12	1	2	66	volatile	3	40	6	vs	purple	turquoise	purple	turquoise	left	right	0.7	0.30000000000000004	2	10	1.4	3.0000000000000004	1	0	0.7	0.30000000000000004	2	10	1.4	3.0000000000000004	valid	0.3832537070011313	53248	0	1	2	53248	1	51200	0	53248	1	0.7	51200	purple	turquoise	0	0	ml	2.7.3	lorasick	sub-12_ses-01_task-ml_proj-lorasick_2021-02-24-13-56-01.903383
66	12	1	2	67	volatile	3	40	7	vs	purple	turquoise	purple	turquoise	left	right	0.7	0.30000000000000004	6	4	4.199999999999998	1.2000000000000002	1	0	0.7	0.30000000000000004	6	4	4.199999999999998	1.2000000000000002	valid	0.4165951119975944	51200	0	0	1	51200	1	51200	1	51200	1	0.7	51200	purple	turquoise	1	6	ml	2.7.3	lorasick	sub-12_ses-01_task-ml_proj-lorasick_2021-02-24-13-56-01.903383
67	12	1	2	68	volatile	3	40	8	vs	purple	turquoise	purple	turquoise	left	right	0.7	0.30000000000000004	4	6	2.8	1.8000000000000005	1	0	0.7	0.30000000000000004	4	6	2.8	1.8000000000000005	valid	0.3832535090004967	51200	0	0	1	51200	1	51200	1	53248	0	0.7	51200	purple	turquoise	0	4	ml	2.7.3	lorasick	sub-12_ses-01_task-ml_proj-lorasick_2021-02-24-13-56-01.903383
68	12	1	2	69	volatile	3	40	9	vs	turquoise	purple	purple	turquoise	right	left	0.7	0.30000000000000004	10	2	7.0	0.6000000000000001	1	0	0.30000000000000004	0.7	2	10	0.6000000000000001	7.0	valid	0.4332433609997679	53248	0	1	1	53248	1	53248	1	53248	1	0.7	53248	purple	turquoise	1	10	ml	2.7.3	lorasick	sub-12_ses-01_task-ml_proj-lorasick_2021-02-24-13-56-01.903383
69	12	1	2	70	volatile	3	40	10	vs	turquoise	purple	purple	turquoise	right	left	0.7	0.30000000000000004	2	2	1.4	0.6000000000000001	0	1	0.30000000000000004	0.7	2	2	0.6000000000000001	1.4	invalid	0.4332548340025824	53248	0	1	1	53248	1	53248	1	53248	1	0.7	53248	purple	turquoise	0	0	ml	2.7.3	lorasick	sub-12_ses-01_task-ml_proj-lorasick_2021-02-24-13-56-01.903383
70	12	1	2	71	volatile	3	40	11	vs	turquoise	purple	purple	turquoise	right	left	0.7	0.30000000000000004	2	6	1.4	1.8000000000000005	1	0	0.30000000000000004	0.7	6	2	1.8000000000000005	1.4	valid	0.5165687829976378	53248	0	1	1	51200	0	53248	1	51200	0	0.7	53248	purple	turquoise	0	2	ml	2.7.3	lorasick	sub-12_ses-01_task-ml_proj-lorasick_2021-02-24-13-56-01.903383
71	12	1	2	72	volatile	3	40	12	vs	turquoise	purple	purple	turquoise	right	left	0.7	0.30000000000000004	2	6	1.4	1.8000000000000005	1	0	0.30000000000000004	0.7	6	2	1.8000000000000005	1.4	valid	0.6665084480009682	53248	0	1	1	51200	0	53248	1	51200	0	0.7	53248	purple	turquoise	0	2	ml	2.7.3	lorasick	sub-12_ses-01_task-ml_proj-lorasick_2021-02-24-13-56-01.903383
72	12	1	2	73	volatile	3	40	13	vs	purple	turquoise	purple	turquoise	left	right	0.7	0.30000000000000004	2	6	1.4	1.8000000000000005	1	0	0.7	0.30000000000000004	2	6	1.4	1.8000000000000005	valid	0.6665126520019841	53248	0	1	2	53248	1	51200	0	53248	1	0.7	51200	purple	turquoise	0	0	ml	2.7.3	lorasick	sub-12_ses-01_task-ml_proj-lorasick_2021-02-24-13-56-01.903383
73	12	1	2	74	volatile	3	40	14	vs	turquoise	purple	purple	turquoise	right	left	0.7	0.30000000000000004	2	10	1.4	3.0000000000000004	1	0	0.30000000000000004	0.7	10	2	3.0000000000000004	1.4	valid	0.5998540489999868	51200	0	0	2	51200	1	53248	0	51200	1	0.7	53248	purple	turquoise	0	0	ml	2.7.3	lorasick	sub-12_ses-01_task-ml_proj-lorasick_2021-02-24-13-56-01.903383
74	12	1	2	75	volatile	3	40	15	vs	turquoise	purple	purple	turquoise	right	left	0.7	0.30000000000000004	2	2	1.4	0.6000000000000001	1	0	0.30000000000000004	0.7	2	2	0.6000000000000001	1.4	valid	0.41658265799924266	53248	0	1	1	53248	1	53248	1	53248	1	0.7	53248	purple	turquoise	0	2	ml	2.7.3	lorasick	sub-12_ses-01_task-ml_proj-lorasick_2021-02-24-13-56-01.903383
75	12	1	2	76	volatile	3	40	16	vs	purple	turquoise	purple	turquoise	left	right	0.7	0.30000000000000004	6	4	4.199999999999998	1.2000000000000002	1	0	0.7	0.30000000000000004	6	4	4.199999999999998	1.2000000000000002	valid	0.33326206900164834	51200	0	0	1	51200	1	51200	1	51200	1	0.7	51200	purple	turquoise	1	6	ml	2.7.3	lorasick	sub-12_ses-01_task-ml_proj-lorasick_2021-02-24-13-56-01.903383
76	12	1	2	77	volatile	3	40	17	vs	turquoise	purple	purple	turquoise	right	left	0.7	0.30000000000000004	10	2	7.0	0.6000000000000001	0	1	0.30000000000000004	0.7	2	10	0.6000000000000001	7.0	invalid	0.4165810130034515	53248	0	1	1	53248	1	53248	1	53248	1	0.7	53248	purple	turquoise	1	0	ml	2.7.3	lorasick	sub-12_ses-01_task-ml_proj-lorasick_2021-02-24-13-56-01.903383
77	12	1	2	78	volatile	3	40	18	vs	purple	turquoise	purple	turquoise	left	right	0.7	0.30000000000000004	2	4	1.4	1.2000000000000002	0	1	0.7	0.30000000000000004	2	4	1.4	1.2000000000000002	invalid	0.5665511560000596	53248	0	1	2	51200	0	51200	0	53248	1	0.7	51200	purple	turquoise	0	4	ml	2.7.3	lorasick	sub-12_ses-01_task-ml_proj-lorasick_2021-02-24-13-56-01.903383
78	12	1	2	79	volatile	3	40	19	vs	purple	turquoise	purple	turquoise	left	right	0.7	0.30000000000000004	6	6	4.199999999999998	1.8000000000000005	0	1	0.7	0.30000000000000004	6	6	4.199999999999998	1.8000000000000005	invalid	0.3665848899981938	51200	0	0	1	51200	1	51200	1	53248	0	0.7	51200	purple	turquoise	1	0	ml	2.7.3	lorasick	sub-12_ses-01_task-ml_proj-lorasick_2021-02-24-13-56-01.903383
79	12	1	2	80	volatile	3	40	20	vs	turquoise	purple	purple	turquoise	right	left	0.7	0.30000000000000004	6	4	4.199999999999998	1.2000000000000002	0	1	0.30000000000000004	0.7	4	6	1.2000000000000002	4.199999999999998	invalid	0.7331573390001722	53248	0	1	1	53248	1	53248	1	53248	1	0.7	53248	purple	turquoise	1	0	ml	2.7.3	lorasick	sub-12_ses-01_task-ml_proj-lorasick_2021-02-24-13-56-01.903383
80	12	1	2	81	volatile	3	40	21	vs	turquoise	purple	purple	turquoise	right	left	0.7	0.30000000000000004	4	6	2.8	1.8000000000000005	1	0	0.30000000000000004	0.7	6	4	1.8000000000000005	2.8	valid	0.33325895899906754	51200	0	0	2	53248	0	53248	0	51200	1	0.7	53248	purple	turquoise	0	0	ml	2.7.3	lorasick	sub-12_ses-01_task-ml_proj-lorasick_2021-02-24-13-56-01.903383
81	12	1	2	82	volatile	3	40	22	vs	turquoise	purple	purple	turquoise	right	left	0.7	0.30000000000000004	4	2	2.8	0.6000000000000001	0	1	0.30000000000000004	0.7	2	4	0.6000000000000001	2.8	invalid	0.4665526850003516	51200	0	0	2	53248	0	53248	0	53248	0	0.7	53248	purple	turquoise	1	2	ml	2.7.3	lorasick	sub-12_ses-01_task-ml_proj-lorasick_2021-02-24-13-56-01.903383
82	12	1	2	83	volatile	3	40	23	vs	turquoise	purple	purple	turquoise	right	left	0.7	0.30000000000000004	4	2	2.8	0.6000000000000001	1	0	0.30000000000000004	0.7	2	4	0.6000000000000001	2.8	valid	0.3832476619973022	51200	0	0	2	53248	0	53248	0	53248	0	0.7	53248	purple	turquoise	1	0	ml	2.7.3	lorasick	sub-12_ses-01_task-ml_proj-lorasick_2021-02-24-13-56-01.903383
83	12	1	2	84	volatile	3	40	24	vs	turquoise	purple	purple	turquoise	right	left	0.7	0.30000000000000004	2	4	1.4	1.2000000000000002	1	0	0.30000000000000004	0.7	4	2	1.2000000000000002	1.4	valid	0.4498844480003754	51200	0	0	2	53248	0	53248	0	51200	1	0.7	53248	purple	turquoise	0	0	ml	2.7.3	lorasick	sub-12_ses-01_task-ml_proj-lorasick_2021-02-24-13-56-01.903383
84	12	1	2	85	volatile	3	40	25	vs	turquoise	purple	purple	turquoise	right	left	0.7	0.30000000000000004	6	2	4.199999999999998	0.6000000000000001	0	1	0.30000000000000004	0.7	2	6	0.6000000000000001	4.199999999999998	invalid	0.4832290080012172	53248	0	1	1	53248	1	53248	1	53248	1	0.7	53248	purple	turquoise	1	0	ml	2.7.3	lorasick	sub-12_ses-01_task-ml_proj-lorasick_2021-02-24-13-56-01.903383
85	12	1	2	86	volatile	3	40	26	vs	purple	turquoise	purple	turquoise	left	right	0.7	0.30000000000000004	6	6	4.199999999999998	1.8000000000000005	1	0	0.7	0.30000000000000004	6	6	4.199999999999998	1.8000000000000005	valid	0.4998800510002184	51200	0	0	1	51200	1	51200	1	53248	0	0.7	51200	purple	turquoise	1	6	ml	2.7.3	lorasick	sub-12_ses-01_task-ml_proj-lorasick_2021-02-24-13-56-01.903383
86	12	1	2	87	volatile	3	40	27	vs	turquoise	purple	purple	turquoise	right	left	0.7	0.30000000000000004	6	6	4.199999999999998	1.8000000000000005	1	0	0.30000000000000004	0.7	6	6	1.8000000000000005	4.199999999999998	valid	0.4832368969982781	53248	0	1	1	53248	1	53248	1	53248	1	0.7	53248	purple	turquoise	0	6	ml	2.7.3	lorasick	sub-12_ses-01_task-ml_proj-lorasick_2021-02-24-13-56-01.903383
87	12	1	2	88	volatile	3	40	28	vs	purple	turquoise	purple	turquoise	left	right	0.7	0.30000000000000004	4	6	2.8	1.8000000000000005	0	1	0.7	0.30000000000000004	4	6	2.8	1.8000000000000005	invalid	0.3499259959971823	51200	0	0	1	51200	1	51200	1	53248	0	0.7	51200	purple	turquoise	0	0	ml	2.7.3	lorasick	sub-12_ses-01_task-ml_proj-lorasick_2021-02-24-13-56-01.903383
88	12	1	2	89	volatile	3	40	29	vs	turquoise	purple	purple	turquoise	right	left	0.7	0.30000000000000004	2	10	1.4	3.0000000000000004	0	1	0.30000000000000004	0.7	10	2	3.0000000000000004	1.4	invalid	0.43323455800054944	51200	0	0	2	51200	1	53248	0	51200	1	0.7	53248	purple	turquoise	0	10	ml	2.7.3	lorasick	sub-12_ses-01_task-ml_proj-lorasick_2021-02-24-13-56-01.903383
89	12	1	2	90	volatile	3	40	30	vs	purple	turquoise	purple	turquoise	left	right	0.7	0.30000000000000004	2	6	1.4	1.8000000000000005	1	0	0.7	0.30000000000000004	2	6	1.4	1.8000000000000005	valid	0.4332464580002125	53248	0	1	2	53248	1	51200	0	53248	1	0.7	51200	purple	turquoise	0	0	ml	2.7.3	lorasick	sub-12_ses-01_task-ml_proj-lorasick_2021-02-24-13-56-01.903383
90	12	1	2	91	volatile	3	40	31	vs	turquoise	purple	purple	turquoise	right	left	0.7	0.30000000000000004	6	6	4.199999999999998	1.8000000000000005	1	0	0.30000000000000004	0.7	6	6	1.8000000000000005	4.199999999999998	valid	0.6165142729987565	51200	0	0	2	53248	0	53248	0	53248	0	0.7	53248	purple	turquoise	0	0	ml	2.7.3	lorasick	sub-12_ses-01_task-ml_proj-lorasick_2021-02-24-13-56-01.903383
91	12	1	2	92	volatile	3	40	32	vs	turquoise	purple	purple	turquoise	right	left	0.7	0.30000000000000004	4	6	2.8	1.8000000000000005	1	0	0.30000000000000004	0.7	6	4	1.8000000000000005	2.8	valid	0.39992918300049496	53248	0	1	1	53248	1	53248	1	51200	0	0.7	53248	purple	turquoise	0	4	ml	2.7.3	lorasick	sub-12_ses-01_task-ml_proj-lorasick_2021-02-24-13-56-01.903383
92	12	1	2	93	volatile	3	40	33	vs	purple	turquoise	purple	turquoise	left	right	0.7	0.30000000000000004	4	2	2.8	0.6000000000000001	1	0	0.7	0.30000000000000004	4	2	2.8	0.6000000000000001	valid	0.5665307800009032	51200	0	0	1	51200	1	51200	1	51200	1	0.7	51200	purple	turquoise	1	4	ml	2.7.3	lorasick	sub-12_ses-01_task-ml_proj-lorasick_2021-02-24-13-56-01.903383
93	12	1	2	94	volatile	3	40	34	vs	purple	turquoise	purple	turquoise	left	right	0.7	0.30000000000000004	6	2	4.199999999999998	0.6000000000000001	1	0	0.7	0.30000000000000004	6	2	4.199999999999998	0.6000000000000001	valid	0.4332422209990909	51200	0	0	1	51200	1	51200	1	51200	1	0.7	51200	purple	turquoise	1	6	ml	2.7.3	lorasick	sub-12_ses-01_task-ml_proj-lorasick_2021-02-24-13-56-01.903383
94	12	1	2	95	volatile	3	40	35	vs	purple	turquoise	purple	turquoise	left	right	0.7	0.30000000000000004	2	10	1.4	3.0000000000000004	0	1	0.7	0.30000000000000004	2	10	1.4	3.0000000000000004	invalid	0.3665846010007954	51200	0	0	1	53248	0	51200	1	53248	0	0.7	51200	purple	turquoise	0	0	ml	2.7.3	lorasick	sub-12_ses-01_task-ml_proj-lorasick_2021-02-24-13-56-01.903383
95	12	1	2	96	volatile	3	40	36	vs	turquoise	purple	purple	turquoise	right	left	0.7	0.30000000000000004	4	2	2.8	0.6000000000000001	1	0	0.30000000000000004	0.7	2	4	0.6000000000000001	2.8	valid	0.5665185380021285	53248	0	1	1	53248	1	53248	1	53248	1	0.7	53248	purple	turquoise	1	4	ml	2.7.3	lorasick	sub-12_ses-01_task-ml_proj-lorasick_2021-02-24-13-56-01.903383
96	12	1	2	97	volatile	3	40	37	vs	turquoise	purple	purple	turquoise	right	left	0.7	0.30000000000000004	2	2	1.4	0.6000000000000001	1	0	0.30000000000000004	0.7	2	2	0.6000000000000001	1.4	valid	0.5498791149984754	53248	0	1	1	53248	1	53248	1	53248	1	0.7	53248	purple	turquoise	0	2	ml	2.7.3	lorasick	sub-12_ses-01_task-ml_proj-lorasick_2021-02-24-13-56-01.903383
97	12	1	2	98	volatile	3	40	38	vs	purple	turquoise	purple	turquoise	left	right	0.7	0.30000000000000004	4	2	2.8	0.6000000000000001	1	0	0.7	0.30000000000000004	4	2	2.8	0.6000000000000001	valid	0.5332062369998312	51200	0	0	1	51200	1	51200	1	51200	1	0.7	51200	purple	turquoise	1	4	ml	2.7.3	lorasick	sub-12_ses-01_task-ml_proj-lorasick_2021-02-24-13-56-01.903383
98	12	1	2	99	volatile	3	40	39	vs	purple	turquoise	purple	turquoise	left	right	0.7	0.30000000000000004	2	6	1.4	1.8000000000000005	0	1	0.7	0.30000000000000004	2	6	1.4	1.8000000000000005	invalid	0.5165646059977007	53248	0	1	2	53248	1	51200	0	53248	1	0.7	51200	purple	turquoise	0	6	ml	2.7.3	lorasick	sub-12_ses-01_task-ml_proj-lorasick_2021-02-24-13-56-01.903383
99	12	1	2	100	volatile	3	40	40	vs	purple	turquoise	purple	turquoise	left	right	0.7	0.30000000000000004	2	2	1.4	0.6000000000000001	1	0	0.7	0.30000000000000004	2	2	1.4	0.6000000000000001	valid	0.44990711599893984	53248	0	1	2	51200	0	51200	0	53248	1	0.7	51200	purple	turquoise	1	0	ml	2.7.3	lorasick	sub-12_ses-01_task-ml_proj-lorasick_2021-02-24-13-56-01.903383
100	12	1	3	101	volatile	4	20	1	vs	purple	turquoise	purple	turquoise	left	right	0.30000000000000004	0.7	4	6	1.2000000000000002	4.199999999999998	0	1	0.30000000000000004	0.7	4	6	1.2000000000000002	4.199999999999998	valid	0.7498174249994918	53248	0	1	2	53248	1	53248	1	53248	1	0.7	53248	turquoise	purple	1	6	ml	2.7.3	lorasick	sub-12_ses-01_task-ml_proj-lorasick_2021-02-24-13-56-01.903383
101	12	1	3	102	volatile	4	20	2	vs	purple	turquoise	purple	turquoise	left	right	0.30000000000000004	0.7	6	6	1.8000000000000005	4.199999999999998	0	1	0.30000000000000004	0.7	6	6	1.8000000000000005	4.199999999999998	valid	0.38325748200077214	53248	0	1	2	53248	1	53248	1	53248	1	0.7	53248	turquoise	purple	0	6	ml	2.7.3	lorasick	sub-12_ses-01_task-ml_proj-lorasick_2021-02-24-13-56-01.903383
102	12	1	3	103	volatile	4	20	3	vs	purple	turquoise	purple	turquoise	left	right	0.30000000000000004	0.7	2	6	0.6000000000000001	4.199999999999998	0	1	0.30000000000000004	0.7	2	6	0.6000000000000001	4.199999999999998	valid	0.4998858489998384	53248	0	1	2	53248	1	53248	1	53248	1	0.7	53248	turquoise	purple	1	6	ml	2.7.3	lorasick	sub-12_ses-01_task-ml_proj-lorasick_2021-02-24-13-56-01.903383
103	12	1	3	104	volatile	4	20	4	vs	turquoise	purple	purple	turquoise	right	left	0.30000000000000004	0.7	6	4	1.8000000000000005	2.8	0	1	0.7	0.30000000000000004	4	6	2.8	1.8000000000000005	valid	0.4498954589980713	51200	0	0	2	51200	1	51200	1	53248	0	0.7	51200	turquoise	purple	0	4	ml	2.7.3	lorasick	sub-12_ses-01_task-ml_proj-lorasick_2021-02-24-13-56-01.903383
104	12	1	3	105	volatile	4	20	5	vs	turquoise	purple	purple	turquoise	right	left	0.30000000000000004	0.7	2	6	0.6000000000000001	4.199999999999998	1	0	0.7	0.30000000000000004	6	2	4.199999999999998	0.6000000000000001	invalid	0.4498940809971828	51200	0	0	2	51200	1	51200	1	51200	1	0.7	51200	turquoise	purple	1	0	ml	2.7.3	lorasick	sub-12_ses-01_task-ml_proj-lorasick_2021-02-24-13-56-01.903383
105	12	1	3	106	volatile	4	20	6	vs	turquoise	purple	purple	turquoise	right	left	0.30000000000000004	0.7	6	6	1.8000000000000005	4.199999999999998	0	1	0.7	0.30000000000000004	6	6	4.199999999999998	1.8000000000000005	valid	0.4165716989991779	51200	0	0	2	51200	1	51200	1	53248	0	0.7	51200	turquoise	purple	1	6	ml	2.7.3	lorasick	sub-12_ses-01_task-ml_proj-lorasick_2021-02-24-13-56-01.903383
106	12	1	3	107	volatile	4	20	7	vs	turquoise	purple	purple	turquoise	right	left	0.30000000000000004	0.7	2	10	0.6000000000000001	7.0	0	1	0.7	0.30000000000000004	10	2	7.0	0.6000000000000001	valid	0.3999090780016559	51200	0	0	2	51200	1	51200	1	51200	1	0.7	51200	turquoise	purple	1	10	ml	2.7.3	lorasick	sub-12_ses-01_task-ml_proj-lorasick_2021-02-24-13-56-01.903383
107	12	1	3	108	volatile	4	20	8	vs	purple	turquoise	purple	turquoise	left	right	0.30000000000000004	0.7	4	2	1.2000000000000002	1.4	0	1	0.30000000000000004	0.7	4	2	1.2000000000000002	1.4	valid	0.4499029959988548	53248	0	1	2	53248	1	53248	1	51200	0	0.7	53248	turquoise	purple	0	2	ml	2.7.3	lorasick	sub-12_ses-01_task-ml_proj-lorasick_2021-02-24-13-56-01.903383
108	12	1	3	109	volatile	4	20	9	vs	purple	turquoise	purple	turquoise	left	right	0.30000000000000004	0.7	2	4	0.6000000000000001	2.8	0	1	0.30000000000000004	0.7	2	4	0.6000000000000001	2.8	valid	0.4832311559985101	53248	0	1	2	53248	1	53248	1	53248	1	0.7	53248	turquoise	purple	1	4	ml	2.7.3	lorasick	sub-12_ses-01_task-ml_proj-lorasick_2021-02-24-13-56-01.903383
109	12	1	3	110	volatile	4	20	10	vs	purple	turquoise	purple	turquoise	left	right	0.30000000000000004	0.7	2	10	0.6000000000000001	7.0	1	0	0.30000000000000004	0.7	2	10	0.6000000000000001	7.0	invalid	0.4165856530016754	53248	0	1	2	53248	1	53248	1	53248	1	0.7	53248	turquoise	purple	1	0	ml	2.7.3	lorasick	sub-12_ses-01_task-ml_proj-lorasick_2021-02-24-13-56-01.903383
110	12	1	3	111	volatile	4	20	11	vs	turquoise	purple	purple	turquoise	right	left	0.30000000000000004	0.7	2	2	0.6000000000000001	1.4	0	1	0.7	0.30000000000000004	2	2	1.4	0.6000000000000001	valid	0.5831917429968598	51200	0	0	2	51200	1	51200	1	53248	0	0.7	51200	turquoise	purple	1	2	ml	2.7.3	lorasick	sub-12_ses-01_task-ml_proj-lorasick_2021-02-24-13-56-01.903383
111	12	1	3	112	volatile	4	20	12	vs	purple	turquoise	purple	turquoise	left	right	0.30000000000000004	0.7	2	6	0.6000000000000001	4.199999999999998	1	0	0.30000000000000004	0.7	2	6	0.6000000000000001	4.199999999999998	invalid	0.6498511709978629	53248	0	1	2	53248	1	53248	1	53248	1	0.7	53248	turquoise	purple	1	0	ml	2.7.3	lorasick	sub-12_ses-01_task-ml_proj-lorasick_2021-02-24-13-56-01.903383
112	12	1	3	113	volatile	4	20	13	vs	turquoise	purple	purple	turquoise	right	left	0.30000000000000004	0.7	2	10	0.6000000000000001	7.0	0	1	0.7	0.30000000000000004	10	2	7.0	0.6000000000000001	valid	0.3832418309975765	51200	0	0	2	51200	1	51200	1	51200	1	0.7	51200	turquoise	purple	1	10	ml	2.7.3	lorasick	sub-12_ses-01_task-ml_proj-lorasick_2021-02-24-13-56-01.903383
113	12	1	3	114	volatile	4	20	14	vs	turquoise	purple	purple	turquoise	right	left	0.30000000000000004	0.7	2	4	0.6000000000000001	2.8	1	0	0.7	0.30000000000000004	4	2	2.8	0.6000000000000001	invalid	0.5665297390005435	51200	0	0	2	51200	1	51200	1	51200	1	0.7	51200	turquoise	purple	1	0	ml	2.7.3	lorasick	sub-12_ses-01_task-ml_proj-lorasick_2021-02-24-13-56-01.903383
114	12	1	3	115	volatile	4	20	15	vs	turquoise	purple	purple	turquoise	right	left	0.30000000000000004	0.7	4	6	1.2000000000000002	4.199999999999998	0	1	0.7	0.30000000000000004	6	4	4.199999999999998	1.2000000000000002	valid	0.5165447110011883	51200	0	0	2	51200	1	51200	1	51200	1	0.7	51200	turquoise	purple	1	6	ml	2.7.3	lorasick	sub-12_ses-01_task-ml_proj-lorasick_2021-02-24-13-56-01.903383
115	12	1	3	116	volatile	4	20	16	vs	purple	turquoise	purple	turquoise	left	right	0.30000000000000004	0.7	2	4	0.6000000000000001	2.8	0	1	0.30000000000000004	0.7	2	4	0.6000000000000001	2.8	valid	0.3499371140023868	53248	0	1	2	53248	1	53248	1	53248	1	0.7	53248	turquoise	purple	1	4	ml	2.7.3	lorasick	sub-12_ses-01_task-ml_proj-lorasick_2021-02-24-13-56-01.903383
116	12	1	3	117	volatile	4	20	17	vs	turquoise	purple	purple	turquoise	right	left	0.30000000000000004	0.7	4	6	1.2000000000000002	4.199999999999998	0	1	0.7	0.30000000000000004	6	4	4.199999999999998	1.2000000000000002	valid	0.3832499390009616	51200	0	0	2	51200	1	51200	1	51200	1	0.7	51200	turquoise	purple	1	6	ml	2.7.3	lorasick	sub-12_ses-01_task-ml_proj-lorasick_2021-02-24-13-56-01.903383
117	12	1	3	118	volatile	4	20	18	vs	purple	turquoise	purple	turquoise	left	right	0.30000000000000004	0.7	6	2	1.8000000000000005	1.4	1	0	0.30000000000000004	0.7	6	2	1.8000000000000005	1.4	invalid	0.5498767319986655	53248	0	1	2	51200	0	53248	1	51200	0	0.7	53248	turquoise	purple	0	0	ml	2.7.3	lorasick	sub-12_ses-01_task-ml_proj-lorasick_2021-02-24-13-56-01.903383
118	12	1	3	119	volatile	4	20	19	vs	purple	turquoise	purple	turquoise	left	right	0.30000000000000004	0.7	2	2	0.6000000000000001	1.4	0	1	0.30000000000000004	0.7	2	2	0.6000000000000001	1.4	valid	0.4665672769988305	53248	0	1	2	53248	1	53248	1	53248	1	0.7	53248	turquoise	purple	0	2	ml	2.7.3	lorasick	sub-12_ses-01_task-ml_proj-lorasick_2021-02-24-13-56-01.903383
119	12	1	3	120	volatile	4	20	20	vs	turquoise	purple	purple	turquoise	right	left	0.30000000000000004	0.7	10	2	3.0000000000000004	1.4	1	0	0.7	0.30000000000000004	2	10	1.4	3.0000000000000004	invalid	0.5498767629978829	53248	0	1	1	53248	1	51200	0	53248	1	0.7	51200	turquoise	purple	0	10	ml	2.7.3	lorasick	sub-12_ses-01_task-ml_proj-lorasick_2021-02-24-13-56-01.903383
120	12	1	3	121	volatile	5	20	1	vs	turquoise	purple	purple	turquoise	right	left	0.7	0.30000000000000004	6	6	4.199999999999998	1.8000000000000005	1	0	0.30000000000000004	0.7	6	6	1.8000000000000005	4.199999999999998	valid	0.5165415019982902	51200	0	0	2	53248	0	53248	0	53248	0	0.7	53248	purple	turquoise	0	0	ml	2.7.3	lorasick	sub-12_ses-01_task-ml_proj-lorasick_2021-02-24-13-56-01.903383
121	12	1	3	122	volatile	5	20	2	vs	turquoise	purple	purple	turquoise	right	left	0.7	0.30000000000000004	2	2	1.4	0.6000000000000001	1	0	0.30000000000000004	0.7	2	2	0.6000000000000001	1.4	valid	0.4332514989982883	53248	0	1	1	53248	1	53248	1	53248	1	0.7	53248	purple	turquoise	0	2	ml	2.7.3	lorasick	sub-12_ses-01_task-ml_proj-lorasick_2021-02-24-13-56-01.903383
122	12	1	3	123	volatile	5	20	3	vs	turquoise	purple	purple	turquoise	right	left	0.7	0.30000000000000004	6	4	4.199999999999998	1.2000000000000002	1	0	0.30000000000000004	0.7	4	6	1.2000000000000002	4.199999999999998	valid	0.36659618400153693	53248	0	1	1	53248	1	53248	1	53248	1	0.7	53248	purple	turquoise	1	6	ml	2.7.3	lorasick	sub-12_ses-01_task-ml_proj-lorasick_2021-02-24-13-56-01.903383
123	12	1	3	124	volatile	5	20	4	vs	purple	turquoise	purple	turquoise	left	right	0.7	0.30000000000000004	6	2	4.199999999999998	0.6000000000000001	1	0	0.7	0.30000000000000004	6	2	4.199999999999998	0.6000000000000001	valid	0.3999086530020577	51200	0	0	1	51200	1	51200	1	51200	1	0.7	51200	purple	turquoise	1	6	ml	2.7.3	lorasick	sub-12_ses-01_task-ml_proj-lorasick_2021-02-24-13-56-01.903383
124	12	1	3	125	volatile	5	20	5	vs	turquoise	purple	purple	turquoise	right	left	0.7	0.30000000000000004	2	4	1.4	1.2000000000000002	1	0	0.30000000000000004	0.7	4	2	1.2000000000000002	1.4	valid	0.4832264420001593	53248	0	1	1	53248	1	53248	1	51200	0	0.7	53248	purple	turquoise	0	2	ml	2.7.3	lorasick	sub-12_ses-01_task-ml_proj-lorasick_2021-02-24-13-56-01.903383
125	12	1	3	126	volatile	5	20	6	vs	turquoise	purple	purple	turquoise	right	left	0.7	0.30000000000000004	6	4	4.199999999999998	1.2000000000000002	1	0	0.30000000000000004	0.7	4	6	1.2000000000000002	4.199999999999998	valid	0.4165753140005109	53248	0	1	1	53248	1	53248	1	53248	1	0.7	53248	purple	turquoise	1	6	ml	2.7.3	lorasick	sub-12_ses-01_task-ml_proj-lorasick_2021-02-24-13-56-01.903383
126	12	1	3	127	volatile	5	20	7	vs	turquoise	purple	purple	turquoise	right	left	0.7	0.30000000000000004	6	2	4.199999999999998	0.6000000000000001	1	0	0.30000000000000004	0.7	2	6	0.6000000000000001	4.199999999999998	valid	0.3665963339990413	53248	0	1	1	53248	1	53248	1	53248	1	0.7	53248	purple	turquoise	1	6	ml	2.7.3	lorasick	sub-12_ses-01_task-ml_proj-lorasick_2021-02-24-13-56-01.903383
127	12	1	3	128	volatile	5	20	8	vs	purple	turquoise	purple	turquoise	left	right	0.7	0.30000000000000004	6	4	4.199999999999998	1.2000000000000002	1	0	0.7	0.30000000000000004	6	4	4.199999999999998	1.2000000000000002	valid	0.4165705859995796	51200	0	0	1	51200	1	51200	1	51200	1	0.7	51200	purple	turquoise	1	6	ml	2.7.3	lorasick	sub-12_ses-01_task-ml_proj-lorasick_2021-02-24-13-56-01.903383
128	12	1	3	129	volatile	5	20	9	vs	turquoise	purple	purple	turquoise	right	left	0.7	0.30000000000000004	2	2	1.4	0.6000000000000001	0	1	0.30000000000000004	0.7	2	2	0.6000000000000001	1.4	invalid	0.4165849560013157	53248	0	1	1	53248	1	53248	1	53248	1	0.7	53248	purple	turquoise	0	0	ml	2.7.3	lorasick	sub-12_ses-01_task-ml_proj-lorasick_2021-02-24-13-56-01.903383
129	12	1	3	130	volatile	5	20	10	vs	turquoise	purple	purple	turquoise	right	left	0.7	0.30000000000000004	2	10	1.4	3.0000000000000004	1	0	0.30000000000000004	0.7	10	2	3.0000000000000004	1.4	valid	0.416590892997192	53248	0	1	1	51200	0	53248	1	51200	0	0.7	53248	purple	turquoise	0	2	ml	2.7.3	lorasick	sub-12_ses-01_task-ml_proj-lorasick_2021-02-24-13-56-01.903383
130	12	1	3	131	volatile	5	20	11	vs	purple	turquoise	purple	turquoise	left	right	0.7	0.30000000000000004	4	2	2.8	0.6000000000000001	1	0	0.7	0.30000000000000004	4	2	2.8	0.6000000000000001	valid	0.3832760139994207	51200	0	0	1	51200	1	51200	1	51200	1	0.7	51200	purple	turquoise	1	4	ml	2.7.3	lorasick	sub-12_ses-01_task-ml_proj-lorasick_2021-02-24-13-56-01.903383
131	12	1	3	132	volatile	5	20	12	vs	turquoise	purple	purple	turquoise	right	left	0.7	0.30000000000000004	4	2	2.8	0.6000000000000001	0	1	0.30000000000000004	0.7	2	4	0.6000000000000001	2.8	invalid	0.39992329999950016	53248	0	1	1	53248	1	53248	1	53248	1	0.7	53248	purple	turquoise	1	0	ml	2.7.3	lorasick	sub-12_ses-01_task-ml_proj-lorasick_2021-02-24-13-56-01.903383
132	12	1	3	133	volatile	5	20	13	vs	purple	turquoise	purple	turquoise	left	right	0.7	0.30000000000000004	2	6	1.4	1.8000000000000005	0	1	0.7	0.30000000000000004	2	6	1.4	1.8000000000000005	invalid	0.3832478489966888	51200	0	0	1	53248	0	51200	1	53248	0	0.7	51200	purple	turquoise	0	0	ml	2.7.3	lorasick	sub-12_ses-01_task-ml_proj-lorasick_2021-02-24-13-56-01.903383
133	12	1	3	134	volatile	5	20	14	vs	purple	turquoise	purple	turquoise	left	right	0.7	0.30000000000000004	6	6	4.199999999999998	1.8000000000000005	0	1	0.7	0.30000000000000004	6	6	4.199999999999998	1.8000000000000005	invalid	0.4332323019989417	51200	0	0	1	51200	1	51200	1	53248	0	0.7	51200	purple	turquoise	1	0	ml	2.7.3	lorasick	sub-12_ses-01_task-ml_proj-lorasick_2021-02-24-13-56-01.903383
134	12	1	3	135	volatile	5	20	15	vs	purple	turquoise	purple	turquoise	left	right	0.7	0.30000000000000004	2	4	1.4	1.2000000000000002	0	1	0.7	0.30000000000000004	2	4	1.4	1.2000000000000002	invalid	0.5831904810002015	51200	0	0	1	51200	1	51200	1	53248	0	0.7	51200	purple	turquoise	0	0	ml	2.7.3	lorasick	sub-12_ses-01_task-ml_proj-lorasick_2021-02-24-13-56-01.903383
135	12	1	3	136	volatile	5	20	16	vs	purple	turquoise	purple	turquoise	left	right	0.7	0.30000000000000004	2	10	1.4	3.0000000000000004	1	0	0.7	0.30000000000000004	2	10	1.4	3.0000000000000004	valid	0.333273669002665	53248	0	1	2	53248	1	51200	0	53248	1	0.7	51200	purple	turquoise	0	0	ml	2.7.3	lorasick	sub-12_ses-01_task-ml_proj-lorasick_2021-02-24-13-56-01.903383
136	12	1	3	137	volatile	5	20	17	vs	purple	turquoise	purple	turquoise	left	right	0.7	0.30000000000000004	2	10	1.4	3.0000000000000004	1	0	0.7	0.30000000000000004	2	10	1.4	3.0000000000000004	valid	0.4332446180014813	53248	0	1	2	53248	1	51200	0	53248	1	0.7	51200	purple	turquoise	0	0	ml	2.7.3	lorasick	sub-12_ses-01_task-ml_proj-lorasick_2021-02-24-13-56-01.903383
137	12	1	3	138	volatile	5	20	18	vs	purple	turquoise	purple	turquoise	left	right	0.7	0.30000000000000004	10	2	7.0	0.6000000000000001	1	0	0.7	0.30000000000000004	10	2	7.0	0.6000000000000001	valid	0.6165136210001947	51200	0	0	1	51200	1	51200	1	51200	1	0.7	51200	purple	turquoise	1	10	ml	2.7.3	lorasick	sub-12_ses-01_task-ml_proj-lorasick_2021-02-24-13-56-01.903383
138	12	1	3	139	volatile	5	20	19	vs	turquoise	purple	purple	turquoise	right	left	0.7	0.30000000000000004	2	6	1.4	1.8000000000000005	0	1	0.30000000000000004	0.7	6	2	1.8000000000000005	1.4	invalid	0.4832313359984255	53248	0	1	1	51200	0	53248	1	51200	0	0.7	53248	purple	turquoise	0	0	ml	2.7.3	lorasick	sub-12_ses-01_task-ml_proj-lorasick_2021-02-24-13-56-01.903383
139	12	1	3	140	volatile	5	20	20	vs	purple	turquoise	purple	turquoise	left	right	0.7	0.30000000000000004	6	4	4.199999999999998	1.2000000000000002	1	0	0.7	0.30000000000000004	6	4	4.199999999999998	1.2000000000000002	valid	0.4665517499997805	51200	0	0	1	51200	1	51200	1	51200	1	0.7	51200	purple	turquoise	1	6	ml	2.7.3	lorasick	sub-12_ses-01_task-ml_proj-lorasick_2021-02-24-13-56-01.903383
140	12	1	3	141	volatile	6	40	1	vs	turquoise	purple	purple	turquoise	right	left	0.30000000000000004	0.7	10	2	3.0000000000000004	1.4	0	1	0.7	0.30000000000000004	2	10	1.4	3.0000000000000004	valid	0.41659730999890604	53248	0	1	1	53248	1	51200	0	53248	1	0.7	51200	turquoise	purple	0	0	ml	2.7.3	lorasick	sub-12_ses-01_task-ml_proj-lorasick_2021-02-24-13-56-01.903383
141	12	1	3	142	volatile	6	40	2	vs	purple	turquoise	purple	turquoise	left	right	0.30000000000000004	0.7	2	4	0.6000000000000001	2.8	1	0	0.30000000000000004	0.7	2	4	0.6000000000000001	2.8	invalid	0.6665095419994032	53248	0	1	2	53248	1	53248	1	53248	1	0.7	53248	turquoise	purple	1	0	ml	2.7.3	lorasick	sub-12_ses-01_task-ml_proj-lorasick_2021-02-24-13-56-01.903383
142	12	1	3	143	volatile	6	40	3	vs	purple	turquoise	purple	turquoise	left	right	0.30000000000000004	0.7	6	4	1.8000000000000005	2.8	0	1	0.30000000000000004	0.7	6	4	1.8000000000000005	2.8	valid	0.416577091000363	51200	0	0	1	53248	0	53248	0	51200	1	0.7	53248	turquoise	purple	0	0	ml	2.7.3	lorasick	sub-12_ses-01_task-ml_proj-lorasick_2021-02-24-13-56-01.903383
143	12	1	3	144	volatile	6	40	4	vs	turquoise	purple	purple	turquoise	right	left	0.30000000000000004	0.7	4	2	1.2000000000000002	1.4	1	0	0.7	0.30000000000000004	2	4	1.4	1.2000000000000002	invalid	0.4665688770000998	53248	0	1	1	51200	0	51200	0	53248	1	0.7	51200	turquoise	purple	0	4	ml	2.7.3	lorasick	sub-12_ses-01_task-ml_proj-lorasick_2021-02-24-13-56-01.903383
144	12	1	3	145	volatile	6	40	5	vs	purple	turquoise	purple	turquoise	left	right	0.30000000000000004	0.7	10	2	3.0000000000000004	1.4	0	1	0.30000000000000004	0.7	10	2	3.0000000000000004	1.4	valid	0.4498886979999952	51200	0	0	1	51200	1	53248	0	51200	1	0.7	53248	turquoise	purple	0	0	ml	2.7.3	lorasick	sub-12_ses-01_task-ml_proj-lorasick_2021-02-24-13-56-01.903383
145	12	1	3	146	volatile	6	40	6	vs	purple	turquoise	purple	turquoise	left	right	0.30000000000000004	0.7	10	2	3.0000000000000004	1.4	0	1	0.30000000000000004	0.7	10	2	3.0000000000000004	1.4	valid	0.4332373999968695	51200	0	0	1	51200	1	53248	0	51200	1	0.7	53248	turquoise	purple	0	0	ml	2.7.3	lorasick	sub-12_ses-01_task-ml_proj-lorasick_2021-02-24-13-56-01.903383
146	12	1	3	147	volatile	6	40	7	vs	turquoise	purple	purple	turquoise	right	left	0.30000000000000004	0.7	6	4	1.8000000000000005	2.8	0	1	0.7	0.30000000000000004	4	6	2.8	1.8000000000000005	valid	0.5165618930004712	53248	0	1	1	51200	0	51200	0	53248	1	0.7	51200	turquoise	purple	0	0	ml	2.7.3	lorasick	sub-12_ses-01_task-ml_proj-lorasick_2021-02-24-13-56-01.903383
147	12	1	3	148	volatile	6	40	8	vs	turquoise	purple	purple	turquoise	right	left	0.30000000000000004	0.7	2	2	0.6000000000000001	1.4	0	1	0.7	0.30000000000000004	2	2	1.4	0.6000000000000001	valid	0.3999114440011908	51200	0	0	2	51200	1	51200	1	53248	0	0.7	51200	turquoise	purple	1	2	ml	2.7.3	lorasick	sub-12_ses-01_task-ml_proj-lorasick_2021-02-24-13-56-01.903383
148	12	1	3	149	volatile	6	40	9	vs	turquoise	purple	purple	turquoise	right	left	0.30000000000000004	0.7	6	2	1.8000000000000005	1.4	1	0	0.7	0.30000000000000004	2	6	1.4	1.8000000000000005	invalid	0.3665890379998018	51200	0	0	2	53248	0	51200	1	53248	0	0.7	51200	turquoise	purple	0	0	ml	2.7.3	lorasick	sub-12_ses-01_task-ml_proj-lorasick_2021-02-24-13-56-01.903383
149	12	1	3	150	volatile	6	40	10	vs	turquoise	purple	purple	turquoise	right	left	0.30000000000000004	0.7	2	4	0.6000000000000001	2.8	0	1	0.7	0.30000000000000004	4	2	2.8	0.6000000000000001	valid	0.3665879919972213	51200	0	0	2	51200	1	51200	1	51200	1	0.7	51200	turquoise	purple	1	4	ml	2.7.3	lorasick	sub-12_ses-01_task-ml_proj-lorasick_2021-02-24-13-56-01.903383
150	12	1	4	151	volatile	6	40	11	vs	purple	turquoise	purple	turquoise	left	right	0.30000000000000004	0.7	6	6	1.8000000000000005	4.199999999999998	0	1	0.30000000000000004	0.7	6	6	1.8000000000000005	4.199999999999998	valid	0.6498385029990459	51200	0	0	1	53248	0	53248	0	53248	0	0.7	53248	turquoise	purple	0	0	ml	2.7.3	lorasick	sub-12_ses-01_task-ml_proj-lorasick_2021-02-24-13-56-01.903383
151	12	1	4	152	volatile	6	40	12	vs	purple	turquoise	purple	turquoise	left	right	0.30000000000000004	0.7	4	6	1.2000000000000002	4.199999999999998	1	0	0.30000000000000004	0.7	4	6	1.2000000000000002	4.199999999999998	invalid	0.4499169529990468	53248	0	1	2	53248	1	53248	1	53248	1	0.7	53248	turquoise	purple	1	0	ml	2.7.3	lorasick	sub-12_ses-01_task-ml_proj-lorasick_2021-02-24-13-56-01.903383
152	12	1	4	153	volatile	6	40	13	vs	turquoise	purple	purple	turquoise	right	left	0.30000000000000004	0.7	4	6	1.2000000000000002	4.199999999999998	0	1	0.7	0.30000000000000004	6	4	4.199999999999998	1.2000000000000002	valid	0.7831308749991877	51200	0	0	2	51200	1	51200	1	51200	1	0.7	51200	turquoise	purple	1	6	ml	2.7.3	lorasick	sub-12_ses-01_task-ml_proj-lorasick_2021-02-24-13-56-01.903383
153	12	1	4	154	volatile	6	40	14	vs	turquoise	purple	purple	turquoise	right	left	0.30000000000000004	0.7	2	4	0.6000000000000001	2.8	0	1	0.7	0.30000000000000004	4	2	2.8	0.6000000000000001	valid	0.3999167010006204	51200	0	0	2	51200	1	51200	1	51200	1	0.7	51200	turquoise	purple	1	4	ml	2.7.3	lorasick	sub-12_ses-01_task-ml_proj-lorasick_2021-02-24-13-56-01.903383
154	12	1	4	155	volatile	6	40	15	vs	purple	turquoise	purple	turquoise	left	right	0.30000000000000004	0.7	2	2	0.6000000000000001	1.4	0	1	0.30000000000000004	0.7	2	2	0.6000000000000001	1.4	valid	0.4499046170021757	53248	0	1	2	53248	1	53248	1	53248	1	0.7	53248	turquoise	purple	0	2	ml	2.7.3	lorasick	sub-12_ses-01_task-ml_proj-lorasick_2021-02-24-13-56-01.903383
155	12	1	4	156	volatile	6	40	16	vs	purple	turquoise	purple	turquoise	left	right	0.30000000000000004	0.7	6	2	1.8000000000000005	1.4	1	0	0.30000000000000004	0.7	6	2	1.8000000000000005	1.4	invalid	0.3832634030004556	53248	0	1	2	51200	0	53248	1	51200	0	0.7	53248	turquoise	purple	0	0	ml	2.7.3	lorasick	sub-12_ses-01_task-ml_proj-lorasick_2021-02-24-13-56-01.903383
156	12	1	4	157	volatile	6	40	17	vs	purple	turquoise	purple	turquoise	left	right	0.30000000000000004	0.7	6	2	1.8000000000000005	1.4	0	1	0.30000000000000004	0.7	6	2	1.8000000000000005	1.4	valid	0.649835678999807	51200	0	0	1	51200	1	53248	0	51200	1	0.7	53248	turquoise	purple	0	0	ml	2.7.3	lorasick	sub-12_ses-01_task-ml_proj-lorasick_2021-02-24-13-56-01.903383
157	12	1	4	158	volatile	6	40	18	vs	purple	turquoise	purple	turquoise	left	right	0.30000000000000004	0.7	6	6	1.8000000000000005	4.199999999999998	0	1	0.30000000000000004	0.7	6	6	1.8000000000000005	4.199999999999998	valid	0.4498832360004599	51200	0	0	1	53248	0	53248	0	53248	0	0.7	53248	turquoise	purple	0	0	ml	2.7.3	lorasick	sub-12_ses-01_task-ml_proj-lorasick_2021-02-24-13-56-01.903383
158	12	1	4	159	volatile	6	40	19	vs	turquoise	purple	purple	turquoise	right	left	0.30000000000000004	0.7	2	4	0.6000000000000001	2.8	0	1	0.7	0.30000000000000004	4	2	2.8	0.6000000000000001	valid	0.4332363829998939	51200	0	0	2	51200	1	51200	1	51200	1	0.7	51200	turquoise	purple	1	4	ml	2.7.3	lorasick	sub-12_ses-01_task-ml_proj-lorasick_2021-02-24-13-56-01.903383
159	12	1	4	160	volatile	6	40	20	vs	turquoise	purple	purple	turquoise	right	left	0.30000000000000004	0.7	4	2	1.2000000000000002	1.4	1	0	0.7	0.30000000000000004	2	4	1.4	1.2000000000000002	invalid	0.3999124610018043	51200	0	0	2	51200	1	51200	1	53248	0	0.7	51200	turquoise	purple	0	0	ml	2.7.3	lorasick	sub-12_ses-01_task-ml_proj-lorasick_2021-02-24-13-56-01.903383
160	12	1	4	161	volatile	6	40	21	vs	turquoise	purple	purple	turquoise	right	left	0.30000000000000004	0.7	4	2	1.2000000000000002	1.4	1	0	0.7	0.30000000000000004	2	4	1.4	1.2000000000000002	invalid	0.4498976239992771	51200	0	0	2	51200	1	51200	1	53248	0	0.7	51200	turquoise	purple	0	0	ml	2.7.3	lorasick	sub-12_ses-01_task-ml_proj-lorasick_2021-02-24-13-56-01.903383
161	12	1	4	162	volatile	6	40	22	vs	turquoise	purple	purple	turquoise	right	left	0.30000000000000004	0.7	6	2	1.8000000000000005	1.4	0	1	0.7	0.30000000000000004	2	6	1.4	1.8000000000000005	valid	0.3832479720003903	51200	0	0	2	53248	0	51200	1	53248	0	0.7	51200	turquoise	purple	0	2	ml	2.7.3	lorasick	sub-12_ses-01_task-ml_proj-lorasick_2021-02-24-13-56-01.903383
162	12	1	4	163	volatile	6	40	23	vs	purple	turquoise	purple	turquoise	left	right	0.30000000000000004	0.7	10	2	3.0000000000000004	1.4	0	1	0.30000000000000004	0.7	10	2	3.0000000000000004	1.4	valid	0.5998637279990362	53248	0	1	2	51200	0	53248	1	51200	0	0.7	53248	turquoise	purple	0	2	ml	2.7.3	lorasick	sub-12_ses-01_task-ml_proj-lorasick_2021-02-24-13-56-01.903383
163	12	1	4	164	volatile	6	40	24	vs	purple	turquoise	purple	turquoise	left	right	0.30000000000000004	0.7	2	2	0.6000000000000001	1.4	1	0	0.30000000000000004	0.7	2	2	0.6000000000000001	1.4	invalid	0.5165464860001521	51200	0	0	1	53248	0	53248	0	53248	0	0.7	53248	turquoise	purple	0	2	ml	2.7.3	lorasick	sub-12_ses-01_task-ml_proj-lorasick_2021-02-24-13-56-01.903383
164	12	1	4	165	volatile	6	40	25	vs	turquoise	purple	purple	turquoise	right	left	0.30000000000000004	0.7	10	2	3.0000000000000004	1.4	0	1	0.7	0.30000000000000004	2	10	1.4	3.0000000000000004	valid	0.4665969130001031	51200	0	0	2	53248	0	51200	1	53248	0	0.7	51200	turquoise	purple	0	2	ml	2.7.3	lorasick	sub-12_ses-01_task-ml_proj-lorasick_2021-02-24-13-56-01.903383
165	12	1	4	166	volatile	6	40	26	vs	purple	turquoise	purple	turquoise	left	right	0.30000000000000004	0.7	2	10	0.6000000000000001	7.0	0	1	0.30000000000000004	0.7	2	10	0.6000000000000001	7.0	valid	0.4832295880005404	53248	0	1	2	53248	1	53248	1	53248	1	0.7	53248	turquoise	purple	1	10	ml	2.7.3	lorasick	sub-12_ses-01_task-ml_proj-lorasick_2021-02-24-13-56-01.903383
166	12	1	4	167	volatile	6	40	27	vs	turquoise	purple	purple	turquoise	right	left	0.30000000000000004	0.7	6	2	1.8000000000000005	1.4	0	1	0.7	0.30000000000000004	2	6	1.4	1.8000000000000005	valid	0.6998352909977257	53248	0	1	1	53248	1	51200	0	53248	1	0.7	51200	turquoise	purple	0	0	ml	2.7.3	lorasick	sub-12_ses-01_task-ml_proj-lorasick_2021-02-24-13-56-01.903383
167	12	1	4	168	volatile	6	40	28	vs	purple	turquoise	purple	turquoise	left	right	0.30000000000000004	0.7	6	4	1.8000000000000005	2.8	1	0	0.30000000000000004	0.7	6	4	1.8000000000000005	2.8	invalid	0.583189034001407	51200	0	0	1	53248	0	53248	0	51200	1	0.7	53248	turquoise	purple	0	6	ml	2.7.3	lorasick	sub-12_ses-01_task-ml_proj-lorasick_2021-02-24-13-56-01.903383
168	12	1	4	169	volatile	6	40	29	vs	turquoise	purple	purple	turquoise	right	left	0.30000000000000004	0.7	4	6	1.2000000000000002	4.199999999999998	0	1	0.7	0.30000000000000004	6	4	4.199999999999998	1.2000000000000002	valid	0.41657396300070093	51200	0	0	2	51200	1	51200	1	51200	1	0.7	51200	turquoise	purple	1	6	ml	2.7.3	lorasick	sub-12_ses-01_task-ml_proj-lorasick_2021-02-24-13-56-01.903383
169	12	1	4	170	volatile	6	40	30	vs	turquoise	purple	purple	turquoise	right	left	0.30000000000000004	0.7	2	2	0.6000000000000001	1.4	1	0	0.7	0.30000000000000004	2	2	1.4	0.6000000000000001	invalid	0.4498984970014135	51200	0	0	2	51200	1	51200	1	53248	0	0.7	51200	turquoise	purple	1	0	ml	2.7.3	lorasick	sub-12_ses-01_task-ml_proj-lorasick_2021-02-24-13-56-01.903383
170	12	1	4	171	volatile	6	40	31	vs	turquoise	purple	purple	turquoise	right	left	0.30000000000000004	0.7	10	2	3.0000000000000004	1.4	1	0	0.7	0.30000000000000004	2	10	1.4	3.0000000000000004	invalid	0.899777119000646	53248	0	1	1	53248	1	51200	0	53248	1	0.7	51200	turquoise	purple	0	10	ml	2.7.3	lorasick	sub-12_ses-01_task-ml_proj-lorasick_2021-02-24-13-56-01.903383
171	12	1	4	172	volatile	6	40	32	vs	purple	turquoise	purple	turquoise	left	right	0.30000000000000004	0.7	6	2	1.8000000000000005	1.4	0	1	0.30000000000000004	0.7	6	2	1.8000000000000005	1.4	valid	0.4332334329992591	51200	0	0	1	51200	1	53248	0	51200	1	0.7	53248	turquoise	purple	0	0	ml	2.7.3	lorasick	sub-12_ses-01_task-ml_proj-lorasick_2021-02-24-13-56-01.903383
172	12	1	4	173	volatile	6	40	33	vs	purple	turquoise	purple	turquoise	left	right	0.30000000000000004	0.7	10	2	3.0000000000000004	1.4	0	1	0.30000000000000004	0.7	10	2	3.0000000000000004	1.4	valid	0.466559132997645	51200	0	0	1	51200	1	53248	0	51200	1	0.7	53248	turquoise	purple	0	0	ml	2.7.3	lorasick	sub-12_ses-01_task-ml_proj-lorasick_2021-02-24-13-56-01.903383
173	12	1	4	174	volatile	6	40	34	vs	purple	turquoise	purple	turquoise	left	right	0.30000000000000004	0.7	4	2	1.2000000000000002	1.4	0	1	0.30000000000000004	0.7	4	2	1.2000000000000002	1.4	valid	0.5165424580009129	51200	0	0	1	53248	0	53248	0	51200	1	0.7	53248	turquoise	purple	0	0	ml	2.7.3	lorasick	sub-12_ses-01_task-ml_proj-lorasick_2021-02-24-13-56-01.903383
174	12	1	4	175	volatile	6	40	35	vs	turquoise	purple	purple	turquoise	right	left	0.30000000000000004	0.7	2	6	0.6000000000000001	4.199999999999998	0	1	0.7	0.30000000000000004	6	2	4.199999999999998	0.6000000000000001	valid	0.44989662900115945	51200	0	0	2	51200	1	51200	1	51200	1	0.7	51200	turquoise	purple	1	6	ml	2.7.3	lorasick	sub-12_ses-01_task-ml_proj-lorasick_2021-02-24-13-56-01.903383
175	12	1	4	176	volatile	6	40	36	vs	purple	turquoise	purple	turquoise	left	right	0.30000000000000004	0.7	6	6	1.8000000000000005	4.199999999999998	1	0	0.30000000000000004	0.7	6	6	1.8000000000000005	4.199999999999998	invalid	0.4165896720005549	53248	0	1	2	53248	1	53248	1	53248	1	0.7	53248	turquoise	purple	0	0	ml	2.7.3	lorasick	sub-12_ses-01_task-ml_proj-lorasick_2021-02-24-13-56-01.903383
176	12	1	4	177	volatile	6	40	37	vs	turquoise	purple	purple	turquoise	right	left	0.30000000000000004	0.7	6	4	1.8000000000000005	2.8	0	1	0.7	0.30000000000000004	4	6	2.8	1.8000000000000005	valid	0.6331881309997698	53248	0	1	1	51200	0	51200	0	53248	1	0.7	51200	turquoise	purple	0	0	ml	2.7.3	lorasick	sub-12_ses-01_task-ml_proj-lorasick_2021-02-24-13-56-01.903383
177	12	1	4	178	volatile	6	40	38	vs	turquoise	purple	purple	turquoise	right	left	0.30000000000000004	0.7	6	2	1.8000000000000005	1.4	0	1	0.7	0.30000000000000004	2	6	1.4	1.8000000000000005	valid	0.4998920409998391	53248	0	1	1	53248	1	51200	0	53248	1	0.7	51200	turquoise	purple	0	0	ml	2.7.3	lorasick	sub-12_ses-01_task-ml_proj-lorasick_2021-02-24-13-56-01.903383
178	12	1	4	179	volatile	6	40	39	vs	purple	turquoise	purple	turquoise	left	right	0.30000000000000004	0.7	6	6	1.8000000000000005	4.199999999999998	0	1	0.30000000000000004	0.7	6	6	1.8000000000000005	4.199999999999998	valid	0.6831725459996961	53248	0	1	2	53248	1	53248	1	53248	1	0.7	53248	turquoise	purple	0	6	ml	2.7.3	lorasick	sub-12_ses-01_task-ml_proj-lorasick_2021-02-24-13-56-01.903383
179	12	1	4	180	volatile	6	40	40	vs	purple	turquoise	purple	turquoise	left	right	0.30000000000000004	0.7	4	6	1.2000000000000002	4.199999999999998	0	1	0.30000000000000004	0.7	4	6	1.2000000000000002	4.199999999999998	valid	0.4332545790020959	53248	0	1	2	53248	1	53248	1	53248	1	0.7	53248	turquoise	purple	1	6	ml	2.7.3	lorasick	sub-12_ses-01_task-ml_proj-lorasick_2021-02-24-13-56-01.903383
180	12	1	4	181	volatile	7	20	1	vs	turquoise	purple	purple	turquoise	right	left	0.7	0.30000000000000004	2	2	1.4	0.6000000000000001	0	1	0.30000000000000004	0.7	2	2	0.6000000000000001	1.4	invalid	0.3832412349984224	51200	0	0	2	53248	0	53248	0	53248	0	0.7	53248	purple	turquoise	0	2	ml	2.7.3	lorasick	sub-12_ses-01_task-ml_proj-lorasick_2021-02-24-13-56-01.903383
181	12	1	4	182	volatile	7	20	2	vs	turquoise	purple	purple	turquoise	right	left	0.7	0.30000000000000004	2	10	1.4	3.0000000000000004	1	0	0.30000000000000004	0.7	10	2	3.0000000000000004	1.4	valid	0.399911565000366	51200	0	0	2	51200	1	53248	0	51200	1	0.7	53248	purple	turquoise	0	0	ml	2.7.3	lorasick	sub-12_ses-01_task-ml_proj-lorasick_2021-02-24-13-56-01.903383
182	12	1	4	183	volatile	7	20	3	vs	purple	turquoise	purple	turquoise	left	right	0.7	0.30000000000000004	2	6	1.4	1.8000000000000005	1	0	0.7	0.30000000000000004	2	6	1.4	1.8000000000000005	valid	0.4165799580005114	53248	0	1	2	53248	1	51200	0	53248	1	0.7	51200	purple	turquoise	0	0	ml	2.7.3	lorasick	sub-12_ses-01_task-ml_proj-lorasick_2021-02-24-13-56-01.903383
183	12	1	4	184	volatile	7	20	4	vs	purple	turquoise	purple	turquoise	left	right	0.7	0.30000000000000004	2	10	1.4	3.0000000000000004	1	0	0.7	0.30000000000000004	2	10	1.4	3.0000000000000004	valid	0.31660491200091195	51200	0	0	1	53248	0	51200	1	53248	0	0.7	51200	purple	turquoise	0	2	ml	2.7.3	lorasick	sub-12_ses-01_task-ml_proj-lorasick_2021-02-24-13-56-01.903383
184	12	1	4	185	volatile	7	20	5	vs	purple	turquoise	purple	turquoise	left	right	0.7	0.30000000000000004	6	2	4.199999999999998	0.6000000000000001	1	0	0.7	0.30000000000000004	6	2	4.199999999999998	0.6000000000000001	valid	0.3499273640009051	51200	0	0	1	51200	1	51200	1	51200	1	0.7	51200	purple	turquoise	1	6	ml	2.7.3	lorasick	sub-12_ses-01_task-ml_proj-lorasick_2021-02-24-13-56-01.903383
185	12	1	4	186	volatile	7	20	6	vs	turquoise	purple	purple	turquoise	right	left	0.7	0.30000000000000004	4	6	2.8	1.8000000000000005	1	0	0.30000000000000004	0.7	6	4	1.8000000000000005	2.8	valid	0.6831727919998231	53248	0	1	1	53248	1	53248	1	51200	0	0.7	53248	purple	turquoise	0	4	ml	2.7.3	lorasick	sub-12_ses-01_task-ml_proj-lorasick_2021-02-24-13-56-01.903383
186	12	1	4	187	volatile	7	20	7	vs	purple	turquoise	purple	turquoise	left	right	0.7	0.30000000000000004	4	2	2.8	0.6000000000000001	1	0	0.7	0.30000000000000004	4	2	2.8	0.6000000000000001	valid	0.4332350869990478	51200	0	0	1	51200	1	51200	1	51200	1	0.7	51200	purple	turquoise	1	4	ml	2.7.3	lorasick	sub-12_ses-01_task-ml_proj-lorasick_2021-02-24-13-56-01.903383
187	12	1	4	188	volatile	7	20	8	vs	turquoise	purple	purple	turquoise	right	left	0.7	0.30000000000000004	2	2	1.4	0.6000000000000001	1	0	0.30000000000000004	0.7	2	2	0.6000000000000001	1.4	valid	0.5332128759982879	53248	0	1	1	53248	1	53248	1	53248	1	0.7	53248	purple	turquoise	0	2	ml	2.7.3	lorasick	sub-12_ses-01_task-ml_proj-lorasick_2021-02-24-13-56-01.903383
188	12	1	4	189	volatile	7	20	9	vs	turquoise	purple	purple	turquoise	right	left	0.7	0.30000000000000004	2	10	1.4	3.0000000000000004	0	1	0.30000000000000004	0.7	10	2	3.0000000000000004	1.4	invalid	0.4499053689978609	53248	0	1	1	51200	0	53248	1	51200	0	0.7	53248	purple	turquoise	0	0	ml	2.7.3	lorasick	sub-12_ses-01_task-ml_proj-lorasick_2021-02-24-13-56-01.903383
189	12	1	4	190	volatile	7	20	10	vs	turquoise	purple	purple	turquoise	right	left	0.7	0.30000000000000004	6	2	4.199999999999998	0.6000000000000001	1	0	0.30000000000000004	0.7	2	6	0.6000000000000001	4.199999999999998	valid	0.4165798859976349	53248	0	1	1	53248	1	53248	1	53248	1	0.7	53248	purple	turquoise	1	6	ml	2.7.3	lorasick	sub-12_ses-01_task-ml_proj-lorasick_2021-02-24-13-56-01.903383
190	12	1	4	191	volatile	7	20	11	vs	purple	turquoise	purple	turquoise	left	right	0.7	0.30000000000000004	4	2	2.8	0.6000000000000001	1	0	0.7	0.30000000000000004	4	2	2.8	0.6000000000000001	valid	0.5165368130001298	51200	0	0	1	51200	1	51200	1	51200	1	0.7	51200	purple	turquoise	1	4	ml	2.7.3	lorasick	sub-12_ses-01_task-ml_proj-lorasick_2021-02-24-13-56-01.903383
191	12	1	4	192	volatile	7	20	12	vs	turquoise	purple	purple	turquoise	right	left	0.7	0.30000000000000004	6	6	4.199999999999998	1.8000000000000005	0	1	0.30000000000000004	0.7	6	6	1.8000000000000005	4.199999999999998	invalid	0.4499072910002724	53248	0	1	1	53248	1	53248	1	53248	1	0.7	53248	purple	turquoise	0	0	ml	2.7.3	lorasick	sub-12_ses-01_task-ml_proj-lorasick_2021-02-24-13-56-01.903383
192	12	1	4	193	volatile	7	20	13	vs	turquoise	purple	purple	turquoise	right	left	0.7	0.30000000000000004	4	6	2.8	1.8000000000000005	1	0	0.30000000000000004	0.7	6	4	1.8000000000000005	2.8	valid	0.4165741500000877	51200	0	0	2	53248	0	53248	0	51200	1	0.7	53248	purple	turquoise	0	0	ml	2.7.3	lorasick	sub-12_ses-01_task-ml_proj-lorasick_2021-02-24-13-56-01.903383
193	12	1	4	194	volatile	7	20	14	vs	purple	turquoise	purple	turquoise	left	right	0.7	0.30000000000000004	2	10	1.4	3.0000000000000004	1	0	0.7	0.30000000000000004	2	10	1.4	3.0000000000000004	valid	0.4998931850022928	53248	0	1	2	53248	1	51200	0	53248	1	0.7	51200	purple	turquoise	0	0	ml	2.7.3	lorasick	sub-12_ses-01_task-ml_proj-lorasick_2021-02-24-13-56-01.903383
194	12	1	4	195	volatile	7	20	15	vs	purple	turquoise	purple	turquoise	left	right	0.7	0.30000000000000004	4	6	2.8	1.8000000000000005	0	1	0.7	0.30000000000000004	4	6	2.8	1.8000000000000005	invalid	0.5165524680014641	53248	0	1	2	51200	0	51200	0	53248	1	0.7	51200	purple	turquoise	0	6	ml	2.7.3	lorasick	sub-12_ses-01_task-ml_proj-lorasick_2021-02-24-13-56-01.903383
195	12	1	4	196	volatile	7	20	16	vs	purple	turquoise	purple	turquoise	left	right	0.7	0.30000000000000004	4	6	2.8	1.8000000000000005	0	1	0.7	0.30000000000000004	4	6	2.8	1.8000000000000005	invalid	0.41658287199970795	53248	0	1	2	51200	0	51200	0	53248	1	0.7	51200	purple	turquoise	0	6	ml	2.7.3	lorasick	sub-12_ses-01_task-ml_proj-lorasick_2021-02-24-13-56-01.903383
196	12	1	4	197	volatile	7	20	17	vs	purple	turquoise	purple	turquoise	left	right	0.7	0.30000000000000004	2	4	1.4	1.2000000000000002	0	1	0.7	0.30000000000000004	2	4	1.4	1.2000000000000002	invalid	0.41658389100120985	53248	0	1	2	51200	0	51200	0	53248	1	0.7	51200	purple	turquoise	0	4	ml	2.7.3	lorasick	sub-12_ses-01_task-ml_proj-lorasick_2021-02-24-13-56-01.903383
197	12	1	4	198	volatile	7	20	18	vs	purple	turquoise	purple	turquoise	left	right	0.7	0.30000000000000004	2	4	1.4	1.2000000000000002	1	0	0.7	0.30000000000000004	2	4	1.4	1.2000000000000002	valid	0.36659392200090224	53248	0	1	2	51200	0	51200	0	53248	1	0.7	51200	purple	turquoise	0	0	ml	2.7.3	lorasick	sub-12_ses-01_task-ml_proj-lorasick_2021-02-24-13-56-01.903383
198	12	1	4	199	volatile	7	20	19	vs	turquoise	purple	purple	turquoise	right	left	0.7	0.30000000000000004	2	6	1.4	1.8000000000000005	1	0	0.30000000000000004	0.7	6	2	1.8000000000000005	1.4	valid	0.36658589799844776	51200	0	0	2	51200	1	53248	0	51200	1	0.7	53248	purple	turquoise	0	0	ml	2.7.3	lorasick	sub-12_ses-01_task-ml_proj-lorasick_2021-02-24-13-56-01.903383
199	12	1	4	200	volatile	7	20	20	vs	turquoise	purple	purple	turquoise	right	left	0.7	0.30000000000000004	6	6	4.199999999999998	1.8000000000000005	1	0	0.30000000000000004	0.7	6	6	1.8000000000000005	4.199999999999998	valid	0.349926864997542	51200	0	0	2	53248	0	53248	0	53248	0	0.7	53248	purple	turquoise	0	0	ml	2.7.3	lorasick	sub-12_ses-01_task-ml_proj-lorasick_2021-02-24-13-56-01.903383
200	12	1	5	201	stable	8	200	1	vs	purple	turquoise	purple	turquoise	left	right	0.30000000000000004	0.7	6	2	1.8000000000000005	1.4	0	1	0.30000000000000004	0.7	6	2	1.8000000000000005	1.4	valid	0.6998209499979566	51200	0	0	1	51200	1	53248	0	51200	1	0.7	53248	turquoise	purple	0	0	ml	2.7.3	lorasick	sub-12_ses-01_task-ml_proj-lorasick_2021-02-24-13-56-01.903383
201	12	1	5	202	stable	8	200	2	vs	purple	turquoise	purple	turquoise	left	right	0.30000000000000004	0.7	6	4	1.8000000000000005	2.8	0	1	0.30000000000000004	0.7	6	4	1.8000000000000005	2.8	valid	0.4165838760018232	53248	0	1	2	53248	1	53248	1	51200	0	0.7	53248	turquoise	purple	0	4	ml	2.7.3	lorasick	sub-12_ses-01_task-ml_proj-lorasick_2021-02-24-13-56-01.903383
202	12	1	5	203	stable	8	200	3	vs	turquoise	purple	purple	turquoise	right	left	0.30000000000000004	0.7	2	2	0.6000000000000001	1.4	0	1	0.7	0.30000000000000004	2	2	1.4	0.6000000000000001	valid	0.4165739940035565	51200	0	0	2	51200	1	51200	1	53248	0	0.7	51200	turquoise	purple	1	2	ml	2.7.3	lorasick	sub-12_ses-01_task-ml_proj-lorasick_2021-02-24-13-56-01.903383
203	12	1	5	204	stable	8	200	4	vs	turquoise	purple	purple	turquoise	right	left	0.30000000000000004	0.7	4	6	1.2000000000000002	4.199999999999998	0	1	0.7	0.30000000000000004	6	4	4.199999999999998	1.2000000000000002	valid	0.3999181450017204	51200	0	0	2	51200	1	51200	1	51200	1	0.7	51200	turquoise	purple	1	6	ml	2.7.3	lorasick	sub-12_ses-01_task-ml_proj-lorasick_2021-02-24-13-56-01.903383
204	12	1	5	205	stable	8	200	5	vs	purple	turquoise	purple	turquoise	left	right	0.30000000000000004	0.7	6	2	1.8000000000000005	1.4	1	0	0.30000000000000004	0.7	6	2	1.8000000000000005	1.4	invalid	0.4165868000018236	53248	0	1	2	51200	0	53248	1	51200	0	0.7	53248	turquoise	purple	0	0	ml	2.7.3	lorasick	sub-12_ses-01_task-ml_proj-lorasick_2021-02-24-13-56-01.903383
205	12	1	5	206	stable	8	200	6	vs	purple	turquoise	purple	turquoise	left	right	0.30000000000000004	0.7	2	10	0.6000000000000001	7.0	1	0	0.30000000000000004	0.7	2	10	0.6000000000000001	7.0	invalid	0.4332434269999794	53248	0	1	2	53248	1	53248	1	53248	1	0.7	53248	turquoise	purple	1	0	ml	2.7.3	lorasick	sub-12_ses-01_task-ml_proj-lorasick_2021-02-24-13-56-01.903383
206	12	1	5	207	stable	8	200	7	vs	purple	turquoise	purple	turquoise	left	right	0.30000000000000004	0.7	4	2	1.2000000000000002	1.4	0	1	0.30000000000000004	0.7	4	2	1.2000000000000002	1.4	valid	0.5665363760017499	53248	0	1	2	53248	1	53248	1	51200	0	0.7	53248	turquoise	purple	0	2	ml	2.7.3	lorasick	sub-12_ses-01_task-ml_proj-lorasick_2021-02-24-13-56-01.903383
207	12	1	5	208	stable	8	200	8	vs	turquoise	purple	purple	turquoise	right	left	0.30000000000000004	0.7	2	2	0.6000000000000001	1.4	1	0	0.7	0.30000000000000004	2	2	1.4	0.6000000000000001	invalid	0.449895846999425	51200	0	0	2	51200	1	51200	1	53248	0	0.7	51200	turquoise	purple	1	0	ml	2.7.3	lorasick	sub-12_ses-01_task-ml_proj-lorasick_2021-02-24-13-56-01.903383
208	12	1	5	209	stable	8	200	9	vs	purple	turquoise	purple	turquoise	left	right	0.30000000000000004	0.7	6	4	1.8000000000000005	2.8	0	1	0.30000000000000004	0.7	6	4	1.8000000000000005	2.8	valid	0.5831909039989114	51200	0	0	1	53248	0	53248	0	51200	1	0.7	53248	turquoise	purple	0	0	ml	2.7.3	lorasick	sub-12_ses-01_task-ml_proj-lorasick_2021-02-24-13-56-01.903383
209	12	1	5	210	stable	8	200	10	vs	purple	turquoise	purple	turquoise	left	right	0.30000000000000004	0.7	4	6	1.2000000000000002	4.199999999999998	1	0	0.30000000000000004	0.7	4	6	1.2000000000000002	4.199999999999998	invalid	0.5498772169994481	53248	0	1	2	53248	1	53248	1	53248	1	0.7	53248	turquoise	purple	1	0	ml	2.7.3	lorasick	sub-12_ses-01_task-ml_proj-lorasick_2021-02-24-13-56-01.903383
210	12	1	5	211	stable	8	200	11	vs	purple	turquoise	purple	turquoise	left	right	0.30000000000000004	0.7	6	6	1.8000000000000005	4.199999999999998	0	1	0.30000000000000004	0.7	6	6	1.8000000000000005	4.199999999999998	valid	0.29995043500093743	53248	0	1	2	53248	1	53248	1	53248	1	0.7	53248	turquoise	purple	0	6	ml	2.7.3	lorasick	sub-12_ses-01_task-ml_proj-lorasick_2021-02-24-13-56-01.903383
211	12	1	5	212	stable	8	200	12	vs	purple	turquoise	purple	turquoise	left	right	0.30000000000000004	0.7	2	6	0.6000000000000001	4.199999999999998	0	1	0.30000000000000004	0.7	2	6	0.6000000000000001	4.199999999999998	valid	0.3499341879978601	53248	0	1	2	53248	1	53248	1	53248	1	0.7	53248	turquoise	purple	1	6	ml	2.7.3	lorasick	sub-12_ses-01_task-ml_proj-lorasick_2021-02-24-13-56-01.903383
212	12	1	5	213	stable	8	200	13	vs	turquoise	purple	purple	turquoise	right	left	0.30000000000000004	0.7	2	6	0.6000000000000001	4.199999999999998	1	0	0.7	0.30000000000000004	6	2	4.199999999999998	0.6000000000000001	invalid	0.5165448279985867	51200	0	0	2	51200	1	51200	1	51200	1	0.7	51200	turquoise	purple	1	0	ml	2.7.3	lorasick	sub-12_ses-01_task-ml_proj-lorasick_2021-02-24-13-56-01.903383
213	12	1	5	214	stable	8	200	14	vs	turquoise	purple	purple	turquoise	right	left	0.30000000000000004	0.7	6	4	1.8000000000000005	2.8	0	1	0.7	0.30000000000000004	4	6	2.8	1.8000000000000005	valid	0.4165791330015054	51200	0	0	2	51200	1	51200	1	53248	0	0.7	51200	turquoise	purple	0	4	ml	2.7.3	lorasick	sub-12_ses-01_task-ml_proj-lorasick_2021-02-24-13-56-01.903383
214	12	1	5	215	stable	8	200	15	vs	purple	turquoise	purple	turquoise	left	right	0.30000000000000004	0.7	2	10	0.6000000000000001	7.0	0	1	0.30000000000000004	0.7	2	10	0.6000000000000001	7.0	valid	0.4665681549995497	53248	0	1	2	53248	1	53248	1	53248	1	0.7	53248	turquoise	purple	1	10	ml	2.7.3	lorasick	sub-12_ses-01_task-ml_proj-lorasick_2021-02-24-13-56-01.903383
215	12	1	5	216	stable	8	200	16	vs	turquoise	purple	purple	turquoise	right	left	0.30000000000000004	0.7	6	4	1.8000000000000005	2.8	1	0	0.7	0.30000000000000004	4	6	2.8	1.8000000000000005	invalid	0.6998223670016159	51200	0	0	2	51200	1	51200	1	53248	0	0.7	51200	turquoise	purple	0	0	ml	2.7.3	lorasick	sub-12_ses-01_task-ml_proj-lorasick_2021-02-24-13-56-01.903383
216	12	1	5	217	stable	8	200	17	vs	purple	turquoise	purple	turquoise	left	right	0.30000000000000004	0.7	2	10	0.6000000000000001	7.0	0	1	0.30000000000000004	0.7	2	10	0.6000000000000001	7.0	valid	0.3666015309972863	53248	0	1	2	53248	1	53248	1	53248	1	0.7	53248	turquoise	purple	1	10	ml	2.7.3	lorasick	sub-12_ses-01_task-ml_proj-lorasick_2021-02-24-13-56-01.903383
217	12	1	5	218	stable	8	200	18	vs	purple	turquoise	purple	turquoise	left	right	0.30000000000000004	0.7	6	6	1.8000000000000005	4.199999999999998	1	0	0.30000000000000004	0.7	6	6	1.8000000000000005	4.199999999999998	invalid	0.3665996430027008	53248	0	1	2	53248	1	53248	1	53248	1	0.7	53248	turquoise	purple	0	0	ml	2.7.3	lorasick	sub-12_ses-01_task-ml_proj-lorasick_2021-02-24-13-56-01.903383
218	12	1	5	219	stable	8	200	19	vs	turquoise	purple	purple	turquoise	right	left	0.30000000000000004	0.7	6	6	1.8000000000000005	4.199999999999998	0	1	0.7	0.30000000000000004	6	6	4.199999999999998	1.8000000000000005	valid	0.43323554100061296	51200	0	0	2	51200	1	51200	1	53248	0	0.7	51200	turquoise	purple	1	6	ml	2.7.3	lorasick	sub-12_ses-01_task-ml_proj-lorasick_2021-02-24-13-56-01.903383
219	12	1	5	220	stable	8	200	20	vs	purple	turquoise	purple	turquoise	left	right	0.30000000000000004	0.7	4	6	1.2000000000000002	4.199999999999998	0	1	0.30000000000000004	0.7	4	6	1.2000000000000002	4.199999999999998	valid	0.44990634900023	53248	0	1	2	53248	1	53248	1	53248	1	0.7	53248	turquoise	purple	1	6	ml	2.7.3	lorasick	sub-12_ses-01_task-ml_proj-lorasick_2021-02-24-13-56-01.903383
220	12	1	5	221	stable	8	200	21	vs	turquoise	purple	purple	turquoise	right	left	0.30000000000000004	0.7	10	2	3.0000000000000004	1.4	0	1	0.7	0.30000000000000004	2	10	1.4	3.0000000000000004	valid	0.683160474000033	51200	0	0	2	53248	0	51200	1	53248	0	0.7	51200	turquoise	purple	0	2	ml	2.7.3	lorasick	sub-12_ses-01_task-ml_proj-lorasick_2021-02-24-13-56-01.903383
221	12	1	5	222	stable	8	200	22	vs	turquoise	purple	purple	turquoise	right	left	0.30000000000000004	0.7	2	4	0.6000000000000001	2.8	0	1	0.7	0.30000000000000004	4	2	2.8	0.6000000000000001	valid	0.5165428260006593	51200	0	0	2	51200	1	51200	1	51200	1	0.7	51200	turquoise	purple	1	4	ml	2.7.3	lorasick	sub-12_ses-01_task-ml_proj-lorasick_2021-02-24-13-56-01.903383
222	12	1	5	223	stable	8	200	23	vs	turquoise	purple	purple	turquoise	right	left	0.30000000000000004	0.7	4	2	1.2000000000000002	1.4	0	1	0.7	0.30000000000000004	2	4	1.4	1.2000000000000002	valid	0.4498895430006087	51200	0	0	2	51200	1	51200	1	53248	0	0.7	51200	turquoise	purple	0	2	ml	2.7.3	lorasick	sub-12_ses-01_task-ml_proj-lorasick_2021-02-24-13-56-01.903383
223	12	1	5	224	stable	8	200	24	vs	purple	turquoise	purple	turquoise	left	right	0.30000000000000004	0.7	2	2	0.6000000000000001	1.4	1	0	0.30000000000000004	0.7	2	2	0.6000000000000001	1.4	invalid	0.5498651240013714	51200	0	0	1	53248	0	53248	0	53248	0	0.7	53248	turquoise	purple	0	2	ml	2.7.3	lorasick	sub-12_ses-01_task-ml_proj-lorasick_2021-02-24-13-56-01.903383
224	12	1	5	225	stable	8	200	25	vs	turquoise	purple	purple	turquoise	right	left	0.30000000000000004	0.7	6	2	1.8000000000000005	1.4	1	0	0.7	0.30000000000000004	2	6	1.4	1.8000000000000005	invalid	0.6831611199995677	51200	0	0	2	53248	0	51200	1	53248	0	0.7	51200	turquoise	purple	0	0	ml	2.7.3	lorasick	sub-12_ses-01_task-ml_proj-lorasick_2021-02-24-13-56-01.903383
225	12	1	5	226	stable	8	200	26	vs	purple	turquoise	purple	turquoise	left	right	0.30000000000000004	0.7	6	4	1.8000000000000005	2.8	0	1	0.30000000000000004	0.7	6	4	1.8000000000000005	2.8	valid	0.4332274749976932	51200	0	0	1	53248	0	53248	0	51200	1	0.7	53248	turquoise	purple	0	0	ml	2.7.3	lorasick	sub-12_ses-01_task-ml_proj-lorasick_2021-02-24-13-56-01.903383
226	12	1	5	227	stable	8	200	27	vs	turquoise	purple	purple	turquoise	right	left	0.30000000000000004	0.7	6	2	1.8000000000000005	1.4	0	1	0.7	0.30000000000000004	2	6	1.4	1.8000000000000005	valid	0.4665676889999304	53248	0	1	1	53248	1	51200	0	53248	1	0.7	51200	turquoise	purple	0	0	ml	2.7.3	lorasick	sub-12_ses-01_task-ml_proj-lorasick_2021-02-24-13-56-01.903383
227	12	1	5	228	stable	8	200	28	vs	turquoise	purple	purple	turquoise	right	left	0.30000000000000004	0.7	4	6	1.2000000000000002	4.199999999999998	1	0	0.7	0.30000000000000004	6	4	4.199999999999998	1.2000000000000002	invalid	0.8331174689992622	51200	0	0	2	51200	1	51200	1	51200	1	0.7	51200	turquoise	purple	1	0	ml	2.7.3	lorasick	sub-12_ses-01_task-ml_proj-lorasick_2021-02-24-13-56-01.903383
228	12	1	5	229	stable	8	200	29	vs	purple	turquoise	purple	turquoise	left	right	0.30000000000000004	0.7	2	6	0.6000000000000001	4.199999999999998	0	1	0.30000000000000004	0.7	2	6	0.6000000000000001	4.199999999999998	valid	0.7164966180025658	53248	0	1	2	53248	1	53248	1	53248	1	0.7	53248	turquoise	purple	1	6	ml	2.7.3	lorasick	sub-12_ses-01_task-ml_proj-lorasick_2021-02-24-13-56-01.903383
229	12	1	5	230	stable	8	200	30	vs	purple	turquoise	purple	turquoise	left	right	0.30000000000000004	0.7	2	4	0.6000000000000001	2.8	0	1	0.30000000000000004	0.7	2	4	0.6000000000000001	2.8	valid	0.3999219590004941	53248	0	1	2	53248	1	53248	1	53248	1	0.7	53248	turquoise	purple	1	4	ml	2.7.3	lorasick	sub-12_ses-01_task-ml_proj-lorasick_2021-02-24-13-56-01.903383
230	12	1	5	231	stable	8	200	31	vs	turquoise	purple	purple	turquoise	right	left	0.30000000000000004	0.7	6	2	1.8000000000000005	1.4	1	0	0.7	0.30000000000000004	2	6	1.4	1.8000000000000005	invalid	0.4332339809989208	51200	0	0	2	53248	0	51200	1	53248	0	0.7	51200	turquoise	purple	0	0	ml	2.7.3	lorasick	sub-12_ses-01_task-ml_proj-lorasick_2021-02-24-13-56-01.903383
231	12	1	5	232	stable	8	200	32	vs	turquoise	purple	purple	turquoise	right	left	0.30000000000000004	0.7	2	6	0.6000000000000001	4.199999999999998	0	1	0.7	0.30000000000000004	6	2	4.199999999999998	0.6000000000000001	valid	0.6165150529996026	51200	0	0	2	51200	1	51200	1	51200	1	0.7	51200	turquoise	purple	1	6	ml	2.7.3	lorasick	sub-12_ses-01_task-ml_proj-lorasick_2021-02-24-13-56-01.903383
232	12	1	5	233	stable	8	200	33	vs	turquoise	purple	purple	turquoise	right	left	0.30000000000000004	0.7	2	2	0.6000000000000001	1.4	0	1	0.7	0.30000000000000004	2	2	1.4	0.6000000000000001	valid	0.3832552740022948	51200	0	0	2	51200	1	51200	1	53248	0	0.7	51200	turquoise	purple	1	2	ml	2.7.3	lorasick	sub-12_ses-01_task-ml_proj-lorasick_2021-02-24-13-56-01.903383
233	12	1	5	234	stable	8	200	34	vs	turquoise	purple	purple	turquoise	right	left	0.30000000000000004	0.7	10	2	3.0000000000000004	1.4	1	0	0.7	0.30000000000000004	2	10	1.4	3.0000000000000004	invalid	0.7498410219996003	51200	0	0	2	53248	0	51200	1	53248	0	0.7	51200	turquoise	purple	0	0	ml	2.7.3	lorasick	sub-12_ses-01_task-ml_proj-lorasick_2021-02-24-13-56-01.903383
234	12	1	5	235	stable	8	200	35	vs	purple	turquoise	purple	turquoise	left	right	0.30000000000000004	0.7	6	6	1.8000000000000005	4.199999999999998	0	1	0.30000000000000004	0.7	6	6	1.8000000000000005	4.199999999999998	valid	0.6498481960006757	53248	0	1	2	53248	1	53248	1	53248	1	0.7	53248	turquoise	purple	0	6	ml	2.7.3	lorasick	sub-12_ses-01_task-ml_proj-lorasick_2021-02-24-13-56-01.903383
235	12	1	5	236	stable	8	200	36	vs	purple	turquoise	purple	turquoise	left	right	0.30000000000000004	0.7	2	6	0.6000000000000001	4.199999999999998	0	1	0.30000000000000004	0.7	2	6	0.6000000000000001	4.199999999999998	valid	0.4832141839979158	51200	0	0	1	53248	0	53248	0	53248	0	0.7	53248	turquoise	purple	1	0	ml	2.7.3	lorasick	sub-12_ses-01_task-ml_proj-lorasick_2021-02-24-13-56-01.903383
236	12	1	5	237	stable	8	200	37	vs	turquoise	purple	purple	turquoise	right	left	0.30000000000000004	0.7	4	6	1.2000000000000002	4.199999999999998	0	1	0.7	0.30000000000000004	6	4	4.199999999999998	1.2000000000000002	valid	1.3829696790016897	53248	0	1	1	51200	0	51200	0	51200	0	0.7	51200	turquoise	purple	1	0	ml	2.7.3	lorasick	sub-12_ses-01_task-ml_proj-lorasick_2021-02-24-13-56-01.903383
237	12	1	5	238	stable	8	200	38	vs	turquoise	purple	purple	turquoise	right	left	0.30000000000000004	0.7	6	6	1.8000000000000005	4.199999999999998	0	1	0.7	0.30000000000000004	6	6	4.199999999999998	1.8000000000000005	valid	0.41657026699977	51200	0	0	2	51200	1	51200	1	53248	0	0.7	51200	turquoise	purple	1	6	ml	2.7.3	lorasick	sub-12_ses-01_task-ml_proj-lorasick_2021-02-24-13-56-01.903383
238	12	1	5	239	stable	8	200	39	vs	purple	turquoise	purple	turquoise	left	right	0.30000000000000004	0.7	2	2	0.6000000000000001	1.4	1	0	0.30000000000000004	0.7	2	2	0.6000000000000001	1.4	invalid	0.7498180049988149	53248	0	1	2	53248	1	53248	1	53248	1	0.7	53248	turquoise	purple	0	0	ml	2.7.3	lorasick	sub-12_ses-01_task-ml_proj-lorasick_2021-02-24-13-56-01.903383
239	12	1	5	240	stable	8	200	40	vs	purple	turquoise	purple	turquoise	left	right	0.30000000000000004	0.7	6	2	1.8000000000000005	1.4	0	1	0.30000000000000004	0.7	6	2	1.8000000000000005	1.4	valid	0.4332449269968493	53248	0	1	2	51200	0	53248	1	51200	0	0.7	53248	turquoise	purple	0	2	ml	2.7.3	lorasick	sub-12_ses-01_task-ml_proj-lorasick_2021-02-24-13-56-01.903383
240	12	1	5	241	stable	8	200	41	vs	purple	turquoise	purple	turquoise	left	right	0.30000000000000004	0.7	6	6	1.8000000000000005	4.199999999999998	0	1	0.30000000000000004	0.7	6	6	1.8000000000000005	4.199999999999998	valid	0.3499429969997436	53248	0	1	2	53248	1	53248	1	53248	1	0.7	53248	turquoise	purple	0	6	ml	2.7.3	lorasick	sub-12_ses-01_task-ml_proj-lorasick_2021-02-24-13-56-01.903383
241	12	1	5	242	stable	8	200	42	vs	turquoise	purple	purple	turquoise	right	left	0.30000000000000004	0.7	6	2	1.8000000000000005	1.4	0	1	0.7	0.30000000000000004	2	6	1.4	1.8000000000000005	valid	0.5332044719980331	51200	0	0	2	53248	0	51200	1	53248	0	0.7	51200	turquoise	purple	0	2	ml	2.7.3	lorasick	sub-12_ses-01_task-ml_proj-lorasick_2021-02-24-13-56-01.903383
242	12	1	5	243	stable	8	200	43	vs	turquoise	purple	purple	turquoise	right	left	0.30000000000000004	0.7	2	2	0.6000000000000001	1.4	0	1	0.7	0.30000000000000004	2	2	1.4	0.6000000000000001	valid	0.5165433039983327	51200	0	0	2	51200	1	51200	1	53248	0	0.7	51200	turquoise	purple	1	2	ml	2.7.3	lorasick	sub-12_ses-01_task-ml_proj-lorasick_2021-02-24-13-56-01.903383
243	12	1	5	244	stable	8	200	44	vs	purple	turquoise	purple	turquoise	left	right	0.30000000000000004	0.7	6	4	1.8000000000000005	2.8	0	1	0.30000000000000004	0.7	6	4	1.8000000000000005	2.8	valid	0.8497995889993035	53248	0	1	2	53248	1	53248	1	51200	0	0.7	53248	turquoise	purple	0	4	ml	2.7.3	lorasick	sub-12_ses-01_task-ml_proj-lorasick_2021-02-24-13-56-01.903383
244	12	1	5	245	stable	8	200	45	vs	purple	turquoise	purple	turquoise	left	right	0.30000000000000004	0.7	6	4	1.8000000000000005	2.8	0	1	0.30000000000000004	0.7	6	4	1.8000000000000005	2.8	valid	0.5832346700008202	53248	0	1	2	53248	1	53248	1	51200	0	0.7	53248	turquoise	purple	0	4	ml	2.7.3	lorasick	sub-12_ses-01_task-ml_proj-lorasick_2021-02-24-13-56-01.903383
245	12	1	5	246	stable	8	200	46	vs	purple	turquoise	purple	turquoise	left	right	0.30000000000000004	0.7	6	4	1.8000000000000005	2.8	1	0	0.30000000000000004	0.7	6	4	1.8000000000000005	2.8	invalid	0.5998613849988033	53248	0	1	2	53248	1	53248	1	51200	0	0.7	53248	turquoise	purple	0	0	ml	2.7.3	lorasick	sub-12_ses-01_task-ml_proj-lorasick_2021-02-24-13-56-01.903383
246	12	1	5	247	stable	8	200	47	vs	purple	turquoise	purple	turquoise	left	right	0.30000000000000004	0.7	2	4	0.6000000000000001	2.8	0	1	0.30000000000000004	0.7	2	4	0.6000000000000001	2.8	valid	0.5165423559992632	51200	0	0	1	53248	0	53248	0	53248	0	0.7	53248	turquoise	purple	1	0	ml	2.7.3	lorasick	sub-12_ses-01_task-ml_proj-lorasick_2021-02-24-13-56-01.903383
247	12	1	5	248	stable	8	200	48	vs	purple	turquoise	purple	turquoise	left	right	0.30000000000000004	0.7	6	4	1.8000000000000005	2.8	0	1	0.30000000000000004	0.7	6	4	1.8000000000000005	2.8	valid	0.5998505879979348	51200	0	0	1	53248	0	53248	0	51200	1	0.7	53248	turquoise	purple	0	0	ml	2.7.3	lorasick	sub-12_ses-01_task-ml_proj-lorasick_2021-02-24-13-56-01.903383
248	12	1	5	249	stable	8	200	49	vs	turquoise	purple	purple	turquoise	right	left	0.30000000000000004	0.7	10	2	3.0000000000000004	1.4	0	1	0.7	0.30000000000000004	2	10	1.4	3.0000000000000004	valid	0.3999113090030733	51200	0	0	2	53248	0	51200	1	53248	0	0.7	51200	turquoise	purple	0	2	ml	2.7.3	lorasick	sub-12_ses-01_task-ml_proj-lorasick_2021-02-24-13-56-01.903383
249	12	1	5	250	stable	8	200	50	vs	purple	turquoise	purple	turquoise	left	right	0.30000000000000004	0.7	6	2	1.8000000000000005	1.4	0	1	0.30000000000000004	0.7	6	2	1.8000000000000005	1.4	valid	0.5498862509994069	53248	0	1	2	51200	0	53248	1	51200	0	0.7	53248	turquoise	purple	0	2	ml	2.7.3	lorasick	sub-12_ses-01_task-ml_proj-lorasick_2021-02-24-13-56-01.903383
250	12	1	6	251	stable	8	200	51	vs	purple	turquoise	purple	turquoise	left	right	0.30000000000000004	0.7	6	6	1.8000000000000005	4.199999999999998	0	1	0.30000000000000004	0.7	6	6	1.8000000000000005	4.199999999999998	valid	0.6498503639995761	53248	0	1	2	53248	1	53248	1	53248	1	0.7	53248	turquoise	purple	0	6	ml	2.7.3	lorasick	sub-12_ses-01_task-ml_proj-lorasick_2021-02-24-13-56-01.903383
251	12	1	6	252	stable	8	200	52	vs	purple	turquoise	purple	turquoise	left	right	0.30000000000000004	0.7	2	4	0.6000000000000001	2.8	1	0	0.30000000000000004	0.7	2	4	0.6000000000000001	2.8	invalid	0.4165834579980583	53248	0	1	2	53248	1	53248	1	53248	1	0.7	53248	turquoise	purple	1	0	ml	2.7.3	lorasick	sub-12_ses-01_task-ml_proj-lorasick_2021-02-24-13-56-01.903383
252	12	1	6	253	stable	8	200	53	vs	purple	turquoise	purple	turquoise	left	right	0.30000000000000004	0.7	2	2	0.6000000000000001	1.4	0	1	0.30000000000000004	0.7	2	2	0.6000000000000001	1.4	valid	0.3832597549990169	53248	0	1	2	53248	1	53248	1	53248	1	0.7	53248	turquoise	purple	0	2	ml	2.7.3	lorasick	sub-12_ses-01_task-ml_proj-lorasick_2021-02-24-13-56-01.903383
253	12	1	6	254	stable	8	200	54	vs	turquoise	purple	purple	turquoise	right	left	0.30000000000000004	0.7	10	2	3.0000000000000004	1.4	1	0	0.7	0.30000000000000004	2	10	1.4	3.0000000000000004	invalid	0.3499255839997204	51200	0	0	2	53248	0	51200	1	53248	0	0.7	51200	turquoise	purple	0	0	ml	2.7.3	lorasick	sub-12_ses-01_task-ml_proj-lorasick_2021-02-24-13-56-01.903383
254	12	1	6	255	stable	8	200	55	vs	turquoise	purple	purple	turquoise	right	left	0.30000000000000004	0.7	2	10	0.6000000000000001	7.0	0	1	0.7	0.30000000000000004	10	2	7.0	0.6000000000000001	valid	0.5998657449999882	51200	0	0	2	51200	1	51200	1	51200	1	0.7	51200	turquoise	purple	1	10	ml	2.7.3	lorasick	sub-12_ses-01_task-ml_proj-lorasick_2021-02-24-13-56-01.903383
255	12	1	6	256	stable	8	200	56	vs	turquoise	purple	purple	turquoise	right	left	0.30000000000000004	0.7	2	6	0.6000000000000001	4.199999999999998	1	0	0.7	0.30000000000000004	6	2	4.199999999999998	0.6000000000000001	invalid	0.3832494570015115	51200	0	0	2	51200	1	51200	1	51200	1	0.7	51200	turquoise	purple	1	0	ml	2.7.3	lorasick	sub-12_ses-01_task-ml_proj-lorasick_2021-02-24-13-56-01.903383
256	12	1	6	257	stable	8	200	57	vs	turquoise	purple	purple	turquoise	right	left	0.30000000000000004	0.7	2	10	0.6000000000000001	7.0	0	1	0.7	0.30000000000000004	10	2	7.0	0.6000000000000001	valid	0.8997665269998834	51200	0	0	2	51200	1	51200	1	51200	1	0.7	51200	turquoise	purple	1	10	ml	2.7.3	lorasick	sub-12_ses-01_task-ml_proj-lorasick_2021-02-24-13-56-01.903383
257	12	1	6	258	stable	8	200	58	vs	turquoise	purple	purple	turquoise	right	left	0.30000000000000004	0.7	6	4	1.8000000000000005	2.8	0	1	0.7	0.30000000000000004	4	6	2.8	1.8000000000000005	valid	0.43324735499845707	53248	0	1	1	51200	0	51200	0	53248	1	0.7	51200	turquoise	purple	0	0	ml	2.7.3	lorasick	sub-12_ses-01_task-ml_proj-lorasick_2021-02-24-13-56-01.903383
258	12	1	6	259	stable	8	200	59	vs	purple	turquoise	purple	turquoise	left	right	0.30000000000000004	0.7	2	10	0.6000000000000001	7.0	0	1	0.30000000000000004	0.7	2	10	0.6000000000000001	7.0	valid	0.5831983780008159	53248	0	1	2	53248	1	53248	1	53248	1	0.7	53248	turquoise	purple	1	10	ml	2.7.3	lorasick	sub-12_ses-01_task-ml_proj-lorasick_2021-02-24-13-56-01.903383
259	12	1	6	260	stable	8	200	60	vs	purple	turquoise	purple	turquoise	left	right	0.30000000000000004	0.7	4	6	1.2000000000000002	4.199999999999998	0	1	0.30000000000000004	0.7	4	6	1.2000000000000002	4.199999999999998	valid	0.7165095870004734	51200	0	0	1	53248	0	53248	0	53248	0	0.7	53248	turquoise	purple	1	0	ml	2.7.3	lorasick	sub-12_ses-01_task-ml_proj-lorasick_2021-02-24-13-56-01.903383
260	12	1	6	261	stable	8	200	61	vs	purple	turquoise	purple	turquoise	left	right	0.30000000000000004	0.7	10	2	3.0000000000000004	1.4	0	1	0.30000000000000004	0.7	10	2	3.0000000000000004	1.4	valid	1.0164131370001996	53248	0	1	2	51200	0	53248	1	51200	0	0.7	53248	turquoise	purple	0	2	ml	2.7.3	lorasick	sub-12_ses-01_task-ml_proj-lorasick_2021-02-24-13-56-01.903383
261	12	1	6	262	stable	8	200	62	vs	turquoise	purple	purple	turquoise	right	left	0.30000000000000004	0.7	6	4	1.8000000000000005	2.8	0	1	0.7	0.30000000000000004	4	6	2.8	1.8000000000000005	valid	0.3832488320003904	51200	0	0	2	51200	1	51200	1	53248	0	0.7	51200	turquoise	purple	0	4	ml	2.7.3	lorasick	sub-12_ses-01_task-ml_proj-lorasick_2021-02-24-13-56-01.903383
262	12	1	6	263	stable	8	200	63	vs	purple	turquoise	purple	turquoise	left	right	0.30000000000000004	0.7	4	6	1.2000000000000002	4.199999999999998	0	1	0.30000000000000004	0.7	4	6	1.2000000000000002	4.199999999999998	valid	0.4998908239977027	53248	0	1	2	53248	1	53248	1	53248	1	0.7	53248	turquoise	purple	1	6	ml	2.7.3	lorasick	sub-12_ses-01_task-ml_proj-lorasick_2021-02-24-13-56-01.903383
263	12	1	6	264	stable	8	200	64	vs	purple	turquoise	purple	turquoise	left	right	0.30000000000000004	0.7	10	2	3.0000000000000004	1.4	0	1	0.30000000000000004	0.7	10	2	3.0000000000000004	1.4	valid	0.6331772109988378	51200	0	0	1	51200	1	53248	0	51200	1	0.7	53248	turquoise	purple	0	0	ml	2.7.3	lorasick	sub-12_ses-01_task-ml_proj-lorasick_2021-02-24-13-56-01.903383
264	12	1	6	265	stable	8	200	65	vs	turquoise	purple	purple	turquoise	right	left	0.30000000000000004	0.7	6	2	1.8000000000000005	1.4	0	1	0.7	0.30000000000000004	2	6	1.4	1.8000000000000005	valid	0.6498491460006335	53248	0	1	1	53248	1	51200	0	53248	1	0.7	51200	turquoise	purple	0	0	ml	2.7.3	lorasick	sub-12_ses-01_task-ml_proj-lorasick_2021-02-24-13-56-01.903383
265	12	1	6	266	stable	8	200	66	vs	purple	turquoise	purple	turquoise	left	right	0.30000000000000004	0.7	2	10	0.6000000000000001	7.0	0	1	0.30000000000000004	0.7	2	10	0.6000000000000001	7.0	valid	0.3832589410012588	53248	0	1	2	53248	1	53248	1	53248	1	0.7	53248	turquoise	purple	1	10	ml	2.7.3	lorasick	sub-12_ses-01_task-ml_proj-lorasick_2021-02-24-13-56-01.903383
266	12	1	6	267	stable	8	200	67	vs	turquoise	purple	purple	turquoise	right	left	0.30000000000000004	0.7	4	2	1.2000000000000002	1.4	0	1	0.7	0.30000000000000004	2	4	1.4	1.2000000000000002	valid	0.7331483230009326	51200	0	0	2	51200	1	51200	1	53248	0	0.7	51200	turquoise	purple	0	2	ml	2.7.3	lorasick	sub-12_ses-01_task-ml_proj-lorasick_2021-02-24-13-56-01.903383
267	12	1	6	268	stable	8	200	68	vs	turquoise	purple	purple	turquoise	right	left	0.30000000000000004	0.7	10	2	3.0000000000000004	1.4	0	1	0.7	0.30000000000000004	2	10	1.4	3.0000000000000004	valid	0.5332094190016505	51200	0	0	2	53248	0	51200	1	53248	0	0.7	51200	turquoise	purple	0	2	ml	2.7.3	lorasick	sub-12_ses-01_task-ml_proj-lorasick_2021-02-24-13-56-01.903383
268	12	1	6	269	stable	8	200	69	vs	purple	turquoise	purple	turquoise	left	right	0.30000000000000004	0.7	4	2	1.2000000000000002	1.4	0	1	0.30000000000000004	0.7	4	2	1.2000000000000002	1.4	valid	0.5665379729980486	53248	0	1	2	53248	1	53248	1	51200	0	0.7	53248	turquoise	purple	0	2	ml	2.7.3	lorasick	sub-12_ses-01_task-ml_proj-lorasick_2021-02-24-13-56-01.903383
269	12	1	6	270	stable	8	200	70	vs	purple	turquoise	purple	turquoise	left	right	0.30000000000000004	0.7	4	2	1.2000000000000002	1.4	1	0	0.30000000000000004	0.7	4	2	1.2000000000000002	1.4	invalid	0.4332410600000003	53248	0	1	2	53248	1	53248	1	51200	0	0.7	53248	turquoise	purple	0	0	ml	2.7.3	lorasick	sub-12_ses-01_task-ml_proj-lorasick_2021-02-24-13-56-01.903383
270	12	1	6	271	stable	8	200	71	vs	turquoise	purple	purple	turquoise	right	left	0.30000000000000004	0.7	2	6	0.6000000000000001	4.199999999999998	0	1	0.7	0.30000000000000004	6	2	4.199999999999998	0.6000000000000001	valid	0.4165699069999391	51200	0	0	2	51200	1	51200	1	51200	1	0.7	51200	turquoise	purple	1	6	ml	2.7.3	lorasick	sub-12_ses-01_task-ml_proj-lorasick_2021-02-24-13-56-01.903383
