Unnamed: 0	sub_id	ses_id	block_no	trial_no	phase_type	phase_no	phase_length	trialInPhase_no	phase_type_order	color_left	color_right	color1	color2	position1	position2	prob1	prob2	mag1	mag2	ev1	ev2	outcome1	outcome2	prob_left	prob_right	mag_left	mag_right	ev_left	ev_right	reward_validity	resp_time	resp_key	timeout	choice_side	choice	ev_corr_resp	ev_correct	prob_corr_resp	prob_correct	mag_corr_resp	mag_correct	high_prob	high_prob_side	high_prob_color	low_prob_color	no_brain	reward	name	version	proj_id	logFileID
0	18	2	1	1	stable	1	200	1	sv	red	blue	blue	red	right	left	0.7	0.30000000000000004	2	2	1.4	0.6000000000000001	0	1	0.30000000000000004	0.7	2	2	0.6000000000000001	1.4	invalid	0.6664927660003741	51200	0	0	2	53248	0	53248	0	53248	0	0.7	53248	blue	red	0	2	ml	2.7.3	bip	sub-18_ses-02_task-ml_proj-bip_2021-03-31-10-20-59.614156
1	18	2	1	2	stable	1	200	2	sv	red	blue	blue	red	right	left	0.7	0.30000000000000004	4	2	2.8	0.6000000000000001	1	0	0.30000000000000004	0.7	2	4	0.6000000000000001	2.8	valid	0.4332309539986454	51200	0	0	2	53248	0	53248	0	53248	0	0.7	53248	blue	red	1	0	ml	2.7.3	bip	sub-18_ses-02_task-ml_proj-bip_2021-03-31-10-20-59.614156
2	18	2	1	3	stable	1	200	3	sv	red	blue	blue	red	right	left	0.7	0.30000000000000004	2	2	1.4	0.6000000000000001	1	0	0.30000000000000004	0.7	2	2	0.6000000000000001	1.4	valid	0.5165378420006164	51200	0	0	2	53248	0	53248	0	53248	0	0.7	53248	blue	red	0	0	ml	2.7.3	bip	sub-18_ses-02_task-ml_proj-bip_2021-03-31-10-20-59.614156
3	18	2	1	4	stable	1	200	4	sv	blue	red	blue	red	left	right	0.7	0.30000000000000004	4	6	2.8	1.8000000000000005	0	1	0.7	0.30000000000000004	4	6	2.8	1.8000000000000005	invalid	0.4332290619986452	51200	0	0	1	51200	1	51200	1	53248	0	0.7	51200	blue	red	0	0	ml	2.7.3	bip	sub-18_ses-02_task-ml_proj-bip_2021-03-31-10-20-59.614156
4	18	2	1	5	stable	1	200	5	sv	blue	red	blue	red	left	right	0.7	0.30000000000000004	6	4	4.199999999999998	1.2000000000000002	0	1	0.7	0.30000000000000004	6	4	4.199999999999998	1.2000000000000002	invalid	0.3999040849994344	51200	0	0	1	51200	1	51200	1	51200	1	0.7	51200	blue	red	1	0	ml	2.7.3	bip	sub-18_ses-02_task-ml_proj-bip_2021-03-31-10-20-59.614156
5	18	2	1	6	stable	1	200	6	sv	red	blue	blue	red	right	left	0.7	0.30000000000000004	6	4	4.199999999999998	1.2000000000000002	1	0	0.30000000000000004	0.7	4	6	1.2000000000000002	4.199999999999998	valid	0.5332093180004449	51200	0	0	2	53248	0	53248	0	53248	0	0.7	53248	blue	red	1	0	ml	2.7.3	bip	sub-18_ses-02_task-ml_proj-bip_2021-03-31-10-20-59.614156
6	18	2	1	7	stable	1	200	7	sv	blue	red	blue	red	left	right	0.7	0.30000000000000004	4	2	2.8	0.6000000000000001	1	0	0.7	0.30000000000000004	4	2	2.8	0.6000000000000001	valid	0.5165389040012087	51200	0	0	1	51200	1	51200	1	51200	1	0.7	51200	blue	red	1	4	ml	2.7.3	bip	sub-18_ses-02_task-ml_proj-bip_2021-03-31-10-20-59.614156
7	18	2	1	8	stable	1	200	8	sv	red	blue	blue	red	right	left	0.7	0.30000000000000004	10	2	7.0	0.6000000000000001	1	0	0.30000000000000004	0.7	2	10	0.6000000000000001	7.0	valid	0.4165778209990094	53248	0	1	1	53248	1	53248	1	53248	1	0.7	53248	blue	red	1	10	ml	2.7.3	bip	sub-18_ses-02_task-ml_proj-bip_2021-03-31-10-20-59.614156
8	18	2	1	9	stable	1	200	9	sv	blue	red	blue	red	left	right	0.7	0.30000000000000004	2	2	1.4	0.6000000000000001	1	0	0.7	0.30000000000000004	2	2	1.4	0.6000000000000001	valid	0.4998765130003449	51200	0	0	1	51200	1	51200	1	53248	0	0.7	51200	blue	red	1	2	ml	2.7.3	bip	sub-18_ses-02_task-ml_proj-bip_2021-03-31-10-20-59.614156
9	18	2	1	10	stable	1	200	10	sv	blue	red	blue	red	left	right	0.7	0.30000000000000004	6	6	4.199999999999998	1.8000000000000005	1	0	0.7	0.30000000000000004	6	6	4.199999999999998	1.8000000000000005	valid	0.4832152170001791	51200	0	0	1	51200	1	51200	1	53248	0	0.7	51200	blue	red	1	6	ml	2.7.3	bip	sub-18_ses-02_task-ml_proj-bip_2021-03-31-10-20-59.614156
10	18	2	1	11	stable	1	200	11	sv	red	blue	blue	red	right	left	0.7	0.30000000000000004	6	6	4.199999999999998	1.8000000000000005	1	0	0.30000000000000004	0.7	6	6	1.8000000000000005	4.199999999999998	valid	0.4165774769990094	53248	0	1	1	53248	1	53248	1	53248	1	0.7	53248	blue	red	0	6	ml	2.7.3	bip	sub-18_ses-02_task-ml_proj-bip_2021-03-31-10-20-59.614156
11	18	2	1	12	stable	1	200	12	sv	blue	red	blue	red	left	right	0.7	0.30000000000000004	2	2	1.4	0.6000000000000001	0	1	0.7	0.30000000000000004	2	2	1.4	0.6000000000000001	invalid	0.4332201359993633	51200	0	0	1	51200	1	51200	1	53248	0	0.7	51200	blue	red	1	0	ml	2.7.3	bip	sub-18_ses-02_task-ml_proj-bip_2021-03-31-10-20-59.614156
12	18	2	1	13	stable	1	200	13	sv	blue	red	blue	red	left	right	0.7	0.30000000000000004	2	2	1.4	0.6000000000000001	1	0	0.7	0.30000000000000004	2	2	1.4	0.6000000000000001	valid	0.3999071729995194	51200	0	0	1	51200	1	51200	1	53248	0	0.7	51200	blue	red	1	2	ml	2.7.3	bip	sub-18_ses-02_task-ml_proj-bip_2021-03-31-10-20-59.614156
13	18	2	1	14	stable	1	200	14	sv	blue	red	blue	red	left	right	0.7	0.30000000000000004	4	2	2.8	0.6000000000000001	1	0	0.7	0.30000000000000004	4	2	2.8	0.6000000000000001	valid	0.3999082770005771	51200	0	0	1	51200	1	51200	1	51200	1	0.7	51200	blue	red	1	4	ml	2.7.3	bip	sub-18_ses-02_task-ml_proj-bip_2021-03-31-10-20-59.614156
14	18	2	1	15	stable	1	200	15	sv	blue	red	blue	red	left	right	0.7	0.30000000000000004	4	6	2.8	1.8000000000000005	1	0	0.7	0.30000000000000004	4	6	2.8	1.8000000000000005	valid	0.4165659749996848	51200	0	0	1	51200	1	51200	1	53248	0	0.7	51200	blue	red	0	4	ml	2.7.3	bip	sub-18_ses-02_task-ml_proj-bip_2021-03-31-10-20-59.614156
15	18	2	1	16	stable	1	200	16	sv	blue	red	blue	red	left	right	0.7	0.30000000000000004	10	2	7.0	0.6000000000000001	1	0	0.7	0.30000000000000004	10	2	7.0	0.6000000000000001	valid	0.3665843879989552	51200	0	0	1	51200	1	51200	1	51200	1	0.7	51200	blue	red	1	10	ml	2.7.3	bip	sub-18_ses-02_task-ml_proj-bip_2021-03-31-10-20-59.614156
16	18	2	1	17	stable	1	200	17	sv	blue	red	blue	red	left	right	0.7	0.30000000000000004	6	4	4.199999999999998	1.2000000000000002	1	0	0.7	0.30000000000000004	6	4	4.199999999999998	1.2000000000000002	valid	0.3665802359992085	51200	0	0	1	51200	1	51200	1	51200	1	0.7	51200	blue	red	1	6	ml	2.7.3	bip	sub-18_ses-02_task-ml_proj-bip_2021-03-31-10-20-59.614156
17	18	2	1	18	stable	1	200	18	sv	red	blue	blue	red	right	left	0.7	0.30000000000000004	6	6	4.199999999999998	1.8000000000000005	1	0	0.30000000000000004	0.7	6	6	1.8000000000000005	4.199999999999998	valid	0.4499029050002719	53248	0	1	1	53248	1	53248	1	53248	1	0.7	53248	blue	red	0	6	ml	2.7.3	bip	sub-18_ses-02_task-ml_proj-bip_2021-03-31-10-20-59.614156
18	18	2	1	19	stable	1	200	19	sv	red	blue	blue	red	right	left	0.7	0.30000000000000004	2	10	1.4	3.0000000000000004	1	0	0.30000000000000004	0.7	10	2	3.0000000000000004	1.4	valid	0.3832556100005604	53248	0	1	1	51200	0	53248	1	51200	0	0.7	53248	blue	red	0	2	ml	2.7.3	bip	sub-18_ses-02_task-ml_proj-bip_2021-03-31-10-20-59.614156
19	18	2	1	20	stable	1	200	20	sv	red	blue	blue	red	right	left	0.7	0.30000000000000004	4	2	2.8	0.6000000000000001	1	0	0.30000000000000004	0.7	2	4	0.6000000000000001	2.8	valid	0.3666009900007339	53248	0	1	1	53248	1	53248	1	53248	1	0.7	53248	blue	red	1	4	ml	2.7.3	bip	sub-18_ses-02_task-ml_proj-bip_2021-03-31-10-20-59.614156
20	18	2	1	21	stable	1	200	21	sv	blue	red	blue	red	left	right	0.7	0.30000000000000004	4	2	2.8	0.6000000000000001	1	0	0.7	0.30000000000000004	4	2	2.8	0.6000000000000001	valid	0.4332366270009516	51200	0	0	1	51200	1	51200	1	51200	1	0.7	51200	blue	red	1	4	ml	2.7.3	bip	sub-18_ses-02_task-ml_proj-bip_2021-03-31-10-20-59.614156
21	18	2	1	22	stable	1	200	22	sv	red	blue	blue	red	right	left	0.7	0.30000000000000004	4	6	2.8	1.8000000000000005	1	0	0.30000000000000004	0.7	6	4	1.8000000000000005	2.8	valid	0.34993323299931944	53248	0	1	1	53248	1	53248	1	51200	0	0.7	53248	blue	red	0	4	ml	2.7.3	bip	sub-18_ses-02_task-ml_proj-bip_2021-03-31-10-20-59.614156
22	18	2	1	23	stable	1	200	23	sv	red	blue	blue	red	right	left	0.7	0.30000000000000004	2	6	1.4	1.8000000000000005	0	1	0.30000000000000004	0.7	6	2	1.8000000000000005	1.4	invalid	0.3665930810002465	53248	0	1	1	51200	0	53248	1	51200	0	0.7	53248	blue	red	0	0	ml	2.7.3	bip	sub-18_ses-02_task-ml_proj-bip_2021-03-31-10-20-59.614156
23	18	2	1	24	stable	1	200	24	sv	red	blue	blue	red	right	left	0.7	0.30000000000000004	6	6	4.199999999999998	1.8000000000000005	1	0	0.30000000000000004	0.7	6	6	1.8000000000000005	4.199999999999998	valid	0.2999556989998382	53248	0	1	1	53248	1	53248	1	53248	1	0.7	53248	blue	red	0	6	ml	2.7.3	bip	sub-18_ses-02_task-ml_proj-bip_2021-03-31-10-20-59.614156
24	18	2	1	25	stable	1	200	25	sv	red	blue	blue	red	right	left	0.7	0.30000000000000004	2	4	1.4	1.2000000000000002	1	0	0.30000000000000004	0.7	4	2	1.2000000000000002	1.4	valid	0.3832556710003701	53248	0	1	1	53248	1	53248	1	51200	0	0.7	53248	blue	red	0	2	ml	2.7.3	bip	sub-18_ses-02_task-ml_proj-bip_2021-03-31-10-20-59.614156
25	18	2	1	26	stable	1	200	26	sv	blue	red	blue	red	left	right	0.7	0.30000000000000004	2	10	1.4	3.0000000000000004	1	0	0.7	0.30000000000000004	2	10	1.4	3.0000000000000004	valid	0.43322755400004104	51200	0	0	1	53248	0	51200	1	53248	0	0.7	51200	blue	red	0	2	ml	2.7.3	bip	sub-18_ses-02_task-ml_proj-bip_2021-03-31-10-20-59.614156
26	18	2	1	27	stable	1	200	27	sv	blue	red	blue	red	left	right	0.7	0.30000000000000004	2	4	1.4	1.2000000000000002	1	0	0.7	0.30000000000000004	2	4	1.4	1.2000000000000002	valid	0.4332315430001472	51200	0	0	1	51200	1	51200	1	53248	0	0.7	51200	blue	red	0	2	ml	2.7.3	bip	sub-18_ses-02_task-ml_proj-bip_2021-03-31-10-20-59.614156
27	18	2	1	28	stable	1	200	28	sv	blue	red	blue	red	left	right	0.7	0.30000000000000004	2	10	1.4	3.0000000000000004	1	0	0.7	0.30000000000000004	2	10	1.4	3.0000000000000004	valid	0.3999048670011689	51200	0	0	1	53248	0	51200	1	53248	0	0.7	51200	blue	red	0	2	ml	2.7.3	bip	sub-18_ses-02_task-ml_proj-bip_2021-03-31-10-20-59.614156
28	18	2	1	29	stable	1	200	29	sv	blue	red	blue	red	left	right	0.7	0.30000000000000004	6	6	4.199999999999998	1.8000000000000005	0	1	0.7	0.30000000000000004	6	6	4.199999999999998	1.8000000000000005	invalid	0.3999064620002173	51200	0	0	1	51200	1	51200	1	53248	0	0.7	51200	blue	red	1	0	ml	2.7.3	bip	sub-18_ses-02_task-ml_proj-bip_2021-03-31-10-20-59.614156
29	18	2	1	30	stable	1	200	30	sv	blue	red	blue	red	left	right	0.7	0.30000000000000004	2	4	1.4	1.2000000000000002	1	0	0.7	0.30000000000000004	2	4	1.4	1.2000000000000002	valid	0.4665528639998229	51200	0	0	1	51200	1	51200	1	53248	0	0.7	51200	blue	red	0	2	ml	2.7.3	bip	sub-18_ses-02_task-ml_proj-bip_2021-03-31-10-20-59.614156
30	18	2	1	31	stable	1	200	31	sv	red	blue	blue	red	right	left	0.7	0.30000000000000004	2	10	1.4	3.0000000000000004	0	1	0.30000000000000004	0.7	10	2	3.0000000000000004	1.4	invalid	0.3999141830008739	53248	0	1	1	51200	0	53248	1	51200	0	0.7	53248	blue	red	0	0	ml	2.7.3	bip	sub-18_ses-02_task-ml_proj-bip_2021-03-31-10-20-59.614156
31	18	2	1	32	stable	1	200	32	sv	blue	red	blue	red	left	right	0.7	0.30000000000000004	4	6	2.8	1.8000000000000005	0	1	0.7	0.30000000000000004	4	6	2.8	1.8000000000000005	invalid	0.41656672799945227	51200	0	0	1	51200	1	51200	1	53248	0	0.7	51200	blue	red	0	0	ml	2.7.3	bip	sub-18_ses-02_task-ml_proj-bip_2021-03-31-10-20-59.614156
32	18	2	1	33	stable	1	200	33	sv	red	blue	blue	red	right	left	0.7	0.30000000000000004	6	6	4.199999999999998	1.8000000000000005	1	0	0.30000000000000004	0.7	6	6	1.8000000000000005	4.199999999999998	valid	0.4165665069995157	51200	0	0	2	53248	0	53248	0	53248	0	0.7	53248	blue	red	0	0	ml	2.7.3	bip	sub-18_ses-02_task-ml_proj-bip_2021-03-31-10-20-59.614156
33	18	2	1	34	stable	1	200	34	sv	red	blue	blue	red	right	left	0.7	0.30000000000000004	2	2	1.4	0.6000000000000001	0	1	0.30000000000000004	0.7	2	2	0.6000000000000001	1.4	invalid	0.4332280710004852	51200	0	0	2	53248	0	53248	0	53248	0	0.7	53248	blue	red	0	2	ml	2.7.3	bip	sub-18_ses-02_task-ml_proj-bip_2021-03-31-10-20-59.614156
34	18	2	1	35	stable	1	200	35	sv	red	blue	blue	red	right	left	0.7	0.30000000000000004	6	6	4.199999999999998	1.8000000000000005	0	1	0.30000000000000004	0.7	6	6	1.8000000000000005	4.199999999999998	invalid	0.4332324120005069	51200	0	0	2	53248	0	53248	0	53248	0	0.7	53248	blue	red	0	6	ml	2.7.3	bip	sub-18_ses-02_task-ml_proj-bip_2021-03-31-10-20-59.614156
35	18	2	1	36	stable	1	200	36	sv	red	blue	blue	red	right	left	0.7	0.30000000000000004	2	4	1.4	1.2000000000000002	1	0	0.30000000000000004	0.7	4	2	1.2000000000000002	1.4	valid	0.4998760529997526	51200	0	0	2	53248	0	53248	0	51200	1	0.7	53248	blue	red	0	0	ml	2.7.3	bip	sub-18_ses-02_task-ml_proj-bip_2021-03-31-10-20-59.614156
36	18	2	1	37	stable	1	200	37	sv	blue	red	blue	red	left	right	0.7	0.30000000000000004	4	6	2.8	1.8000000000000005	0	1	0.7	0.30000000000000004	4	6	2.8	1.8000000000000005	invalid	0.3999149629999009	53248	0	1	2	51200	0	51200	0	53248	1	0.7	51200	blue	red	0	6	ml	2.7.3	bip	sub-18_ses-02_task-ml_proj-bip_2021-03-31-10-20-59.614156
37	18	2	1	38	stable	1	200	38	sv	blue	red	blue	red	left	right	0.7	0.30000000000000004	2	6	1.4	1.8000000000000005	1	0	0.7	0.30000000000000004	2	6	1.4	1.8000000000000005	valid	0.3999105689999851	53248	0	1	2	53248	1	51200	0	53248	1	0.7	51200	blue	red	0	0	ml	2.7.3	bip	sub-18_ses-02_task-ml_proj-bip_2021-03-31-10-20-59.614156
38	18	2	1	39	stable	1	200	39	sv	blue	red	blue	red	left	right	0.7	0.30000000000000004	6	2	4.199999999999998	0.6000000000000001	1	0	0.7	0.30000000000000004	6	2	4.199999999999998	0.6000000000000001	valid	0.43323982899892144	53248	0	1	2	51200	0	51200	0	51200	0	0.7	51200	blue	red	1	0	ml	2.7.3	bip	sub-18_ses-02_task-ml_proj-bip_2021-03-31-10-20-59.614156
39	18	2	1	40	stable	1	200	40	sv	red	blue	blue	red	right	left	0.7	0.30000000000000004	4	2	2.8	0.6000000000000001	1	0	0.30000000000000004	0.7	2	4	0.6000000000000001	2.8	valid	0.3999160460007261	53248	0	1	1	53248	1	53248	1	53248	1	0.7	53248	blue	red	1	4	ml	2.7.3	bip	sub-18_ses-02_task-ml_proj-bip_2021-03-31-10-20-59.614156
40	18	2	1	41	stable	1	200	41	sv	blue	red	blue	red	left	right	0.7	0.30000000000000004	10	2	7.0	0.6000000000000001	1	0	0.7	0.30000000000000004	10	2	7.0	0.6000000000000001	valid	0.4332285559994489	51200	0	0	1	51200	1	51200	1	51200	1	0.7	51200	blue	red	1	10	ml	2.7.3	bip	sub-18_ses-02_task-ml_proj-bip_2021-03-31-10-20-59.614156
41	18	2	1	42	stable	1	200	42	sv	red	blue	blue	red	right	left	0.7	0.30000000000000004	6	6	4.199999999999998	1.8000000000000005	0	1	0.30000000000000004	0.7	6	6	1.8000000000000005	4.199999999999998	invalid	0.3499299600007362	53248	0	1	1	53248	1	53248	1	53248	1	0.7	53248	blue	red	0	0	ml	2.7.3	bip	sub-18_ses-02_task-ml_proj-bip_2021-03-31-10-20-59.614156
42	18	2	1	43	stable	1	200	43	sv	blue	red	blue	red	left	right	0.7	0.30000000000000004	2	2	1.4	0.6000000000000001	1	0	0.7	0.30000000000000004	2	2	1.4	0.6000000000000001	valid	0.5165368100006162	51200	0	0	1	51200	1	51200	1	53248	0	0.7	51200	blue	red	1	2	ml	2.7.3	bip	sub-18_ses-02_task-ml_proj-bip_2021-03-31-10-20-59.614156
43	18	2	1	44	stable	1	200	44	sv	blue	red	blue	red	left	right	0.7	0.30000000000000004	6	6	4.199999999999998	1.8000000000000005	0	1	0.7	0.30000000000000004	6	6	4.199999999999998	1.8000000000000005	invalid	0.9164191559993924	51200	0	0	1	51200	1	51200	1	53248	0	0.7	51200	blue	red	1	0	ml	2.7.3	bip	sub-18_ses-02_task-ml_proj-bip_2021-03-31-10-20-59.614156
44	18	2	1	45	stable	1	200	45	sv	blue	red	blue	red	left	right	0.7	0.30000000000000004	2	10	1.4	3.0000000000000004	1	0	0.7	0.30000000000000004	2	10	1.4	3.0000000000000004	valid	0.5498706449998281	53248	0	1	2	53248	1	51200	0	53248	1	0.7	51200	blue	red	0	0	ml	2.7.3	bip	sub-18_ses-02_task-ml_proj-bip_2021-03-31-10-20-59.614156
45	18	2	1	46	stable	1	200	46	sv	blue	red	blue	red	left	right	0.7	0.30000000000000004	6	2	4.199999999999998	0.6000000000000001	0	1	0.7	0.30000000000000004	6	2	4.199999999999998	0.6000000000000001	invalid	0.41657573900010897	51200	0	0	1	51200	1	51200	1	51200	1	0.7	51200	blue	red	1	0	ml	2.7.3	bip	sub-18_ses-02_task-ml_proj-bip_2021-03-31-10-20-59.614156
46	18	2	1	47	stable	1	200	47	sv	blue	red	blue	red	left	right	0.7	0.30000000000000004	2	6	1.4	1.8000000000000005	1	0	0.7	0.30000000000000004	2	6	1.4	1.8000000000000005	valid	0.4498922830007359	51200	0	0	1	53248	0	51200	1	53248	0	0.7	51200	blue	red	0	2	ml	2.7.3	bip	sub-18_ses-02_task-ml_proj-bip_2021-03-31-10-20-59.614156
47	18	2	1	48	stable	1	200	48	sv	blue	red	blue	red	left	right	0.7	0.30000000000000004	6	6	4.199999999999998	1.8000000000000005	1	0	0.7	0.30000000000000004	6	6	4.199999999999998	1.8000000000000005	valid	0.3999059100005979	51200	0	0	1	51200	1	51200	1	53248	0	0.7	51200	blue	red	1	6	ml	2.7.3	bip	sub-18_ses-02_task-ml_proj-bip_2021-03-31-10-20-59.614156
48	18	2	1	49	stable	1	200	49	sv	blue	red	blue	red	left	right	0.7	0.30000000000000004	2	4	1.4	1.2000000000000002	1	0	0.7	0.30000000000000004	2	4	1.4	1.2000000000000002	valid	0.4498888120015181	51200	0	0	1	51200	1	51200	1	53248	0	0.7	51200	blue	red	0	2	ml	2.7.3	bip	sub-18_ses-02_task-ml_proj-bip_2021-03-31-10-20-59.614156
49	18	2	1	50	stable	1	200	50	sv	red	blue	blue	red	right	left	0.7	0.30000000000000004	2	2	1.4	0.6000000000000001	1	0	0.30000000000000004	0.7	2	2	0.6000000000000001	1.4	valid	0.3499397929990664	53248	0	1	1	53248	1	53248	1	53248	1	0.7	53248	blue	red	0	2	ml	2.7.3	bip	sub-18_ses-02_task-ml_proj-bip_2021-03-31-10-20-59.614156
50	18	2	2	51	stable	1	200	51	sv	red	blue	blue	red	right	left	0.7	0.30000000000000004	2	2	1.4	0.6000000000000001	0	1	0.30000000000000004	0.7	2	2	0.6000000000000001	1.4	invalid	0.49988796700017696	53248	0	1	1	53248	1	53248	1	53248	1	0.7	53248	blue	red	0	0	ml	2.7.3	bip	sub-18_ses-02_task-ml_proj-bip_2021-03-31-10-20-59.614156
51	18	2	2	52	stable	1	200	52	sv	blue	red	blue	red	left	right	0.7	0.30000000000000004	2	6	1.4	1.8000000000000005	0	1	0.7	0.30000000000000004	2	6	1.4	1.8000000000000005	invalid	0.4998775709991605	51200	0	0	1	53248	0	51200	1	53248	0	0.7	51200	blue	red	0	0	ml	2.7.3	bip	sub-18_ses-02_task-ml_proj-bip_2021-03-31-10-20-59.614156
52	18	2	2	53	stable	1	200	53	sv	red	blue	blue	red	right	left	0.7	0.30000000000000004	6	6	4.199999999999998	1.8000000000000005	0	1	0.30000000000000004	0.7	6	6	1.8000000000000005	4.199999999999998	invalid	0.3499186749995715	51200	0	0	2	53248	0	53248	0	53248	0	0.7	53248	blue	red	0	6	ml	2.7.3	bip	sub-18_ses-02_task-ml_proj-bip_2021-03-31-10-20-59.614156
53	18	2	2	54	stable	1	200	54	sv	red	blue	blue	red	right	left	0.7	0.30000000000000004	4	6	2.8	1.8000000000000005	1	0	0.30000000000000004	0.7	6	4	1.8000000000000005	2.8	valid	0.4165652060000866	51200	0	0	2	53248	0	53248	0	51200	1	0.7	53248	blue	red	0	0	ml	2.7.3	bip	sub-18_ses-02_task-ml_proj-bip_2021-03-31-10-20-59.614156
54	18	2	2	55	stable	1	200	55	sv	blue	red	blue	red	left	right	0.7	0.30000000000000004	2	6	1.4	1.8000000000000005	1	0	0.7	0.30000000000000004	2	6	1.4	1.8000000000000005	valid	0.3499309480012016	53248	0	1	2	53248	1	51200	0	53248	1	0.7	51200	blue	red	0	0	ml	2.7.3	bip	sub-18_ses-02_task-ml_proj-bip_2021-03-31-10-20-59.614156
55	18	2	2	56	stable	1	200	56	sv	blue	red	blue	red	left	right	0.7	0.30000000000000004	2	4	1.4	1.2000000000000002	1	0	0.7	0.30000000000000004	2	4	1.4	1.2000000000000002	valid	0.31661041300139914	53248	0	1	2	51200	0	51200	0	53248	1	0.7	51200	blue	red	0	0	ml	2.7.3	bip	sub-18_ses-02_task-ml_proj-bip_2021-03-31-10-20-59.614156
56	18	2	2	57	stable	1	200	57	sv	blue	red	blue	red	left	right	0.7	0.30000000000000004	4	6	2.8	1.8000000000000005	1	0	0.7	0.30000000000000004	4	6	2.8	1.8000000000000005	valid	0.3999030560007668	51200	0	0	1	51200	1	51200	1	53248	0	0.7	51200	blue	red	0	4	ml	2.7.3	bip	sub-18_ses-02_task-ml_proj-bip_2021-03-31-10-20-59.614156
57	18	2	2	58	stable	1	200	58	sv	red	blue	blue	red	right	left	0.7	0.30000000000000004	4	6	2.8	1.8000000000000005	0	1	0.30000000000000004	0.7	6	4	1.8000000000000005	2.8	invalid	0.3499340630005463	53248	0	1	1	53248	1	53248	1	51200	0	0.7	53248	blue	red	0	0	ml	2.7.3	bip	sub-18_ses-02_task-ml_proj-bip_2021-03-31-10-20-59.614156
58	18	2	2	59	stable	1	200	59	sv	blue	red	blue	red	left	right	0.7	0.30000000000000004	6	4	4.199999999999998	1.2000000000000002	1	0	0.7	0.30000000000000004	6	4	4.199999999999998	1.2000000000000002	valid	0.3832426669996494	51200	0	0	1	51200	1	51200	1	51200	1	0.7	51200	blue	red	1	6	ml	2.7.3	bip	sub-18_ses-02_task-ml_proj-bip_2021-03-31-10-20-59.614156
59	18	2	2	60	stable	1	200	60	sv	blue	red	blue	red	left	right	0.7	0.30000000000000004	6	2	4.199999999999998	0.6000000000000001	0	1	0.7	0.30000000000000004	6	2	4.199999999999998	0.6000000000000001	invalid	0.33325813400006155	51200	0	0	1	51200	1	51200	1	51200	1	0.7	51200	blue	red	1	0	ml	2.7.3	bip	sub-18_ses-02_task-ml_proj-bip_2021-03-31-10-20-59.614156
60	18	2	2	61	stable	1	200	61	sv	red	blue	blue	red	right	left	0.7	0.30000000000000004	4	6	2.8	1.8000000000000005	0	1	0.30000000000000004	0.7	6	4	1.8000000000000005	2.8	invalid	0.33327013500093017	53248	0	1	1	53248	1	53248	1	51200	0	0.7	53248	blue	red	0	0	ml	2.7.3	bip	sub-18_ses-02_task-ml_proj-bip_2021-03-31-10-20-59.614156
61	18	2	2	62	stable	1	200	62	sv	blue	red	blue	red	left	right	0.7	0.30000000000000004	4	2	2.8	0.6000000000000001	1	0	0.7	0.30000000000000004	4	2	2.8	0.6000000000000001	valid	0.3999064769996039	51200	0	0	1	51200	1	51200	1	51200	1	0.7	51200	blue	red	1	4	ml	2.7.3	bip	sub-18_ses-02_task-ml_proj-bip_2021-03-31-10-20-59.614156
62	18	2	2	63	stable	1	200	63	sv	red	blue	blue	red	right	left	0.7	0.30000000000000004	4	6	2.8	1.8000000000000005	0	1	0.30000000000000004	0.7	6	4	1.8000000000000005	2.8	invalid	0.3999150609997741	53248	0	1	1	53248	1	53248	1	51200	0	0.7	53248	blue	red	0	0	ml	2.7.3	bip	sub-18_ses-02_task-ml_proj-bip_2021-03-31-10-20-59.614156
63	18	2	2	64	stable	1	200	64	sv	blue	red	blue	red	left	right	0.7	0.30000000000000004	2	4	1.4	1.2000000000000002	1	0	0.7	0.30000000000000004	2	4	1.4	1.2000000000000002	valid	0.4832068140003685	51200	0	0	1	51200	1	51200	1	53248	0	0.7	51200	blue	red	0	2	ml	2.7.3	bip	sub-18_ses-02_task-ml_proj-bip_2021-03-31-10-20-59.614156
64	18	2	2	65	stable	1	200	65	sv	red	blue	blue	red	right	left	0.7	0.30000000000000004	2	6	1.4	1.8000000000000005	1	0	0.30000000000000004	0.7	6	2	1.8000000000000005	1.4	valid	0.33327005699902656	53248	0	1	1	51200	0	53248	1	51200	0	0.7	53248	blue	red	0	2	ml	2.7.3	bip	sub-18_ses-02_task-ml_proj-bip_2021-03-31-10-20-59.614156
65	18	2	2	66	stable	1	200	66	sv	blue	red	blue	red	left	right	0.7	0.30000000000000004	2	2	1.4	0.6000000000000001	0	1	0.7	0.30000000000000004	2	2	1.4	0.6000000000000001	invalid	0.4332293979987297	51200	0	0	1	51200	1	51200	1	53248	0	0.7	51200	blue	red	1	0	ml	2.7.3	bip	sub-18_ses-02_task-ml_proj-bip_2021-03-31-10-20-59.614156
66	18	2	2	67	stable	1	200	67	sv	red	blue	blue	red	right	left	0.7	0.30000000000000004	6	2	4.199999999999998	0.6000000000000001	1	0	0.30000000000000004	0.7	2	6	0.6000000000000001	4.199999999999998	valid	0.3832573959989531	53248	0	1	1	53248	1	53248	1	53248	1	0.7	53248	blue	red	1	6	ml	2.7.3	bip	sub-18_ses-02_task-ml_proj-bip_2021-03-31-10-20-59.614156
67	18	2	2	68	stable	1	200	68	sv	red	blue	blue	red	right	left	0.7	0.30000000000000004	2	6	1.4	1.8000000000000005	1	0	0.30000000000000004	0.7	6	2	1.8000000000000005	1.4	valid	0.4165759490006167	53248	0	1	1	51200	0	53248	1	51200	0	0.7	53248	blue	red	0	2	ml	2.7.3	bip	sub-18_ses-02_task-ml_proj-bip_2021-03-31-10-20-59.614156
68	18	2	2	69	stable	1	200	69	sv	red	blue	blue	red	right	left	0.7	0.30000000000000004	2	4	1.4	1.2000000000000002	0	1	0.30000000000000004	0.7	4	2	1.2000000000000002	1.4	invalid	0.29994726400036603	53248	0	1	1	53248	1	53248	1	51200	0	0.7	53248	blue	red	0	0	ml	2.7.3	bip	sub-18_ses-02_task-ml_proj-bip_2021-03-31-10-20-59.614156
69	18	2	2	70	stable	1	200	70	sv	red	blue	blue	red	right	left	0.7	0.30000000000000004	2	4	1.4	1.2000000000000002	0	1	0.30000000000000004	0.7	4	2	1.2000000000000002	1.4	invalid	0.3999146730002394	53248	0	1	1	53248	1	53248	1	51200	0	0.7	53248	blue	red	0	0	ml	2.7.3	bip	sub-18_ses-02_task-ml_proj-bip_2021-03-31-10-20-59.614156
70	18	2	2	71	stable	1	200	71	sv	red	blue	blue	red	right	left	0.7	0.30000000000000004	2	10	1.4	3.0000000000000004	1	0	0.30000000000000004	0.7	10	2	3.0000000000000004	1.4	valid	0.3999003919998359	51200	0	0	2	51200	1	53248	0	51200	1	0.7	53248	blue	red	0	0	ml	2.7.3	bip	sub-18_ses-02_task-ml_proj-bip_2021-03-31-10-20-59.614156
71	18	2	2	72	stable	1	200	72	sv	blue	red	blue	red	left	right	0.7	0.30000000000000004	10	2	7.0	0.6000000000000001	1	0	0.7	0.30000000000000004	10	2	7.0	0.6000000000000001	valid	0.416599893998864	51200	0	0	1	51200	1	51200	1	51200	1	0.7	51200	blue	red	1	10	ml	2.7.3	bip	sub-18_ses-02_task-ml_proj-bip_2021-03-31-10-20-59.614156
72	18	2	2	73	stable	1	200	73	sv	red	blue	blue	red	right	left	0.7	0.30000000000000004	2	6	1.4	1.8000000000000005	1	0	0.30000000000000004	0.7	6	2	1.8000000000000005	1.4	valid	0.33327338399976725	53248	0	1	1	51200	0	53248	1	51200	0	0.7	53248	blue	red	0	2	ml	2.7.3	bip	sub-18_ses-02_task-ml_proj-bip_2021-03-31-10-20-59.614156
73	18	2	2	74	stable	1	200	74	sv	blue	red	blue	red	left	right	0.7	0.30000000000000004	2	6	1.4	1.8000000000000005	1	0	0.7	0.30000000000000004	2	6	1.4	1.8000000000000005	valid	0.3999040740000055	51200	0	0	1	53248	0	51200	1	53248	0	0.7	51200	blue	red	0	2	ml	2.7.3	bip	sub-18_ses-02_task-ml_proj-bip_2021-03-31-10-20-59.614156
74	18	2	2	75	stable	1	200	75	sv	red	blue	blue	red	right	left	0.7	0.30000000000000004	6	4	4.199999999999998	1.2000000000000002	0	1	0.30000000000000004	0.7	4	6	1.2000000000000002	4.199999999999998	invalid	0.3832567429999472	53248	0	1	1	53248	1	53248	1	53248	1	0.7	53248	blue	red	1	0	ml	2.7.3	bip	sub-18_ses-02_task-ml_proj-bip_2021-03-31-10-20-59.614156
75	18	2	2	76	stable	1	200	76	sv	blue	red	blue	red	left	right	0.7	0.30000000000000004	6	2	4.199999999999998	0.6000000000000001	0	1	0.7	0.30000000000000004	6	2	4.199999999999998	0.6000000000000001	invalid	0.36657579600068857	51200	0	0	1	51200	1	51200	1	51200	1	0.7	51200	blue	red	1	0	ml	2.7.3	bip	sub-18_ses-02_task-ml_proj-bip_2021-03-31-10-20-59.614156
76	18	2	2	77	stable	1	200	77	sv	blue	red	blue	red	left	right	0.7	0.30000000000000004	2	2	1.4	0.6000000000000001	1	0	0.7	0.30000000000000004	2	2	1.4	0.6000000000000001	valid	0.41656571899875416	51200	0	0	1	51200	1	51200	1	53248	0	0.7	51200	blue	red	1	2	ml	2.7.3	bip	sub-18_ses-02_task-ml_proj-bip_2021-03-31-10-20-59.614156
77	18	2	2	78	stable	1	200	78	sv	blue	red	blue	red	left	right	0.7	0.30000000000000004	6	4	4.199999999999998	1.2000000000000002	1	0	0.7	0.30000000000000004	6	4	4.199999999999998	1.2000000000000002	valid	0.3499201290014753	51200	0	0	1	51200	1	51200	1	51200	1	0.7	51200	blue	red	1	6	ml	2.7.3	bip	sub-18_ses-02_task-ml_proj-bip_2021-03-31-10-20-59.614156
78	18	2	2	79	stable	1	200	79	sv	red	blue	blue	red	right	left	0.7	0.30000000000000004	6	6	4.199999999999998	1.8000000000000005	1	0	0.30000000000000004	0.7	6	6	1.8000000000000005	4.199999999999998	valid	0.38325504299973545	53248	0	1	1	53248	1	53248	1	53248	1	0.7	53248	blue	red	0	6	ml	2.7.3	bip	sub-18_ses-02_task-ml_proj-bip_2021-03-31-10-20-59.614156
79	18	2	2	80	stable	1	200	80	sv	red	blue	blue	red	right	left	0.7	0.30000000000000004	10	2	7.0	0.6000000000000001	1	0	0.30000000000000004	0.7	2	10	0.6000000000000001	7.0	valid	0.366585395000584	53248	0	1	1	53248	1	53248	1	53248	1	0.7	53248	blue	red	1	10	ml	2.7.3	bip	sub-18_ses-02_task-ml_proj-bip_2021-03-31-10-20-59.614156
80	18	2	2	81	stable	1	200	81	sv	blue	red	blue	red	left	right	0.7	0.30000000000000004	6	6	4.199999999999998	1.8000000000000005	1	0	0.7	0.30000000000000004	6	6	4.199999999999998	1.8000000000000005	valid	0.3499213000013697	51200	0	0	1	51200	1	51200	1	53248	0	0.7	51200	blue	red	1	6	ml	2.7.3	bip	sub-18_ses-02_task-ml_proj-bip_2021-03-31-10-20-59.614156
81	18	2	2	82	stable	1	200	82	sv	red	blue	blue	red	right	left	0.7	0.30000000000000004	2	4	1.4	1.2000000000000002	1	0	0.30000000000000004	0.7	4	2	1.2000000000000002	1.4	valid	0.3332710800004861	53248	0	1	1	53248	1	53248	1	51200	0	0.7	53248	blue	red	0	2	ml	2.7.3	bip	sub-18_ses-02_task-ml_proj-bip_2021-03-31-10-20-59.614156
82	18	2	2	83	stable	1	200	83	sv	blue	red	blue	red	left	right	0.7	0.30000000000000004	2	2	1.4	0.6000000000000001	1	0	0.7	0.30000000000000004	2	2	1.4	0.6000000000000001	valid	0.3832463709986769	51200	0	0	1	51200	1	51200	1	53248	0	0.7	51200	blue	red	1	2	ml	2.7.3	bip	sub-18_ses-02_task-ml_proj-bip_2021-03-31-10-20-59.614156
83	18	2	2	84	stable	1	200	84	sv	blue	red	blue	red	left	right	0.7	0.30000000000000004	2	10	1.4	3.0000000000000004	1	0	0.7	0.30000000000000004	2	10	1.4	3.0000000000000004	valid	0.4165647930003615	51200	0	0	1	53248	0	51200	1	53248	0	0.7	51200	blue	red	0	2	ml	2.7.3	bip	sub-18_ses-02_task-ml_proj-bip_2021-03-31-10-20-59.614156
84	18	2	2	85	stable	1	200	85	sv	blue	red	blue	red	left	right	0.7	0.30000000000000004	2	6	1.4	1.8000000000000005	1	0	0.7	0.30000000000000004	2	6	1.4	1.8000000000000005	valid	0.4165758429990092	51200	0	0	1	53248	0	51200	1	53248	0	0.7	51200	blue	red	0	2	ml	2.7.3	bip	sub-18_ses-02_task-ml_proj-bip_2021-03-31-10-20-59.614156
85	18	2	2	86	stable	1	200	86	sv	red	blue	blue	red	right	left	0.7	0.30000000000000004	6	6	4.199999999999998	1.8000000000000005	0	1	0.30000000000000004	0.7	6	6	1.8000000000000005	4.199999999999998	invalid	0.3832556779998413	53248	0	1	1	53248	1	53248	1	53248	1	0.7	53248	blue	red	0	0	ml	2.7.3	bip	sub-18_ses-02_task-ml_proj-bip_2021-03-31-10-20-59.614156
86	18	2	2	87	stable	1	200	87	sv	blue	red	blue	red	left	right	0.7	0.30000000000000004	4	2	2.8	0.6000000000000001	1	0	0.7	0.30000000000000004	4	2	2.8	0.6000000000000001	valid	0.4165681659997063	51200	0	0	1	51200	1	51200	1	51200	1	0.7	51200	blue	red	1	4	ml	2.7.3	bip	sub-18_ses-02_task-ml_proj-bip_2021-03-31-10-20-59.614156
87	18	2	2	88	stable	1	200	88	sv	red	blue	blue	red	right	left	0.7	0.30000000000000004	4	2	2.8	0.6000000000000001	0	1	0.30000000000000004	0.7	2	4	0.6000000000000001	2.8	invalid	0.3665944240001409	53248	0	1	1	53248	1	53248	1	53248	1	0.7	53248	blue	red	1	0	ml	2.7.3	bip	sub-18_ses-02_task-ml_proj-bip_2021-03-31-10-20-59.614156
88	18	2	2	89	stable	1	200	89	sv	red	blue	blue	red	right	left	0.7	0.30000000000000004	4	6	2.8	1.8000000000000005	1	0	0.30000000000000004	0.7	6	4	1.8000000000000005	2.8	valid	0.3665935659992101	53248	0	1	1	53248	1	53248	1	51200	0	0.7	53248	blue	red	0	4	ml	2.7.3	bip	sub-18_ses-02_task-ml_proj-bip_2021-03-31-10-20-59.614156
89	18	2	2	90	stable	1	200	90	sv	blue	red	blue	red	left	right	0.7	0.30000000000000004	2	10	1.4	3.0000000000000004	0	1	0.7	0.30000000000000004	2	10	1.4	3.0000000000000004	invalid	0.3999076780000905	51200	0	0	1	53248	0	51200	1	53248	0	0.7	51200	blue	red	0	0	ml	2.7.3	bip	sub-18_ses-02_task-ml_proj-bip_2021-03-31-10-20-59.614156
90	18	2	2	91	stable	1	200	91	sv	blue	red	blue	red	left	right	0.7	0.30000000000000004	10	2	7.0	0.6000000000000001	1	0	0.7	0.30000000000000004	10	2	7.0	0.6000000000000001	valid	0.4332277129997237	51200	0	0	1	51200	1	51200	1	51200	1	0.7	51200	blue	red	1	10	ml	2.7.3	bip	sub-18_ses-02_task-ml_proj-bip_2021-03-31-10-20-59.614156
91	18	2	2	92	stable	1	200	92	sv	red	blue	blue	red	right	left	0.7	0.30000000000000004	2	2	1.4	0.6000000000000001	1	0	0.30000000000000004	0.7	2	2	0.6000000000000001	1.4	valid	0.3832601989997784	53248	0	1	1	53248	1	53248	1	53248	1	0.7	53248	blue	red	0	2	ml	2.7.3	bip	sub-18_ses-02_task-ml_proj-bip_2021-03-31-10-20-59.614156
92	18	2	2	93	stable	1	200	93	sv	blue	red	blue	red	left	right	0.7	0.30000000000000004	6	6	4.199999999999998	1.8000000000000005	1	0	0.7	0.30000000000000004	6	6	4.199999999999998	1.8000000000000005	valid	0.4498908850000589	51200	0	0	1	51200	1	51200	1	53248	0	0.7	51200	blue	red	1	6	ml	2.7.3	bip	sub-18_ses-02_task-ml_proj-bip_2021-03-31-10-20-59.614156
93	18	2	2	94	stable	1	200	94	sv	red	blue	blue	red	right	left	0.7	0.30000000000000004	2	6	1.4	1.8000000000000005	1	0	0.30000000000000004	0.7	6	2	1.8000000000000005	1.4	valid	0.3832541390002007	53248	0	1	1	51200	0	53248	1	51200	0	0.7	53248	blue	red	0	2	ml	2.7.3	bip	sub-18_ses-02_task-ml_proj-bip_2021-03-31-10-20-59.614156
94	18	2	2	95	stable	1	200	95	sv	blue	red	blue	red	left	right	0.7	0.30000000000000004	2	4	1.4	1.2000000000000002	0	1	0.7	0.30000000000000004	2	4	1.4	1.2000000000000002	invalid	0.3832420210001146	51200	0	0	1	51200	1	51200	1	53248	0	0.7	51200	blue	red	0	0	ml	2.7.3	bip	sub-18_ses-02_task-ml_proj-bip_2021-03-31-10-20-59.614156
95	18	2	2	96	stable	1	200	96	sv	red	blue	blue	red	right	left	0.7	0.30000000000000004	6	4	4.199999999999998	1.2000000000000002	1	0	0.30000000000000004	0.7	4	6	1.2000000000000002	4.199999999999998	valid	0.3832532960004755	53248	0	1	1	53248	1	53248	1	53248	1	0.7	53248	blue	red	1	6	ml	2.7.3	bip	sub-18_ses-02_task-ml_proj-bip_2021-03-31-10-20-59.614156
96	18	2	2	97	stable	1	200	97	sv	blue	red	blue	red	left	right	0.7	0.30000000000000004	6	6	4.199999999999998	1.8000000000000005	1	0	0.7	0.30000000000000004	6	6	4.199999999999998	1.8000000000000005	valid	0.4332288479999988	51200	0	0	1	51200	1	51200	1	53248	0	0.7	51200	blue	red	1	6	ml	2.7.3	bip	sub-18_ses-02_task-ml_proj-bip_2021-03-31-10-20-59.614156
97	18	2	2	98	stable	1	200	98	sv	blue	red	blue	red	left	right	0.7	0.30000000000000004	6	2	4.199999999999998	0.6000000000000001	1	0	0.7	0.30000000000000004	6	2	4.199999999999998	0.6000000000000001	valid	0.583186387000751	51200	0	0	1	51200	1	51200	1	51200	1	0.7	51200	blue	red	1	6	ml	2.7.3	bip	sub-18_ses-02_task-ml_proj-bip_2021-03-31-10-20-59.614156
98	18	2	2	99	stable	1	200	99	sv	blue	red	blue	red	left	right	0.7	0.30000000000000004	2	4	1.4	1.2000000000000002	1	0	0.7	0.30000000000000004	2	4	1.4	1.2000000000000002	valid	0.4332304639992799	51200	0	0	1	51200	1	51200	1	53248	0	0.7	51200	blue	red	0	2	ml	2.7.3	bip	sub-18_ses-02_task-ml_proj-bip_2021-03-31-10-20-59.614156
99	18	2	2	100	stable	1	200	100	sv	blue	red	blue	red	left	right	0.7	0.30000000000000004	2	10	1.4	3.0000000000000004	0	1	0.7	0.30000000000000004	2	10	1.4	3.0000000000000004	invalid	0.3999057340006402	51200	0	0	1	53248	0	51200	1	53248	0	0.7	51200	blue	red	0	0	ml	2.7.3	bip	sub-18_ses-02_task-ml_proj-bip_2021-03-31-10-20-59.614156
100	18	2	3	101	stable	1	200	101	sv	red	blue	blue	red	right	left	0.7	0.30000000000000004	2	2	1.4	0.6000000000000001	0	1	0.30000000000000004	0.7	2	2	0.6000000000000001	1.4	invalid	0.3999177240002609	53248	0	1	1	53248	1	53248	1	53248	1	0.7	53248	blue	red	0	0	ml	2.7.3	bip	sub-18_ses-02_task-ml_proj-bip_2021-03-31-10-20-59.614156
101	18	2	3	102	stable	1	200	102	sv	blue	red	blue	red	left	right	0.7	0.30000000000000004	4	2	2.8	0.6000000000000001	1	0	0.7	0.30000000000000004	4	2	2.8	0.6000000000000001	valid	0.43322510100006173	51200	0	0	1	51200	1	51200	1	51200	1	0.7	51200	blue	red	1	4	ml	2.7.3	bip	sub-18_ses-02_task-ml_proj-bip_2021-03-31-10-20-59.614156
102	18	2	3	103	stable	1	200	103	sv	blue	red	blue	red	left	right	0.7	0.30000000000000004	2	10	1.4	3.0000000000000004	1	0	0.7	0.30000000000000004	2	10	1.4	3.0000000000000004	valid	0.3999049379999633	51200	0	0	1	53248	0	51200	1	53248	0	0.7	51200	blue	red	0	2	ml	2.7.3	bip	sub-18_ses-02_task-ml_proj-bip_2021-03-31-10-20-59.614156
103	18	2	3	104	stable	1	200	104	sv	blue	red	blue	red	left	right	0.7	0.30000000000000004	6	2	4.199999999999998	0.6000000000000001	1	0	0.7	0.30000000000000004	6	2	4.199999999999998	0.6000000000000001	valid	0.4832104990000517	51200	0	0	1	51200	1	51200	1	51200	1	0.7	51200	blue	red	1	6	ml	2.7.3	bip	sub-18_ses-02_task-ml_proj-bip_2021-03-31-10-20-59.614156
104	18	2	3	105	stable	1	200	105	sv	red	blue	blue	red	right	left	0.7	0.30000000000000004	10	2	7.0	0.6000000000000001	1	0	0.30000000000000004	0.7	2	10	0.6000000000000001	7.0	valid	0.34998055400137673	53248	0	1	1	53248	1	53248	1	53248	1	0.7	53248	blue	red	1	10	ml	2.7.3	bip	sub-18_ses-02_task-ml_proj-bip_2021-03-31-10-20-59.614156
105	18	2	3	106	stable	1	200	106	sv	blue	red	blue	red	left	right	0.7	0.30000000000000004	4	6	2.8	1.8000000000000005	1	0	0.7	0.30000000000000004	4	6	2.8	1.8000000000000005	valid	0.4665539329998865	51200	0	0	1	51200	1	51200	1	53248	0	0.7	51200	blue	red	0	4	ml	2.7.3	bip	sub-18_ses-02_task-ml_proj-bip_2021-03-31-10-20-59.614156
106	18	2	3	107	stable	1	200	107	sv	blue	red	blue	red	left	right	0.7	0.30000000000000004	2	10	1.4	3.0000000000000004	0	1	0.7	0.30000000000000004	2	10	1.4	3.0000000000000004	invalid	0.41656595099993865	51200	0	0	1	53248	0	51200	1	53248	0	0.7	51200	blue	red	0	0	ml	2.7.3	bip	sub-18_ses-02_task-ml_proj-bip_2021-03-31-10-20-59.614156
107	18	2	3	108	stable	1	200	108	sv	red	blue	blue	red	right	left	0.7	0.30000000000000004	2	4	1.4	1.2000000000000002	0	1	0.30000000000000004	0.7	4	2	1.2000000000000002	1.4	invalid	0.5165495589990314	53248	0	1	1	53248	1	53248	1	51200	0	0.7	53248	blue	red	0	0	ml	2.7.3	bip	sub-18_ses-02_task-ml_proj-bip_2021-03-31-10-20-59.614156
108	18	2	3	109	stable	1	200	109	sv	red	blue	blue	red	right	left	0.7	0.30000000000000004	2	10	1.4	3.0000000000000004	1	0	0.30000000000000004	0.7	10	2	3.0000000000000004	1.4	valid	0.5498596550005459	51200	0	0	2	51200	1	53248	0	51200	1	0.7	53248	blue	red	0	0	ml	2.7.3	bip	sub-18_ses-02_task-ml_proj-bip_2021-03-31-10-20-59.614156
109	18	2	3	110	stable	1	200	110	sv	blue	red	blue	red	left	right	0.7	0.30000000000000004	10	2	7.0	0.6000000000000001	0	1	0.7	0.30000000000000004	10	2	7.0	0.6000000000000001	invalid	0.4332266949986661	51200	0	0	1	51200	1	51200	1	51200	1	0.7	51200	blue	red	1	0	ml	2.7.3	bip	sub-18_ses-02_task-ml_proj-bip_2021-03-31-10-20-59.614156
110	18	2	3	111	stable	1	200	111	sv	red	blue	blue	red	right	left	0.7	0.30000000000000004	6	2	4.199999999999998	0.6000000000000001	0	1	0.30000000000000004	0.7	2	6	0.6000000000000001	4.199999999999998	invalid	0.43323962000067695	53248	0	1	1	53248	1	53248	1	53248	1	0.7	53248	blue	red	1	0	ml	2.7.3	bip	sub-18_ses-02_task-ml_proj-bip_2021-03-31-10-20-59.614156
111	18	2	3	112	stable	1	200	112	sv	red	blue	blue	red	right	left	0.7	0.30000000000000004	10	2	7.0	0.6000000000000001	1	0	0.30000000000000004	0.7	2	10	0.6000000000000001	7.0	valid	0.5498746140001458	53248	0	1	1	53248	1	53248	1	53248	1	0.7	53248	blue	red	1	10	ml	2.7.3	bip	sub-18_ses-02_task-ml_proj-bip_2021-03-31-10-20-59.614156
112	18	2	3	113	stable	1	200	113	sv	red	blue	blue	red	right	left	0.7	0.30000000000000004	2	10	1.4	3.0000000000000004	1	0	0.30000000000000004	0.7	10	2	3.0000000000000004	1.4	valid	0.5998462240004301	51200	0	0	2	51200	1	53248	0	51200	1	0.7	53248	blue	red	0	0	ml	2.7.3	bip	sub-18_ses-02_task-ml_proj-bip_2021-03-31-10-20-59.614156
113	18	2	3	114	stable	1	200	114	sv	red	blue	blue	red	right	left	0.7	0.30000000000000004	2	4	1.4	1.2000000000000002	1	0	0.30000000000000004	0.7	4	2	1.2000000000000002	1.4	valid	0.4332404630004021	53248	0	1	1	53248	1	53248	1	51200	0	0.7	53248	blue	red	0	2	ml	2.7.3	bip	sub-18_ses-02_task-ml_proj-bip_2021-03-31-10-20-59.614156
114	18	2	3	115	stable	1	200	115	sv	red	blue	blue	red	right	left	0.7	0.30000000000000004	2	10	1.4	3.0000000000000004	1	0	0.30000000000000004	0.7	10	2	3.0000000000000004	1.4	valid	0.499895053999353	53248	0	1	1	51200	0	53248	1	51200	0	0.7	53248	blue	red	0	2	ml	2.7.3	bip	sub-18_ses-02_task-ml_proj-bip_2021-03-31-10-20-59.614156
115	18	2	3	116	stable	1	200	116	sv	red	blue	blue	red	right	left	0.7	0.30000000000000004	4	6	2.8	1.8000000000000005	0	1	0.30000000000000004	0.7	6	4	1.8000000000000005	2.8	invalid	0.3832568990001164	53248	0	1	1	53248	1	53248	1	51200	0	0.7	53248	blue	red	0	0	ml	2.7.3	bip	sub-18_ses-02_task-ml_proj-bip_2021-03-31-10-20-59.614156
116	18	2	3	117	stable	1	200	117	sv	red	blue	blue	red	right	left	0.7	0.30000000000000004	4	6	2.8	1.8000000000000005	1	0	0.30000000000000004	0.7	6	4	1.8000000000000005	2.8	valid	0.4165801419985655	53248	0	1	1	53248	1	53248	1	51200	0	0.7	53248	blue	red	0	4	ml	2.7.3	bip	sub-18_ses-02_task-ml_proj-bip_2021-03-31-10-20-59.614156
117	18	2	3	118	stable	1	200	118	sv	blue	red	blue	red	left	right	0.7	0.30000000000000004	6	2	4.199999999999998	0.6000000000000001	1	0	0.7	0.30000000000000004	6	2	4.199999999999998	0.6000000000000001	valid	0.3832388329992682	51200	0	0	1	51200	1	51200	1	51200	1	0.7	51200	blue	red	1	6	ml	2.7.3	bip	sub-18_ses-02_task-ml_proj-bip_2021-03-31-10-20-59.614156
118	18	2	3	119	stable	1	200	119	sv	blue	red	blue	red	left	right	0.7	0.30000000000000004	6	6	4.199999999999998	1.8000000000000005	0	1	0.7	0.30000000000000004	6	6	4.199999999999998	1.8000000000000005	invalid	0.4832215349997568	51200	0	0	1	51200	1	51200	1	53248	0	0.7	51200	blue	red	1	0	ml	2.7.3	bip	sub-18_ses-02_task-ml_proj-bip_2021-03-31-10-20-59.614156
119	18	2	3	120	stable	1	200	120	sv	red	blue	blue	red	right	left	0.7	0.30000000000000004	10	2	7.0	0.6000000000000001	1	0	0.30000000000000004	0.7	2	10	0.6000000000000001	7.0	valid	0.3499304039996787	53248	0	1	1	53248	1	53248	1	53248	1	0.7	53248	blue	red	1	10	ml	2.7.3	bip	sub-18_ses-02_task-ml_proj-bip_2021-03-31-10-20-59.614156
120	18	2	3	121	stable	1	200	121	sv	red	blue	blue	red	right	left	0.7	0.30000000000000004	6	4	4.199999999999998	1.2000000000000002	1	0	0.30000000000000004	0.7	4	6	1.2000000000000002	4.199999999999998	valid	0.31660751799972786	53248	0	1	1	53248	1	53248	1	53248	1	0.7	53248	blue	red	1	6	ml	2.7.3	bip	sub-18_ses-02_task-ml_proj-bip_2021-03-31-10-20-59.614156
121	18	2	3	122	stable	1	200	122	sv	red	blue	blue	red	right	left	0.7	0.30000000000000004	4	2	2.8	0.6000000000000001	1	0	0.30000000000000004	0.7	2	4	0.6000000000000001	2.8	valid	0.3832561079998413	53248	0	1	1	53248	1	53248	1	53248	1	0.7	53248	blue	red	1	4	ml	2.7.3	bip	sub-18_ses-02_task-ml_proj-bip_2021-03-31-10-20-59.614156
122	18	2	3	123	stable	1	200	123	sv	red	blue	blue	red	right	left	0.7	0.30000000000000004	6	2	4.199999999999998	0.6000000000000001	1	0	0.30000000000000004	0.7	2	6	0.6000000000000001	4.199999999999998	valid	0.3832553619995451	53248	0	1	1	53248	1	53248	1	53248	1	0.7	53248	blue	red	1	6	ml	2.7.3	bip	sub-18_ses-02_task-ml_proj-bip_2021-03-31-10-20-59.614156
123	18	2	3	124	stable	1	200	124	sv	blue	red	blue	red	left	right	0.7	0.30000000000000004	2	2	1.4	0.6000000000000001	0	1	0.7	0.30000000000000004	2	2	1.4	0.6000000000000001	invalid	0.4998762510003871	51200	0	0	1	51200	1	51200	1	53248	0	0.7	51200	blue	red	1	0	ml	2.7.3	bip	sub-18_ses-02_task-ml_proj-bip_2021-03-31-10-20-59.614156
124	18	2	3	125	stable	1	200	125	sv	red	blue	blue	red	right	left	0.7	0.30000000000000004	2	4	1.4	1.2000000000000002	1	0	0.30000000000000004	0.7	4	2	1.2000000000000002	1.4	valid	0.33327032399938616	53248	0	1	1	53248	1	53248	1	51200	0	0.7	53248	blue	red	0	2	ml	2.7.3	bip	sub-18_ses-02_task-ml_proj-bip_2021-03-31-10-20-59.614156
125	18	2	3	126	stable	1	200	126	sv	blue	red	blue	red	left	right	0.7	0.30000000000000004	6	4	4.199999999999998	1.2000000000000002	1	0	0.7	0.30000000000000004	6	4	4.199999999999998	1.2000000000000002	valid	0.4165670339989447	51200	0	0	1	51200	1	51200	1	51200	1	0.7	51200	blue	red	1	6	ml	2.7.3	bip	sub-18_ses-02_task-ml_proj-bip_2021-03-31-10-20-59.614156
126	18	2	3	127	stable	1	200	127	sv	red	blue	blue	red	right	left	0.7	0.30000000000000004	10	2	7.0	0.6000000000000001	1	0	0.30000000000000004	0.7	2	10	0.6000000000000001	7.0	valid	0.3332704179993016	53248	0	1	1	53248	1	53248	1	53248	1	0.7	53248	blue	red	1	10	ml	2.7.3	bip	sub-18_ses-02_task-ml_proj-bip_2021-03-31-10-20-59.614156
127	18	2	3	128	stable	1	200	128	sv	red	blue	blue	red	right	left	0.7	0.30000000000000004	6	4	4.199999999999998	1.2000000000000002	1	0	0.30000000000000004	0.7	4	6	1.2000000000000002	4.199999999999998	valid	0.3665923170010501	53248	0	1	1	53248	1	53248	1	53248	1	0.7	53248	blue	red	1	6	ml	2.7.3	bip	sub-18_ses-02_task-ml_proj-bip_2021-03-31-10-20-59.614156
128	18	2	3	129	stable	1	200	129	sv	blue	red	blue	red	left	right	0.7	0.30000000000000004	2	10	1.4	3.0000000000000004	1	0	0.7	0.30000000000000004	2	10	1.4	3.0000000000000004	valid	0.5998454569999012	51200	0	0	1	53248	0	51200	1	53248	0	0.7	51200	blue	red	0	2	ml	2.7.3	bip	sub-18_ses-02_task-ml_proj-bip_2021-03-31-10-20-59.614156
129	18	2	3	130	stable	1	200	130	sv	blue	red	blue	red	left	right	0.7	0.30000000000000004	4	2	2.8	0.6000000000000001	1	0	0.7	0.30000000000000004	4	2	2.8	0.6000000000000001	valid	0.4165686740016099	51200	0	0	1	51200	1	51200	1	51200	1	0.7	51200	blue	red	1	4	ml	2.7.3	bip	sub-18_ses-02_task-ml_proj-bip_2021-03-31-10-20-59.614156
130	18	2	3	131	stable	1	200	131	sv	red	blue	blue	red	right	left	0.7	0.30000000000000004	6	2	4.199999999999998	0.6000000000000001	1	0	0.30000000000000004	0.7	2	6	0.6000000000000001	4.199999999999998	valid	0.3499341820006521	53248	0	1	1	53248	1	53248	1	53248	1	0.7	53248	blue	red	1	6	ml	2.7.3	bip	sub-18_ses-02_task-ml_proj-bip_2021-03-31-10-20-59.614156
131	18	2	3	132	stable	1	200	132	sv	red	blue	blue	red	right	left	0.7	0.30000000000000004	6	6	4.199999999999998	1.8000000000000005	0	1	0.30000000000000004	0.7	6	6	1.8000000000000005	4.199999999999998	invalid	0.43324867699993774	53248	0	1	1	53248	1	53248	1	53248	1	0.7	53248	blue	red	0	0	ml	2.7.3	bip	sub-18_ses-02_task-ml_proj-bip_2021-03-31-10-20-59.614156
132	18	2	3	133	stable	1	200	133	sv	red	blue	blue	red	right	left	0.7	0.30000000000000004	2	6	1.4	1.8000000000000005	1	0	0.30000000000000004	0.7	6	2	1.8000000000000005	1.4	valid	0.44990086700090615	53248	0	1	1	51200	0	53248	1	51200	0	0.7	53248	blue	red	0	2	ml	2.7.3	bip	sub-18_ses-02_task-ml_proj-bip_2021-03-31-10-20-59.614156
133	18	2	3	134	stable	1	200	134	sv	blue	red	blue	red	left	right	0.7	0.30000000000000004	2	2	1.4	0.6000000000000001	0	1	0.7	0.30000000000000004	2	2	1.4	0.6000000000000001	invalid	0.4998788010016142	51200	0	0	1	51200	1	51200	1	53248	0	0.7	51200	blue	red	1	0	ml	2.7.3	bip	sub-18_ses-02_task-ml_proj-bip_2021-03-31-10-20-59.614156
134	18	2	3	135	stable	1	200	135	sv	red	blue	blue	red	right	left	0.7	0.30000000000000004	2	2	1.4	0.6000000000000001	1	0	0.30000000000000004	0.7	2	2	0.6000000000000001	1.4	valid	0.34993174100054597	53248	0	1	1	53248	1	53248	1	53248	1	0.7	53248	blue	red	0	2	ml	2.7.3	bip	sub-18_ses-02_task-ml_proj-bip_2021-03-31-10-20-59.614156
135	18	2	3	136	stable	1	200	136	sv	red	blue	blue	red	right	left	0.7	0.30000000000000004	2	6	1.4	1.8000000000000005	1	0	0.30000000000000004	0.7	6	2	1.8000000000000005	1.4	valid	0.44990154200058896	53248	0	1	1	51200	0	53248	1	51200	0	0.7	53248	blue	red	0	2	ml	2.7.3	bip	sub-18_ses-02_task-ml_proj-bip_2021-03-31-10-20-59.614156
136	18	2	3	137	stable	1	200	137	sv	blue	red	blue	red	left	right	0.7	0.30000000000000004	2	6	1.4	1.8000000000000005	1	0	0.7	0.30000000000000004	2	6	1.4	1.8000000000000005	valid	0.4332290040001681	51200	0	0	1	53248	0	51200	1	53248	0	0.7	51200	blue	red	0	2	ml	2.7.3	bip	sub-18_ses-02_task-ml_proj-bip_2021-03-31-10-20-59.614156
137	18	2	3	138	stable	1	200	138	sv	blue	red	blue	red	left	right	0.7	0.30000000000000004	4	2	2.8	0.6000000000000001	1	0	0.7	0.30000000000000004	4	2	2.8	0.6000000000000001	valid	0.3999180560003879	53248	0	1	2	51200	0	51200	0	51200	0	0.7	51200	blue	red	1	0	ml	2.7.3	bip	sub-18_ses-02_task-ml_proj-bip_2021-03-31-10-20-59.614156
138	18	2	3	139	stable	1	200	139	sv	blue	red	blue	red	left	right	0.7	0.30000000000000004	2	6	1.4	1.8000000000000005	1	0	0.7	0.30000000000000004	2	6	1.4	1.8000000000000005	valid	0.5665157169987651	51200	0	0	1	53248	0	51200	1	53248	0	0.7	51200	blue	red	0	2	ml	2.7.3	bip	sub-18_ses-02_task-ml_proj-bip_2021-03-31-10-20-59.614156
139	18	2	3	140	stable	1	200	140	sv	blue	red	blue	red	left	right	0.7	0.30000000000000004	10	2	7.0	0.6000000000000001	0	1	0.7	0.30000000000000004	10	2	7.0	0.6000000000000001	invalid	0.4832152409999253	51200	0	0	1	51200	1	51200	1	51200	1	0.7	51200	blue	red	1	0	ml	2.7.3	bip	sub-18_ses-02_task-ml_proj-bip_2021-03-31-10-20-59.614156
140	18	2	3	141	stable	1	200	141	sv	blue	red	blue	red	left	right	0.7	0.30000000000000004	6	4	4.199999999999998	1.2000000000000002	0	1	0.7	0.30000000000000004	6	4	4.199999999999998	1.2000000000000002	invalid	0.5331977260011627	51200	0	0	1	51200	1	51200	1	51200	1	0.7	51200	blue	red	1	0	ml	2.7.3	bip	sub-18_ses-02_task-ml_proj-bip_2021-03-31-10-20-59.614156
141	18	2	3	142	stable	1	200	142	sv	blue	red	blue	red	left	right	0.7	0.30000000000000004	2	6	1.4	1.8000000000000005	1	0	0.7	0.30000000000000004	2	6	1.4	1.8000000000000005	valid	0.3999184630010859	53248	0	1	2	53248	1	51200	0	53248	1	0.7	51200	blue	red	0	0	ml	2.7.3	bip	sub-18_ses-02_task-ml_proj-bip_2021-03-31-10-20-59.614156
142	18	2	3	143	stable	1	200	143	sv	red	blue	blue	red	right	left	0.7	0.30000000000000004	10	2	7.0	0.6000000000000001	1	0	0.30000000000000004	0.7	2	10	0.6000000000000001	7.0	valid	0.41657732900057454	53248	0	1	1	53248	1	53248	1	53248	1	0.7	53248	blue	red	1	10	ml	2.7.3	bip	sub-18_ses-02_task-ml_proj-bip_2021-03-31-10-20-59.614156
143	18	2	3	144	stable	1	200	144	sv	red	blue	blue	red	right	left	0.7	0.30000000000000004	4	2	2.8	0.6000000000000001	1	0	0.30000000000000004	0.7	2	4	0.6000000000000001	2.8	valid	0.3832616750005399	53248	0	1	1	53248	1	53248	1	53248	1	0.7	53248	blue	red	1	4	ml	2.7.3	bip	sub-18_ses-02_task-ml_proj-bip_2021-03-31-10-20-59.614156
144	18	2	3	145	stable	1	200	145	sv	red	blue	blue	red	right	left	0.7	0.30000000000000004	6	2	4.199999999999998	0.6000000000000001	0	1	0.30000000000000004	0.7	2	6	0.6000000000000001	4.199999999999998	invalid	0.3832560930004547	53248	0	1	1	53248	1	53248	1	53248	1	0.7	53248	blue	red	1	0	ml	2.7.3	bip	sub-18_ses-02_task-ml_proj-bip_2021-03-31-10-20-59.614156
145	18	2	3	146	stable	1	200	146	sv	red	blue	blue	red	right	left	0.7	0.30000000000000004	4	2	2.8	0.6000000000000001	1	0	0.30000000000000004	0.7	2	4	0.6000000000000001	2.8	valid	0.41657644100087055	53248	0	1	1	53248	1	53248	1	53248	1	0.7	53248	blue	red	1	4	ml	2.7.3	bip	sub-18_ses-02_task-ml_proj-bip_2021-03-31-10-20-59.614156
146	18	2	3	147	stable	1	200	147	sv	red	blue	blue	red	right	left	0.7	0.30000000000000004	4	2	2.8	0.6000000000000001	1	0	0.30000000000000004	0.7	2	4	0.6000000000000001	2.8	valid	0.4499005380002927	53248	0	1	1	53248	1	53248	1	53248	1	0.7	53248	blue	red	1	4	ml	2.7.3	bip	sub-18_ses-02_task-ml_proj-bip_2021-03-31-10-20-59.614156
147	18	2	3	148	stable	1	200	148	sv	red	blue	blue	red	right	left	0.7	0.30000000000000004	2	6	1.4	1.8000000000000005	1	0	0.30000000000000004	0.7	6	2	1.8000000000000005	1.4	valid	0.4998845879999863	53248	0	1	1	51200	0	53248	1	51200	0	0.7	53248	blue	red	0	2	ml	2.7.3	bip	sub-18_ses-02_task-ml_proj-bip_2021-03-31-10-20-59.614156
148	18	2	3	149	stable	1	200	149	sv	blue	red	blue	red	left	right	0.7	0.30000000000000004	2	10	1.4	3.0000000000000004	1	0	0.7	0.30000000000000004	2	10	1.4	3.0000000000000004	valid	0.4332278479996603	51200	0	0	1	53248	0	51200	1	53248	0	0.7	51200	blue	red	0	2	ml	2.7.3	bip	sub-18_ses-02_task-ml_proj-bip_2021-03-31-10-20-59.614156
149	18	2	3	150	stable	1	200	150	sv	blue	red	blue	red	left	right	0.7	0.30000000000000004	2	10	1.4	3.0000000000000004	1	0	0.7	0.30000000000000004	2	10	1.4	3.0000000000000004	valid	0.4832067440001993	51200	0	0	1	53248	0	51200	1	53248	0	0.7	51200	blue	red	0	2	ml	2.7.3	bip	sub-18_ses-02_task-ml_proj-bip_2021-03-31-10-20-59.614156
150	18	2	4	151	stable	1	200	151	sv	blue	red	blue	red	left	right	0.7	0.30000000000000004	10	2	7.0	0.6000000000000001	1	0	0.7	0.30000000000000004	10	2	7.0	0.6000000000000001	valid	0.4665511509992939	51200	0	0	1	51200	1	51200	1	51200	1	0.7	51200	blue	red	1	10	ml	2.7.3	bip	sub-18_ses-02_task-ml_proj-bip_2021-03-31-10-20-59.614156
151	18	2	4	152	stable	1	200	152	sv	blue	red	blue	red	left	right	0.7	0.30000000000000004	2	4	1.4	1.2000000000000002	1	0	0.7	0.30000000000000004	2	4	1.4	1.2000000000000002	valid	0.4332283540006756	51200	0	0	1	51200	1	51200	1	53248	0	0.7	51200	blue	red	0	2	ml	2.7.3	bip	sub-18_ses-02_task-ml_proj-bip_2021-03-31-10-20-59.614156
152	18	2	4	153	stable	1	200	153	sv	red	blue	blue	red	right	left	0.7	0.30000000000000004	2	4	1.4	1.2000000000000002	1	0	0.30000000000000004	0.7	4	2	1.2000000000000002	1.4	valid	0.3499365110001236	53248	0	1	1	53248	1	53248	1	51200	0	0.7	53248	blue	red	0	2	ml	2.7.3	bip	sub-18_ses-02_task-ml_proj-bip_2021-03-31-10-20-59.614156
153	18	2	4	154	stable	1	200	154	sv	blue	red	blue	red	left	right	0.7	0.30000000000000004	4	6	2.8	1.8000000000000005	1	0	0.7	0.30000000000000004	4	6	2.8	1.8000000000000005	valid	0.3499190689999523	51200	0	0	1	51200	1	51200	1	53248	0	0.7	51200	blue	red	0	4	ml	2.7.3	bip	sub-18_ses-02_task-ml_proj-bip_2021-03-31-10-20-59.614156
154	18	2	4	155	stable	1	200	155	sv	red	blue	blue	red	right	left	0.7	0.30000000000000004	6	2	4.199999999999998	0.6000000000000001	1	0	0.30000000000000004	0.7	2	6	0.6000000000000001	4.199999999999998	valid	0.3832550910010468	53248	0	1	1	53248	1	53248	1	53248	1	0.7	53248	blue	red	1	6	ml	2.7.3	bip	sub-18_ses-02_task-ml_proj-bip_2021-03-31-10-20-59.614156
155	18	2	4	156	stable	1	200	156	sv	blue	red	blue	red	left	right	0.7	0.30000000000000004	6	4	4.199999999999998	1.2000000000000002	0	1	0.7	0.30000000000000004	6	4	4.199999999999998	1.2000000000000002	invalid	0.4165666789995157	51200	0	0	1	51200	1	51200	1	51200	1	0.7	51200	blue	red	1	0	ml	2.7.3	bip	sub-18_ses-02_task-ml_proj-bip_2021-03-31-10-20-59.614156
156	18	2	4	157	stable	1	200	157	sv	red	blue	blue	red	right	left	0.7	0.30000000000000004	4	6	2.8	1.8000000000000005	1	0	0.30000000000000004	0.7	6	4	1.8000000000000005	2.8	valid	0.34993390099953103	53248	0	1	1	53248	1	53248	1	51200	0	0.7	53248	blue	red	0	4	ml	2.7.3	bip	sub-18_ses-02_task-ml_proj-bip_2021-03-31-10-20-59.614156
157	18	2	4	158	stable	1	200	158	sv	blue	red	blue	red	left	right	0.7	0.30000000000000004	6	4	4.199999999999998	1.2000000000000002	1	0	0.7	0.30000000000000004	6	4	4.199999999999998	1.2000000000000002	valid	0.3665878489991883	51200	0	0	1	51200	1	51200	1	51200	1	0.7	51200	blue	red	1	6	ml	2.7.3	bip	sub-18_ses-02_task-ml_proj-bip_2021-03-31-10-20-59.614156
158	18	2	4	159	stable	1	200	159	sv	blue	red	blue	red	left	right	0.7	0.30000000000000004	6	6	4.199999999999998	1.8000000000000005	1	0	0.7	0.30000000000000004	6	6	4.199999999999998	1.8000000000000005	valid	0.3999037980011053	51200	0	0	1	51200	1	51200	1	53248	0	0.7	51200	blue	red	1	6	ml	2.7.3	bip	sub-18_ses-02_task-ml_proj-bip_2021-03-31-10-20-59.614156
159	18	2	4	160	stable	1	200	160	sv	red	blue	blue	red	right	left	0.7	0.30000000000000004	4	2	2.8	0.6000000000000001	1	0	0.30000000000000004	0.7	2	4	0.6000000000000001	2.8	valid	0.433246930999303	53248	0	1	1	53248	1	53248	1	53248	1	0.7	53248	blue	red	1	4	ml	2.7.3	bip	sub-18_ses-02_task-ml_proj-bip_2021-03-31-10-20-59.614156
160	18	2	4	161	stable	1	200	161	sv	blue	red	blue	red	left	right	0.7	0.30000000000000004	2	2	1.4	0.6000000000000001	0	1	0.7	0.30000000000000004	2	2	1.4	0.6000000000000001	invalid	0.4998771190003026	51200	0	0	1	51200	1	51200	1	53248	0	0.7	51200	blue	red	1	0	ml	2.7.3	bip	sub-18_ses-02_task-ml_proj-bip_2021-03-31-10-20-59.614156
161	18	2	4	162	stable	1	200	162	sv	blue	red	blue	red	left	right	0.7	0.30000000000000004	6	4	4.199999999999998	1.2000000000000002	1	0	0.7	0.30000000000000004	6	4	4.199999999999998	1.2000000000000002	valid	0.3665825939988281	51200	0	0	1	51200	1	51200	1	51200	1	0.7	51200	blue	red	1	6	ml	2.7.3	bip	sub-18_ses-02_task-ml_proj-bip_2021-03-31-10-20-59.614156
162	18	2	4	163	stable	1	200	163	sv	red	blue	blue	red	right	left	0.7	0.30000000000000004	6	4	4.199999999999998	1.2000000000000002	0	1	0.30000000000000004	0.7	4	6	1.2000000000000002	4.199999999999998	invalid	0.4165733629997703	53248	0	1	1	53248	1	53248	1	53248	1	0.7	53248	blue	red	1	0	ml	2.7.3	bip	sub-18_ses-02_task-ml_proj-bip_2021-03-31-10-20-59.614156
163	18	2	4	164	stable	1	200	164	sv	blue	red	blue	red	left	right	0.7	0.30000000000000004	10	2	7.0	0.6000000000000001	1	0	0.7	0.30000000000000004	10	2	7.0	0.6000000000000001	valid	0.5165366929995798	51200	0	0	1	51200	1	51200	1	51200	1	0.7	51200	blue	red	1	10	ml	2.7.3	bip	sub-18_ses-02_task-ml_proj-bip_2021-03-31-10-20-59.614156
164	18	2	4	165	stable	1	200	165	sv	red	blue	blue	red	right	left	0.7	0.30000000000000004	2	4	1.4	1.2000000000000002	1	0	0.30000000000000004	0.7	4	2	1.2000000000000002	1.4	valid	0.4165805580014421	53248	0	1	1	53248	1	53248	1	51200	0	0.7	53248	blue	red	0	2	ml	2.7.3	bip	sub-18_ses-02_task-ml_proj-bip_2021-03-31-10-20-59.614156
165	18	2	4	166	stable	1	200	166	sv	red	blue	blue	red	right	left	0.7	0.30000000000000004	4	6	2.8	1.8000000000000005	1	0	0.30000000000000004	0.7	6	4	1.8000000000000005	2.8	valid	0.3665923659991677	53248	0	1	1	53248	1	53248	1	51200	0	0.7	53248	blue	red	0	4	ml	2.7.3	bip	sub-18_ses-02_task-ml_proj-bip_2021-03-31-10-20-59.614156
166	18	2	4	167	stable	1	200	167	sv	blue	red	blue	red	left	right	0.7	0.30000000000000004	10	2	7.0	0.6000000000000001	1	0	0.7	0.30000000000000004	10	2	7.0	0.6000000000000001	valid	0.4665447840015986	51200	0	0	1	51200	1	51200	1	51200	1	0.7	51200	blue	red	1	10	ml	2.7.3	bip	sub-18_ses-02_task-ml_proj-bip_2021-03-31-10-20-59.614156
167	18	2	4	168	stable	1	200	168	sv	red	blue	blue	red	right	left	0.7	0.30000000000000004	6	4	4.199999999999998	1.2000000000000002	1	0	0.30000000000000004	0.7	4	6	1.2000000000000002	4.199999999999998	valid	0.4165790870010824	53248	0	1	1	53248	1	53248	1	53248	1	0.7	53248	blue	red	1	6	ml	2.7.3	bip	sub-18_ses-02_task-ml_proj-bip_2021-03-31-10-20-59.614156
168	18	2	4	169	stable	1	200	169	sv	red	blue	blue	red	right	left	0.7	0.30000000000000004	2	10	1.4	3.0000000000000004	0	1	0.30000000000000004	0.7	10	2	3.0000000000000004	1.4	invalid	0.8164575559985678	53248	0	1	1	51200	0	53248	1	51200	0	0.7	53248	blue	red	0	0	ml	2.7.3	bip	sub-18_ses-02_task-ml_proj-bip_2021-03-31-10-20-59.614156
169	18	2	4	170	stable	1	200	170	sv	red	blue	blue	red	right	left	0.7	0.30000000000000004	6	2	4.199999999999998	0.6000000000000001	1	0	0.30000000000000004	0.7	2	6	0.6000000000000001	4.199999999999998	valid	0.3999161789997743	53248	0	1	1	53248	1	53248	1	53248	1	0.7	53248	blue	red	1	6	ml	2.7.3	bip	sub-18_ses-02_task-ml_proj-bip_2021-03-31-10-20-59.614156
170	18	2	4	171	stable	1	200	171	sv	red	blue	blue	red	right	left	0.7	0.30000000000000004	6	4	4.199999999999998	1.2000000000000002	0	1	0.30000000000000004	0.7	4	6	1.2000000000000002	4.199999999999998	invalid	0.34993343099995394	53248	0	1	1	53248	1	53248	1	53248	1	0.7	53248	blue	red	1	0	ml	2.7.3	bip	sub-18_ses-02_task-ml_proj-bip_2021-03-31-10-20-59.614156
171	18	2	4	172	stable	1	200	172	sv	red	blue	blue	red	right	left	0.7	0.30000000000000004	6	2	4.199999999999998	0.6000000000000001	1	0	0.30000000000000004	0.7	2	6	0.6000000000000001	4.199999999999998	valid	0.3332674140001473	53248	0	1	1	53248	1	53248	1	53248	1	0.7	53248	blue	red	1	6	ml	2.7.3	bip	sub-18_ses-02_task-ml_proj-bip_2021-03-31-10-20-59.614156
172	18	2	4	173	stable	1	200	173	sv	blue	red	blue	red	left	right	0.7	0.30000000000000004	2	2	1.4	0.6000000000000001	0	1	0.7	0.30000000000000004	2	2	1.4	0.6000000000000001	invalid	0.5332007269989845	51200	0	0	1	51200	1	51200	1	53248	0	0.7	51200	blue	red	1	0	ml	2.7.3	bip	sub-18_ses-02_task-ml_proj-bip_2021-03-31-10-20-59.614156
173	18	2	4	174	stable	1	200	174	sv	blue	red	blue	red	left	right	0.7	0.30000000000000004	2	2	1.4	0.6000000000000001	0	1	0.7	0.30000000000000004	2	2	1.4	0.6000000000000001	invalid	0.4498903650001012	51200	0	0	1	51200	1	51200	1	53248	0	0.7	51200	blue	red	1	0	ml	2.7.3	bip	sub-18_ses-02_task-ml_proj-bip_2021-03-31-10-20-59.614156
174	18	2	4	175	stable	1	200	175	sv	blue	red	blue	red	left	right	0.7	0.30000000000000004	6	4	4.199999999999998	1.2000000000000002	1	0	0.7	0.30000000000000004	6	4	4.199999999999998	1.2000000000000002	valid	0.3832426640001359	51200	0	0	1	51200	1	51200	1	51200	1	0.7	51200	blue	red	1	6	ml	2.7.3	bip	sub-18_ses-02_task-ml_proj-bip_2021-03-31-10-20-59.614156
175	18	2	4	176	stable	1	200	176	sv	red	blue	blue	red	right	left	0.7	0.30000000000000004	2	6	1.4	1.8000000000000005	1	0	0.30000000000000004	0.7	6	2	1.8000000000000005	1.4	valid	0.3999223190003249	53248	0	1	1	51200	0	53248	1	51200	0	0.7	53248	blue	red	0	2	ml	2.7.3	bip	sub-18_ses-02_task-ml_proj-bip_2021-03-31-10-20-59.614156
176	18	2	4	177	stable	1	200	177	sv	blue	red	blue	red	left	right	0.7	0.30000000000000004	2	4	1.4	1.2000000000000002	0	1	0.7	0.30000000000000004	2	4	1.4	1.2000000000000002	invalid	0.39990736300023855	51200	0	0	1	51200	1	51200	1	53248	0	0.7	51200	blue	red	0	0	ml	2.7.3	bip	sub-18_ses-02_task-ml_proj-bip_2021-03-31-10-20-59.614156
177	18	2	4	178	stable	1	200	178	sv	blue	red	blue	red	left	right	0.7	0.30000000000000004	6	2	4.199999999999998	0.6000000000000001	1	0	0.7	0.30000000000000004	6	2	4.199999999999998	0.6000000000000001	valid	0.4498938330016245	51200	0	0	1	51200	1	51200	1	51200	1	0.7	51200	blue	red	1	6	ml	2.7.3	bip	sub-18_ses-02_task-ml_proj-bip_2021-03-31-10-20-59.614156
178	18	2	4	179	stable	1	200	179	sv	blue	red	blue	red	left	right	0.7	0.30000000000000004	4	2	2.8	0.6000000000000001	1	0	0.7	0.30000000000000004	4	2	2.8	0.6000000000000001	valid	0.5165298279989656	51200	0	0	1	51200	1	51200	1	51200	1	0.7	51200	blue	red	1	4	ml	2.7.3	bip	sub-18_ses-02_task-ml_proj-bip_2021-03-31-10-20-59.614156
179	18	2	4	180	stable	1	200	180	sv	red	blue	blue	red	right	left	0.7	0.30000000000000004	6	6	4.199999999999998	1.8000000000000005	1	0	0.30000000000000004	0.7	6	6	1.8000000000000005	4.199999999999998	valid	0.3499400990003778	53248	0	1	1	53248	1	53248	1	53248	1	0.7	53248	blue	red	0	6	ml	2.7.3	bip	sub-18_ses-02_task-ml_proj-bip_2021-03-31-10-20-59.614156
180	18	2	4	181	stable	1	200	181	sv	red	blue	blue	red	right	left	0.7	0.30000000000000004	2	4	1.4	1.2000000000000002	1	0	0.30000000000000004	0.7	4	2	1.2000000000000002	1.4	valid	0.416579525999623	53248	0	1	1	53248	1	53248	1	51200	0	0.7	53248	blue	red	0	2	ml	2.7.3	bip	sub-18_ses-02_task-ml_proj-bip_2021-03-31-10-20-59.614156
181	18	2	4	182	stable	1	200	182	sv	red	blue	blue	red	right	left	0.7	0.30000000000000004	6	4	4.199999999999998	1.2000000000000002	1	0	0.30000000000000004	0.7	4	6	1.2000000000000002	4.199999999999998	valid	0.4165781789997709	53248	0	1	1	53248	1	53248	1	53248	1	0.7	53248	blue	red	1	6	ml	2.7.3	bip	sub-18_ses-02_task-ml_proj-bip_2021-03-31-10-20-59.614156
182	18	2	4	183	stable	1	200	183	sv	blue	red	blue	red	left	right	0.7	0.30000000000000004	4	6	2.8	1.8000000000000005	1	0	0.7	0.30000000000000004	4	6	2.8	1.8000000000000005	valid	0.4498884269996779	51200	0	0	1	51200	1	51200	1	53248	0	0.7	51200	blue	red	0	4	ml	2.7.3	bip	sub-18_ses-02_task-ml_proj-bip_2021-03-31-10-20-59.614156
183	18	2	4	184	stable	1	200	184	sv	red	blue	blue	red	right	left	0.7	0.30000000000000004	2	10	1.4	3.0000000000000004	1	0	0.30000000000000004	0.7	10	2	3.0000000000000004	1.4	valid	0.38325644500037015	53248	0	1	1	51200	0	53248	1	51200	0	0.7	53248	blue	red	0	2	ml	2.7.3	bip	sub-18_ses-02_task-ml_proj-bip_2021-03-31-10-20-59.614156
184	18	2	4	185	stable	1	200	185	sv	blue	red	blue	red	left	right	0.7	0.30000000000000004	2	4	1.4	1.2000000000000002	1	0	0.7	0.30000000000000004	2	4	1.4	1.2000000000000002	valid	0.449888273000397	51200	0	0	1	51200	1	51200	1	53248	0	0.7	51200	blue	red	0	2	ml	2.7.3	bip	sub-18_ses-02_task-ml_proj-bip_2021-03-31-10-20-59.614156
185	18	2	4	186	stable	1	200	186	sv	red	blue	blue	red	right	left	0.7	0.30000000000000004	6	4	4.199999999999998	1.2000000000000002	0	1	0.30000000000000004	0.7	4	6	1.2000000000000002	4.199999999999998	invalid	0.3499285809994035	53248	0	1	1	53248	1	53248	1	53248	1	0.7	53248	blue	red	1	0	ml	2.7.3	bip	sub-18_ses-02_task-ml_proj-bip_2021-03-31-10-20-59.614156
186	18	2	4	187	stable	1	200	187	sv	blue	red	blue	red	left	right	0.7	0.30000000000000004	2	6	1.4	1.8000000000000005	1	0	0.7	0.30000000000000004	2	6	1.4	1.8000000000000005	valid	0.4832119530001364	51200	0	0	1	53248	0	51200	1	53248	0	0.7	51200	blue	red	0	2	ml	2.7.3	bip	sub-18_ses-02_task-ml_proj-bip_2021-03-31-10-20-59.614156
187	18	2	4	188	stable	1	200	188	sv	red	blue	blue	red	right	left	0.7	0.30000000000000004	2	10	1.4	3.0000000000000004	1	0	0.30000000000000004	0.7	10	2	3.0000000000000004	1.4	valid	0.38325230999907933	53248	0	1	1	51200	0	53248	1	51200	0	0.7	53248	blue	red	0	2	ml	2.7.3	bip	sub-18_ses-02_task-ml_proj-bip_2021-03-31-10-20-59.614156
188	18	2	4	189	stable	1	200	189	sv	blue	red	blue	red	left	right	0.7	0.30000000000000004	6	2	4.199999999999998	0.6000000000000001	0	1	0.7	0.30000000000000004	6	2	4.199999999999998	0.6000000000000001	invalid	0.9664041359992552	51200	0	0	1	51200	1	51200	1	51200	1	0.7	51200	blue	red	1	0	ml	2.7.3	bip	sub-18_ses-02_task-ml_proj-bip_2021-03-31-10-20-59.614156
189	18	2	4	190	stable	1	200	190	sv	blue	red	blue	red	left	right	0.7	0.30000000000000004	2	6	1.4	1.8000000000000005	0	1	0.7	0.30000000000000004	2	6	1.4	1.8000000000000005	invalid	0.4832152020007925	51200	0	0	1	53248	0	51200	1	53248	0	0.7	51200	blue	red	0	0	ml	2.7.3	bip	sub-18_ses-02_task-ml_proj-bip_2021-03-31-10-20-59.614156
190	18	2	4	191	stable	1	200	191	sv	red	blue	blue	red	right	left	0.7	0.30000000000000004	10	2	7.0	0.6000000000000001	1	0	0.30000000000000004	0.7	2	10	0.6000000000000001	7.0	valid	0.33327041800112056	53248	0	1	1	53248	1	53248	1	53248	1	0.7	53248	blue	red	1	10	ml	2.7.3	bip	sub-18_ses-02_task-ml_proj-bip_2021-03-31-10-20-59.614156
191	18	2	4	192	stable	1	200	192	sv	blue	red	blue	red	left	right	0.7	0.30000000000000004	4	6	2.8	1.8000000000000005	1	0	0.7	0.30000000000000004	4	6	2.8	1.8000000000000005	valid	0.483213079000052	51200	0	0	1	51200	1	51200	1	53248	0	0.7	51200	blue	red	0	4	ml	2.7.3	bip	sub-18_ses-02_task-ml_proj-bip_2021-03-31-10-20-59.614156
192	18	2	4	193	stable	1	200	193	sv	red	blue	blue	red	right	left	0.7	0.30000000000000004	6	2	4.199999999999998	0.6000000000000001	1	0	0.30000000000000004	0.7	2	6	0.6000000000000001	4.199999999999998	valid	0.3999070629997732	53248	0	1	1	53248	1	53248	1	53248	1	0.7	53248	blue	red	1	6	ml	2.7.3	bip	sub-18_ses-02_task-ml_proj-bip_2021-03-31-10-20-59.614156
193	18	2	4	194	stable	1	200	194	sv	red	blue	blue	red	right	left	0.7	0.30000000000000004	2	10	1.4	3.0000000000000004	0	1	0.30000000000000004	0.7	10	2	3.0000000000000004	1.4	invalid	0.5831881369995244	53248	0	1	1	51200	0	53248	1	51200	0	0.7	53248	blue	red	0	0	ml	2.7.3	bip	sub-18_ses-02_task-ml_proj-bip_2021-03-31-10-20-59.614156
194	18	2	4	195	stable	1	200	195	sv	red	blue	blue	red	right	left	0.7	0.30000000000000004	10	2	7.0	0.6000000000000001	1	0	0.30000000000000004	0.7	2	10	0.6000000000000001	7.0	valid	0.3665936380002677	53248	0	1	1	53248	1	53248	1	53248	1	0.7	53248	blue	red	1	10	ml	2.7.3	bip	sub-18_ses-02_task-ml_proj-bip_2021-03-31-10-20-59.614156
195	18	2	4	196	stable	1	200	196	sv	red	blue	blue	red	right	left	0.7	0.30000000000000004	4	2	2.8	0.6000000000000001	0	1	0.30000000000000004	0.7	2	4	0.6000000000000001	2.8	invalid	0.2999454840010003	53248	0	1	1	53248	1	53248	1	53248	1	0.7	53248	blue	red	1	0	ml	2.7.3	bip	sub-18_ses-02_task-ml_proj-bip_2021-03-31-10-20-59.614156
196	18	2	4	197	stable	1	200	197	sv	blue	red	blue	red	left	right	0.7	0.30000000000000004	6	2	4.199999999999998	0.6000000000000001	0	1	0.7	0.30000000000000004	6	2	4.199999999999998	0.6000000000000001	invalid	0.4498836900002061	51200	0	0	1	51200	1	51200	1	51200	1	0.7	51200	blue	red	1	0	ml	2.7.3	bip	sub-18_ses-02_task-ml_proj-bip_2021-03-31-10-20-59.614156
197	18	2	4	198	stable	1	200	198	sv	red	blue	blue	red	right	left	0.7	0.30000000000000004	2	10	1.4	3.0000000000000004	0	1	0.30000000000000004	0.7	10	2	3.0000000000000004	1.4	invalid	0.6165084130007017	51200	0	0	2	51200	1	53248	0	51200	1	0.7	53248	blue	red	0	10	ml	2.7.3	bip	sub-18_ses-02_task-ml_proj-bip_2021-03-31-10-20-59.614156
198	18	2	4	199	stable	1	200	199	sv	red	blue	blue	red	right	left	0.7	0.30000000000000004	6	4	4.199999999999998	1.2000000000000002	1	0	0.30000000000000004	0.7	4	6	1.2000000000000002	4.199999999999998	valid	0.4498902620016452	51200	0	0	2	53248	0	53248	0	53248	0	0.7	53248	blue	red	1	0	ml	2.7.3	bip	sub-18_ses-02_task-ml_proj-bip_2021-03-31-10-20-59.614156
199	18	2	4	200	stable	1	200	200	sv	red	blue	blue	red	right	left	0.7	0.30000000000000004	2	6	1.4	1.8000000000000005	0	1	0.30000000000000004	0.7	6	2	1.8000000000000005	1.4	invalid	0.6331698869998945	51200	0	0	2	51200	1	53248	0	51200	1	0.7	53248	blue	red	0	6	ml	2.7.3	bip	sub-18_ses-02_task-ml_proj-bip_2021-03-31-10-20-59.614156
200	18	2	5	201	volatile	2	20	1	sv	red	blue	blue	red	right	left	0.30000000000000004	0.7	10	2	3.0000000000000004	1.4	0	1	0.7	0.30000000000000004	2	10	1.4	3.0000000000000004	valid	0.4665635199999088	53248	0	1	1	53248	1	51200	0	53248	1	0.7	51200	red	blue	0	0	ml	2.7.3	bip	sub-18_ses-02_task-ml_proj-bip_2021-03-31-10-20-59.614156
201	18	2	5	202	volatile	2	20	2	sv	blue	red	blue	red	left	right	0.30000000000000004	0.7	2	6	0.6000000000000001	4.199999999999998	0	1	0.30000000000000004	0.7	2	6	0.6000000000000001	4.199999999999998	valid	0.5165369580008701	51200	0	0	1	53248	0	53248	0	53248	0	0.7	53248	red	blue	1	0	ml	2.7.3	bip	sub-18_ses-02_task-ml_proj-bip_2021-03-31-10-20-59.614156
202	18	2	5	203	volatile	2	20	3	sv	blue	red	blue	red	left	right	0.30000000000000004	0.7	4	2	1.2000000000000002	1.4	0	1	0.30000000000000004	0.7	4	2	1.2000000000000002	1.4	valid	0.4665624810004374	53248	0	1	2	53248	1	53248	1	51200	0	0.7	53248	red	blue	0	2	ml	2.7.3	bip	sub-18_ses-02_task-ml_proj-bip_2021-03-31-10-20-59.614156
203	18	2	5	204	volatile	2	20	4	sv	blue	red	blue	red	left	right	0.30000000000000004	0.7	6	4	1.8000000000000005	2.8	0	1	0.30000000000000004	0.7	6	4	1.8000000000000005	2.8	valid	0.36660082199887256	53248	0	1	2	53248	1	53248	1	51200	0	0.7	53248	red	blue	0	4	ml	2.7.3	bip	sub-18_ses-02_task-ml_proj-bip_2021-03-31-10-20-59.614156
204	18	2	5	205	volatile	2	20	5	sv	blue	red	blue	red	left	right	0.30000000000000004	0.7	6	2	1.8000000000000005	1.4	0	1	0.30000000000000004	0.7	6	2	1.8000000000000005	1.4	valid	0.3499335050000809	53248	0	1	2	51200	0	53248	1	51200	0	0.7	53248	red	blue	0	2	ml	2.7.3	bip	sub-18_ses-02_task-ml_proj-bip_2021-03-31-10-20-59.614156
205	18	2	5	206	volatile	2	20	6	sv	red	blue	blue	red	right	left	0.30000000000000004	0.7	6	4	1.8000000000000005	2.8	0	1	0.7	0.30000000000000004	4	6	2.8	1.8000000000000005	valid	0.3999060579990328	51200	0	0	2	51200	1	51200	1	53248	0	0.7	51200	red	blue	0	4	ml	2.7.3	bip	sub-18_ses-02_task-ml_proj-bip_2021-03-31-10-20-59.614156
206	18	2	5	207	volatile	2	20	7	sv	red	blue	blue	red	right	left	0.30000000000000004	0.7	2	6	0.6000000000000001	4.199999999999998	1	0	0.7	0.30000000000000004	6	2	4.199999999999998	0.6000000000000001	invalid	0.36658594199980143	51200	0	0	2	51200	1	51200	1	51200	1	0.7	51200	red	blue	1	0	ml	2.7.3	bip	sub-18_ses-02_task-ml_proj-bip_2021-03-31-10-20-59.614156
207	18	2	5	208	volatile	2	20	8	sv	blue	red	blue	red	left	right	0.30000000000000004	0.7	2	10	0.6000000000000001	7.0	0	1	0.30000000000000004	0.7	2	10	0.6000000000000001	7.0	valid	0.3832559689999471	53248	0	1	2	53248	1	53248	1	53248	1	0.7	53248	red	blue	1	10	ml	2.7.3	bip	sub-18_ses-02_task-ml_proj-bip_2021-03-31-10-20-59.614156
208	18	2	5	209	volatile	2	20	9	sv	blue	red	blue	red	left	right	0.30000000000000004	0.7	2	6	0.6000000000000001	4.199999999999998	1	0	0.30000000000000004	0.7	2	6	0.6000000000000001	4.199999999999998	invalid	0.3665922670006694	53248	0	1	2	53248	1	53248	1	53248	1	0.7	53248	red	blue	1	0	ml	2.7.3	bip	sub-18_ses-02_task-ml_proj-bip_2021-03-31-10-20-59.614156
209	18	2	5	210	volatile	2	20	10	sv	red	blue	blue	red	right	left	0.30000000000000004	0.7	2	10	0.6000000000000001	7.0	0	1	0.7	0.30000000000000004	10	2	7.0	0.6000000000000001	valid	0.4332285170003161	51200	0	0	2	51200	1	51200	1	51200	1	0.7	51200	red	blue	1	10	ml	2.7.3	bip	sub-18_ses-02_task-ml_proj-bip_2021-03-31-10-20-59.614156
210	18	2	5	211	volatile	2	20	11	sv	blue	red	blue	red	left	right	0.30000000000000004	0.7	6	4	1.8000000000000005	2.8	1	0	0.30000000000000004	0.7	6	4	1.8000000000000005	2.8	invalid	0.33326901700093003	53248	0	1	2	53248	1	53248	1	51200	0	0.7	53248	red	blue	0	0	ml	2.7.3	bip	sub-18_ses-02_task-ml_proj-bip_2021-03-31-10-20-59.614156
211	18	2	5	212	volatile	2	20	12	sv	red	blue	blue	red	right	left	0.30000000000000004	0.7	2	2	0.6000000000000001	1.4	0	1	0.7	0.30000000000000004	2	2	1.4	0.6000000000000001	valid	0.3999063079991174	51200	0	0	2	51200	1	51200	1	53248	0	0.7	51200	red	blue	1	2	ml	2.7.3	bip	sub-18_ses-02_task-ml_proj-bip_2021-03-31-10-20-59.614156
212	18	2	5	213	volatile	2	20	13	sv	blue	red	blue	red	left	right	0.30000000000000004	0.7	2	2	0.6000000000000001	1.4	0	1	0.30000000000000004	0.7	2	2	0.6000000000000001	1.4	valid	0.3832540679995873	53248	0	1	2	53248	1	53248	1	53248	1	0.7	53248	red	blue	0	2	ml	2.7.3	bip	sub-18_ses-02_task-ml_proj-bip_2021-03-31-10-20-59.614156
213	18	2	5	214	volatile	2	20	14	sv	blue	red	blue	red	left	right	0.30000000000000004	0.7	2	4	0.6000000000000001	2.8	1	0	0.30000000000000004	0.7	2	4	0.6000000000000001	2.8	invalid	0.3999143830005778	53248	0	1	2	53248	1	53248	1	53248	1	0.7	53248	red	blue	1	0	ml	2.7.3	bip	sub-18_ses-02_task-ml_proj-bip_2021-03-31-10-20-59.614156
214	18	2	5	215	volatile	2	20	15	sv	red	blue	blue	red	right	left	0.30000000000000004	0.7	2	10	0.6000000000000001	7.0	0	1	0.7	0.30000000000000004	10	2	7.0	0.6000000000000001	valid	0.5998386810006195	51200	0	0	2	51200	1	51200	1	51200	1	0.7	51200	red	blue	1	10	ml	2.7.3	bip	sub-18_ses-02_task-ml_proj-bip_2021-03-31-10-20-59.614156
215	18	2	5	216	volatile	2	20	16	sv	blue	red	blue	red	left	right	0.30000000000000004	0.7	4	2	1.2000000000000002	1.4	0	1	0.30000000000000004	0.7	4	2	1.2000000000000002	1.4	valid	0.38325847600026464	53248	0	1	2	53248	1	53248	1	51200	0	0.7	53248	red	blue	0	2	ml	2.7.3	bip	sub-18_ses-02_task-ml_proj-bip_2021-03-31-10-20-59.614156
216	18	2	5	217	volatile	2	20	17	sv	red	blue	blue	red	right	left	0.30000000000000004	0.7	6	6	1.8000000000000005	4.199999999999998	1	0	0.7	0.30000000000000004	6	6	4.199999999999998	1.8000000000000005	invalid	0.3999053340012324	51200	0	0	2	51200	1	51200	1	53248	0	0.7	51200	red	blue	1	0	ml	2.7.3	bip	sub-18_ses-02_task-ml_proj-bip_2021-03-31-10-20-59.614156
217	18	2	5	218	volatile	2	20	18	sv	red	blue	blue	red	right	left	0.30000000000000004	0.7	6	4	1.8000000000000005	2.8	0	1	0.7	0.30000000000000004	4	6	2.8	1.8000000000000005	valid	0.3999082840000483	51200	0	0	2	51200	1	51200	1	53248	0	0.7	51200	red	blue	0	4	ml	2.7.3	bip	sub-18_ses-02_task-ml_proj-bip_2021-03-31-10-20-59.614156
218	18	2	5	219	volatile	2	20	19	sv	red	blue	blue	red	right	left	0.30000000000000004	0.7	6	6	1.8000000000000005	4.199999999999998	1	0	0.7	0.30000000000000004	6	6	4.199999999999998	1.8000000000000005	invalid	0.3832439569996495	51200	0	0	2	51200	1	51200	1	53248	0	0.7	51200	red	blue	1	0	ml	2.7.3	bip	sub-18_ses-02_task-ml_proj-bip_2021-03-31-10-20-59.614156
219	18	2	5	220	volatile	2	20	20	sv	red	blue	blue	red	right	left	0.30000000000000004	0.7	4	2	1.2000000000000002	1.4	0	1	0.7	0.30000000000000004	2	4	1.4	1.2000000000000002	valid	0.4332351929988363	51200	0	0	2	51200	1	51200	1	53248	0	0.7	51200	red	blue	0	2	ml	2.7.3	bip	sub-18_ses-02_task-ml_proj-bip_2021-03-31-10-20-59.614156
220	18	2	5	221	volatile	3	20	1	sv	red	blue	blue	red	right	left	0.7	0.30000000000000004	6	2	4.199999999999998	0.6000000000000001	1	0	0.30000000000000004	0.7	2	6	0.6000000000000001	4.199999999999998	valid	0.4499024659999121	53248	0	1	1	53248	1	53248	1	53248	1	0.7	53248	blue	red	1	6	ml	2.7.3	bip	sub-18_ses-02_task-ml_proj-bip_2021-03-31-10-20-59.614156
221	18	2	5	222	volatile	3	20	2	sv	red	blue	blue	red	right	left	0.7	0.30000000000000004	2	10	1.4	3.0000000000000004	0	1	0.30000000000000004	0.7	10	2	3.0000000000000004	1.4	invalid	0.3999062259990751	51200	0	0	2	51200	1	53248	0	51200	1	0.7	53248	blue	red	0	10	ml	2.7.3	bip	sub-18_ses-02_task-ml_proj-bip_2021-03-31-10-20-59.614156
222	18	2	5	223	volatile	3	20	3	sv	blue	red	blue	red	left	right	0.7	0.30000000000000004	2	4	1.4	1.2000000000000002	1	0	0.7	0.30000000000000004	2	4	1.4	1.2000000000000002	valid	0.466561819999697	53248	0	1	2	51200	0	51200	0	53248	1	0.7	51200	blue	red	0	0	ml	2.7.3	bip	sub-18_ses-02_task-ml_proj-bip_2021-03-31-10-20-59.614156
223	18	2	5	224	volatile	3	20	4	sv	blue	red	blue	red	left	right	0.7	0.30000000000000004	6	6	4.199999999999998	1.8000000000000005	0	1	0.7	0.30000000000000004	6	6	4.199999999999998	1.8000000000000005	invalid	0.5165476610000042	53248	0	1	2	51200	0	51200	0	53248	1	0.7	51200	blue	red	1	6	ml	2.7.3	bip	sub-18_ses-02_task-ml_proj-bip_2021-03-31-10-20-59.614156
224	18	2	5	225	volatile	3	20	5	sv	red	blue	blue	red	right	left	0.7	0.30000000000000004	6	2	4.199999999999998	0.6000000000000001	1	0	0.30000000000000004	0.7	2	6	0.6000000000000001	4.199999999999998	valid	0.4499015379988123	53248	0	1	1	53248	1	53248	1	53248	1	0.7	53248	blue	red	1	6	ml	2.7.3	bip	sub-18_ses-02_task-ml_proj-bip_2021-03-31-10-20-59.614156
225	18	2	5	226	volatile	3	20	6	sv	blue	red	blue	red	left	right	0.7	0.30000000000000004	6	2	4.199999999999998	0.6000000000000001	1	0	0.7	0.30000000000000004	6	2	4.199999999999998	0.6000000000000001	valid	0.3832541699994181	53248	0	1	2	51200	0	51200	0	51200	0	0.7	51200	blue	red	1	0	ml	2.7.3	bip	sub-18_ses-02_task-ml_proj-bip_2021-03-31-10-20-59.614156
226	18	2	5	227	volatile	3	20	7	sv	red	blue	blue	red	right	left	0.7	0.30000000000000004	10	2	7.0	0.6000000000000001	1	0	0.30000000000000004	0.7	2	10	0.6000000000000001	7.0	valid	0.4165767110007437	53248	0	1	1	53248	1	53248	1	53248	1	0.7	53248	blue	red	1	10	ml	2.7.3	bip	sub-18_ses-02_task-ml_proj-bip_2021-03-31-10-20-59.614156
227	18	2	5	228	volatile	3	20	8	sv	blue	red	blue	red	left	right	0.7	0.30000000000000004	2	10	1.4	3.0000000000000004	1	0	0.7	0.30000000000000004	2	10	1.4	3.0000000000000004	valid	0.4998856990005152	53248	0	1	2	53248	1	51200	0	53248	1	0.7	51200	blue	red	0	0	ml	2.7.3	bip	sub-18_ses-02_task-ml_proj-bip_2021-03-31-10-20-59.614156
228	18	2	5	229	volatile	3	20	9	sv	red	blue	blue	red	right	left	0.7	0.30000000000000004	2	4	1.4	1.2000000000000002	1	0	0.30000000000000004	0.7	4	2	1.2000000000000002	1.4	valid	0.3665945400007331	53248	0	1	1	53248	1	53248	1	51200	0	0.7	53248	blue	red	0	2	ml	2.7.3	bip	sub-18_ses-02_task-ml_proj-bip_2021-03-31-10-20-59.614156
229	18	2	5	230	volatile	3	20	10	sv	blue	red	blue	red	left	right	0.7	0.30000000000000004	4	2	2.8	0.6000000000000001	0	1	0.7	0.30000000000000004	4	2	2.8	0.6000000000000001	invalid	0.5165313790002983	51200	0	0	1	51200	1	51200	1	51200	1	0.7	51200	blue	red	1	0	ml	2.7.3	bip	sub-18_ses-02_task-ml_proj-bip_2021-03-31-10-20-59.614156
230	18	2	5	231	volatile	3	20	11	sv	blue	red	blue	red	left	right	0.7	0.30000000000000004	4	6	2.8	1.8000000000000005	1	0	0.7	0.30000000000000004	4	6	2.8	1.8000000000000005	valid	0.616515158000766	51200	0	0	1	51200	1	51200	1	53248	0	0.7	51200	blue	red	0	4	ml	2.7.3	bip	sub-18_ses-02_task-ml_proj-bip_2021-03-31-10-20-59.614156
231	18	2	5	232	volatile	3	20	12	sv	blue	red	blue	red	left	right	0.7	0.30000000000000004	2	2	1.4	0.6000000000000001	1	0	0.7	0.30000000000000004	2	2	1.4	0.6000000000000001	valid	0.4998850439988018	51200	0	0	1	51200	1	51200	1	53248	0	0.7	51200	blue	red	1	2	ml	2.7.3	bip	sub-18_ses-02_task-ml_proj-bip_2021-03-31-10-20-59.614156
232	18	2	5	233	volatile	3	20	13	sv	red	blue	blue	red	right	left	0.7	0.30000000000000004	4	6	2.8	1.8000000000000005	0	1	0.30000000000000004	0.7	6	4	1.8000000000000005	2.8	invalid	0.4499019180002506	53248	0	1	1	53248	1	53248	1	51200	0	0.7	53248	blue	red	0	0	ml	2.7.3	bip	sub-18_ses-02_task-ml_proj-bip_2021-03-31-10-20-59.614156
233	18	2	5	234	volatile	3	20	14	sv	red	blue	blue	red	right	left	0.7	0.30000000000000004	4	2	2.8	0.6000000000000001	1	0	0.30000000000000004	0.7	2	4	0.6000000000000001	2.8	valid	0.39991731200098	53248	0	1	1	53248	1	53248	1	53248	1	0.7	53248	blue	red	1	4	ml	2.7.3	bip	sub-18_ses-02_task-ml_proj-bip_2021-03-31-10-20-59.614156
234	18	2	5	235	volatile	3	20	15	sv	red	blue	blue	red	right	left	0.7	0.30000000000000004	4	6	2.8	1.8000000000000005	1	0	0.30000000000000004	0.7	6	4	1.8000000000000005	2.8	valid	0.4165758930012089	53248	0	1	1	53248	1	53248	1	51200	0	0.7	53248	blue	red	0	4	ml	2.7.3	bip	sub-18_ses-02_task-ml_proj-bip_2021-03-31-10-20-59.614156
235	18	2	5	236	volatile	3	20	16	sv	red	blue	blue	red	right	left	0.7	0.30000000000000004	6	4	4.199999999999998	1.2000000000000002	0	1	0.30000000000000004	0.7	4	6	1.2000000000000002	4.199999999999998	invalid	0.4332494369991764	53248	0	1	1	53248	1	53248	1	53248	1	0.7	53248	blue	red	1	0	ml	2.7.3	bip	sub-18_ses-02_task-ml_proj-bip_2021-03-31-10-20-59.614156
236	18	2	5	237	volatile	3	20	17	sv	blue	red	blue	red	left	right	0.7	0.30000000000000004	2	2	1.4	0.6000000000000001	0	1	0.7	0.30000000000000004	2	2	1.4	0.6000000000000001	invalid	0.4165695650008274	51200	0	0	1	51200	1	51200	1	53248	0	0.7	51200	blue	red	1	0	ml	2.7.3	bip	sub-18_ses-02_task-ml_proj-bip_2021-03-31-10-20-59.614156
237	18	2	5	238	volatile	3	20	18	sv	red	blue	blue	red	right	left	0.7	0.30000000000000004	2	6	1.4	1.8000000000000005	1	0	0.30000000000000004	0.7	6	2	1.8000000000000005	1.4	valid	0.4832234229997994	53248	0	1	1	51200	0	53248	1	51200	0	0.7	53248	blue	red	0	2	ml	2.7.3	bip	sub-18_ses-02_task-ml_proj-bip_2021-03-31-10-20-59.614156
238	18	2	5	239	volatile	3	20	19	sv	blue	red	blue	red	left	right	0.7	0.30000000000000004	10	2	7.0	0.6000000000000001	1	0	0.7	0.30000000000000004	10	2	7.0	0.6000000000000001	valid	0.4665532020007959	51200	0	0	1	51200	1	51200	1	51200	1	0.7	51200	blue	red	1	10	ml	2.7.3	bip	sub-18_ses-02_task-ml_proj-bip_2021-03-31-10-20-59.614156
239	18	2	5	240	volatile	3	20	20	sv	blue	red	blue	red	left	right	0.7	0.30000000000000004	6	6	4.199999999999998	1.8000000000000005	1	0	0.7	0.30000000000000004	6	6	4.199999999999998	1.8000000000000005	valid	0.4165656440000021	51200	0	0	1	51200	1	51200	1	53248	0	0.7	51200	blue	red	1	6	ml	2.7.3	bip	sub-18_ses-02_task-ml_proj-bip_2021-03-31-10-20-59.614156
240	18	2	5	241	volatile	4	40	1	sv	red	blue	blue	red	right	left	0.30000000000000004	0.7	4	2	1.2000000000000002	1.4	0	1	0.7	0.30000000000000004	2	4	1.4	1.2000000000000002	valid	0.3832629629996518	53248	0	1	1	51200	0	51200	0	53248	1	0.7	51200	red	blue	0	0	ml	2.7.3	bip	sub-18_ses-02_task-ml_proj-bip_2021-03-31-10-20-59.614156
241	18	2	5	242	volatile	4	40	2	sv	blue	red	blue	red	left	right	0.30000000000000004	0.7	4	2	1.2000000000000002	1.4	0	1	0.30000000000000004	0.7	4	2	1.2000000000000002	1.4	valid	0.4998752199990122	51200	0	0	1	53248	0	53248	0	51200	1	0.7	53248	red	blue	0	0	ml	2.7.3	bip	sub-18_ses-02_task-ml_proj-bip_2021-03-31-10-20-59.614156
242	18	2	5	243	volatile	4	40	3	sv	red	blue	blue	red	right	left	0.30000000000000004	0.7	6	2	1.8000000000000005	1.4	0	1	0.7	0.30000000000000004	2	6	1.4	1.8000000000000005	valid	0.4665616279999085	53248	0	1	1	53248	1	51200	0	53248	1	0.7	51200	red	blue	0	0	ml	2.7.3	bip	sub-18_ses-02_task-ml_proj-bip_2021-03-31-10-20-59.614156
243	18	2	5	244	volatile	4	40	4	sv	blue	red	blue	red	left	right	0.30000000000000004	0.7	2	4	0.6000000000000001	2.8	1	0	0.30000000000000004	0.7	2	4	0.6000000000000001	2.8	invalid	0.3832552999992913	53248	0	1	2	53248	1	53248	1	53248	1	0.7	53248	red	blue	1	0	ml	2.7.3	bip	sub-18_ses-02_task-ml_proj-bip_2021-03-31-10-20-59.614156
244	18	2	5	245	volatile	4	40	5	sv	red	blue	blue	red	right	left	0.30000000000000004	0.7	6	6	1.8000000000000005	4.199999999999998	0	1	0.7	0.30000000000000004	6	6	4.199999999999998	1.8000000000000005	valid	0.483213423000052	51200	0	0	2	51200	1	51200	1	53248	0	0.7	51200	red	blue	1	6	ml	2.7.3	bip	sub-18_ses-02_task-ml_proj-bip_2021-03-31-10-20-59.614156
245	18	2	5	246	volatile	4	40	6	sv	blue	red	blue	red	left	right	0.30000000000000004	0.7	2	2	0.6000000000000001	1.4	0	1	0.30000000000000004	0.7	2	2	0.6000000000000001	1.4	valid	0.3832538019996719	53248	0	1	2	53248	1	53248	1	53248	1	0.7	53248	red	blue	0	2	ml	2.7.3	bip	sub-18_ses-02_task-ml_proj-bip_2021-03-31-10-20-59.614156
246	18	2	5	247	volatile	4	40	7	sv	red	blue	blue	red	right	left	0.30000000000000004	0.7	2	2	0.6000000000000001	1.4	0	1	0.7	0.30000000000000004	2	2	1.4	0.6000000000000001	valid	0.4498878609992971	51200	0	0	2	51200	1	51200	1	53248	0	0.7	51200	red	blue	1	2	ml	2.7.3	bip	sub-18_ses-02_task-ml_proj-bip_2021-03-31-10-20-59.614156
247	18	2	5	248	volatile	4	40	8	sv	red	blue	blue	red	right	left	0.30000000000000004	0.7	2	10	0.6000000000000001	7.0	1	0	0.7	0.30000000000000004	10	2	7.0	0.6000000000000001	invalid	0.39990387900070345	51200	0	0	2	51200	1	51200	1	51200	1	0.7	51200	red	blue	1	0	ml	2.7.3	bip	sub-18_ses-02_task-ml_proj-bip_2021-03-31-10-20-59.614156
248	18	2	5	249	volatile	4	40	9	sv	red	blue	blue	red	right	left	0.30000000000000004	0.7	6	4	1.8000000000000005	2.8	1	0	0.7	0.30000000000000004	4	6	2.8	1.8000000000000005	invalid	0.4332354229991324	53248	0	1	1	51200	0	51200	0	53248	1	0.7	51200	red	blue	0	6	ml	2.7.3	bip	sub-18_ses-02_task-ml_proj-bip_2021-03-31-10-20-59.614156
249	18	2	5	250	volatile	4	40	10	sv	blue	red	blue	red	left	right	0.30000000000000004	0.7	2	4	0.6000000000000001	2.8	1	0	0.30000000000000004	0.7	2	4	0.6000000000000001	2.8	invalid	0.4332269839997025	51200	0	0	1	53248	0	53248	0	53248	0	0.7	53248	red	blue	1	2	ml	2.7.3	bip	sub-18_ses-02_task-ml_proj-bip_2021-03-31-10-20-59.614156
250	18	2	6	251	volatile	4	40	11	sv	blue	red	blue	red	left	right	0.30000000000000004	0.7	2	2	0.6000000000000001	1.4	1	0	0.30000000000000004	0.7	2	2	0.6000000000000001	1.4	invalid	0.583184170000095	51200	0	0	1	53248	0	53248	0	53248	0	0.7	53248	red	blue	0	2	ml	2.7.3	bip	sub-18_ses-02_task-ml_proj-bip_2021-03-31-10-20-59.614156
251	18	2	6	252	volatile	4	40	12	sv	red	blue	blue	red	right	left	0.30000000000000004	0.7	10	2	3.0000000000000004	1.4	0	1	0.7	0.30000000000000004	2	10	1.4	3.0000000000000004	valid	0.3332693710017338	53248	0	1	1	53248	1	51200	0	53248	1	0.7	51200	red	blue	0	0	ml	2.7.3	bip	sub-18_ses-02_task-ml_proj-bip_2021-03-31-10-20-59.614156
252	18	2	6	253	volatile	4	40	13	sv	red	blue	blue	red	right	left	0.30000000000000004	0.7	6	2	1.8000000000000005	1.4	0	1	0.7	0.30000000000000004	2	6	1.4	1.8000000000000005	valid	0.3832527459999256	53248	0	1	1	53248	1	51200	0	53248	1	0.7	51200	red	blue	0	0	ml	2.7.3	bip	sub-18_ses-02_task-ml_proj-bip_2021-03-31-10-20-59.614156
253	18	2	6	254	volatile	4	40	14	sv	red	blue	blue	red	right	left	0.30000000000000004	0.7	4	6	1.2000000000000002	4.199999999999998	1	0	0.7	0.30000000000000004	6	4	4.199999999999998	1.2000000000000002	invalid	0.3332707629997458	53248	0	1	1	51200	0	51200	0	51200	0	0.7	51200	red	blue	1	4	ml	2.7.3	bip	sub-18_ses-02_task-ml_proj-bip_2021-03-31-10-20-59.614156
254	18	2	6	255	volatile	4	40	15	sv	blue	red	blue	red	left	right	0.30000000000000004	0.7	6	2	1.8000000000000005	1.4	0	1	0.30000000000000004	0.7	6	2	1.8000000000000005	1.4	valid	0.3999069090004923	51200	0	0	1	51200	1	53248	0	51200	1	0.7	53248	red	blue	0	0	ml	2.7.3	bip	sub-18_ses-02_task-ml_proj-bip_2021-03-31-10-20-59.614156
255	18	2	6	256	volatile	4	40	16	sv	blue	red	blue	red	left	right	0.30000000000000004	0.7	6	6	1.8000000000000005	4.199999999999998	0	1	0.30000000000000004	0.7	6	6	1.8000000000000005	4.199999999999998	valid	0.43322687600084464	51200	0	0	1	53248	0	53248	0	53248	0	0.7	53248	red	blue	0	0	ml	2.7.3	bip	sub-18_ses-02_task-ml_proj-bip_2021-03-31-10-20-59.614156
256	18	2	6	257	volatile	4	40	17	sv	red	blue	blue	red	right	left	0.30000000000000004	0.7	2	10	0.6000000000000001	7.0	0	1	0.7	0.30000000000000004	10	2	7.0	0.6000000000000001	valid	0.4165658770016307	51200	0	0	2	51200	1	51200	1	51200	1	0.7	51200	red	blue	1	10	ml	2.7.3	bip	sub-18_ses-02_task-ml_proj-bip_2021-03-31-10-20-59.614156
257	18	2	6	258	volatile	4	40	18	sv	blue	red	blue	red	left	right	0.30000000000000004	0.7	4	2	1.2000000000000002	1.4	0	1	0.30000000000000004	0.7	4	2	1.2000000000000002	1.4	valid	0.3999104230006196	53248	0	1	2	53248	1	53248	1	51200	0	0.7	53248	red	blue	0	2	ml	2.7.3	bip	sub-18_ses-02_task-ml_proj-bip_2021-03-31-10-20-59.614156
258	18	2	6	259	volatile	4	40	19	sv	red	blue	blue	red	right	left	0.30000000000000004	0.7	2	10	0.6000000000000001	7.0	0	1	0.7	0.30000000000000004	10	2	7.0	0.6000000000000001	valid	0.4332304769995972	51200	0	0	2	51200	1	51200	1	51200	1	0.7	51200	red	blue	1	10	ml	2.7.3	bip	sub-18_ses-02_task-ml_proj-bip_2021-03-31-10-20-59.614156
259	18	2	6	260	volatile	4	40	20	sv	blue	red	blue	red	left	right	0.30000000000000004	0.7	6	4	1.8000000000000005	2.8	1	0	0.30000000000000004	0.7	6	4	1.8000000000000005	2.8	invalid	0.3665909789997386	53248	0	1	2	53248	1	53248	1	51200	0	0.7	53248	red	blue	0	0	ml	2.7.3	bip	sub-18_ses-02_task-ml_proj-bip_2021-03-31-10-20-59.614156
260	18	2	6	261	volatile	4	40	21	sv	red	blue	blue	red	right	left	0.30000000000000004	0.7	10	2	3.0000000000000004	1.4	1	0	0.7	0.30000000000000004	2	10	1.4	3.0000000000000004	invalid	0.4498939819986845	53248	0	1	1	53248	1	51200	0	53248	1	0.7	51200	red	blue	0	10	ml	2.7.3	bip	sub-18_ses-02_task-ml_proj-bip_2021-03-31-10-20-59.614156
261	18	2	6	262	volatile	4	40	22	sv	red	blue	blue	red	right	left	0.30000000000000004	0.7	2	6	0.6000000000000001	4.199999999999998	0	1	0.7	0.30000000000000004	6	2	4.199999999999998	0.6000000000000001	valid	0.4498923230003129	51200	0	0	2	51200	1	51200	1	51200	1	0.7	51200	red	blue	1	6	ml	2.7.3	bip	sub-18_ses-02_task-ml_proj-bip_2021-03-31-10-20-59.614156
262	18	2	6	263	volatile	4	40	23	sv	blue	red	blue	red	left	right	0.30000000000000004	0.7	4	2	1.2000000000000002	1.4	0	1	0.30000000000000004	0.7	4	2	1.2000000000000002	1.4	valid	0.5498620529997424	51200	0	0	1	53248	0	53248	0	51200	1	0.7	53248	red	blue	0	0	ml	2.7.3	bip	sub-18_ses-02_task-ml_proj-bip_2021-03-31-10-20-59.614156
263	18	2	6	264	volatile	4	40	24	sv	blue	red	blue	red	left	right	0.30000000000000004	0.7	4	2	1.2000000000000002	1.4	0	1	0.30000000000000004	0.7	4	2	1.2000000000000002	1.4	valid	0.3665937669993582	53248	0	1	2	53248	1	53248	1	51200	0	0.7	53248	red	blue	0	2	ml	2.7.3	bip	sub-18_ses-02_task-ml_proj-bip_2021-03-31-10-20-59.614156
264	18	2	6	265	volatile	4	40	25	sv	red	blue	blue	red	right	left	0.30000000000000004	0.7	4	2	1.2000000000000002	1.4	1	0	0.7	0.30000000000000004	2	4	1.4	1.2000000000000002	invalid	0.44989203700060904	51200	0	0	2	51200	1	51200	1	53248	0	0.7	51200	red	blue	0	0	ml	2.7.3	bip	sub-18_ses-02_task-ml_proj-bip_2021-03-31-10-20-59.614156
265	18	2	6	266	volatile	4	40	26	sv	red	blue	blue	red	right	left	0.30000000000000004	0.7	6	4	1.8000000000000005	2.8	0	1	0.7	0.30000000000000004	4	6	2.8	1.8000000000000005	valid	0.43324175700036	53248	0	1	1	51200	0	51200	0	53248	1	0.7	51200	red	blue	0	0	ml	2.7.3	bip	sub-18_ses-02_task-ml_proj-bip_2021-03-31-10-20-59.614156
266	18	2	6	267	volatile	4	40	27	sv	blue	red	blue	red	left	right	0.30000000000000004	0.7	4	6	1.2000000000000002	4.199999999999998	1	0	0.30000000000000004	0.7	4	6	1.2000000000000002	4.199999999999998	invalid	0.4832227060014702	53248	0	1	2	53248	1	53248	1	53248	1	0.7	53248	red	blue	1	0	ml	2.7.3	bip	sub-18_ses-02_task-ml_proj-bip_2021-03-31-10-20-59.614156
267	18	2	6	268	volatile	4	40	28	sv	blue	red	blue	red	left	right	0.30000000000000004	0.7	10	2	3.0000000000000004	1.4	0	1	0.30000000000000004	0.7	10	2	3.0000000000000004	1.4	valid	0.4498910179991071	51200	0	0	1	51200	1	53248	0	51200	1	0.7	53248	red	blue	0	0	ml	2.7.3	bip	sub-18_ses-02_task-ml_proj-bip_2021-03-31-10-20-59.614156
268	18	2	6	269	volatile	4	40	29	sv	red	blue	blue	red	right	left	0.30000000000000004	0.7	6	6	1.8000000000000005	4.199999999999998	1	0	0.7	0.30000000000000004	6	6	4.199999999999998	1.8000000000000005	invalid	0.5331981349991111	51200	0	0	2	51200	1	51200	1	53248	0	0.7	51200	red	blue	1	0	ml	2.7.3	bip	sub-18_ses-02_task-ml_proj-bip_2021-03-31-10-20-59.614156
269	18	2	6	270	volatile	4	40	30	sv	blue	red	blue	red	left	right	0.30000000000000004	0.7	4	6	1.2000000000000002	4.199999999999998	0	1	0.30000000000000004	0.7	4	6	1.2000000000000002	4.199999999999998	valid	0.5165383069997915	51200	0	0	1	53248	0	53248	0	53248	0	0.7	53248	red	blue	1	0	ml	2.7.3	bip	sub-18_ses-02_task-ml_proj-bip_2021-03-31-10-20-59.614156
270	18	2	6	271	volatile	4	40	31	sv	blue	red	blue	red	left	right	0.30000000000000004	0.7	6	2	1.8000000000000005	1.4	0	1	0.30000000000000004	0.7	6	2	1.8000000000000005	1.4	valid	0.3999051819992019	51200	0	0	1	51200	1	53248	0	51200	1	0.7	53248	red	blue	0	0	ml	2.7.3	bip	sub-18_ses-02_task-ml_proj-bip_2021-03-31-10-20-59.614156
271	18	2	6	272	volatile	4	40	32	sv	blue	red	blue	red	left	right	0.30000000000000004	0.7	2	10	0.6000000000000001	7.0	0	1	0.30000000000000004	0.7	2	10	0.6000000000000001	7.0	valid	0.34993295799904445	53248	0	1	2	53248	1	53248	1	53248	1	0.7	53248	red	blue	1	10	ml	2.7.3	bip	sub-18_ses-02_task-ml_proj-bip_2021-03-31-10-20-59.614156
272	18	2	6	273	volatile	4	40	33	sv	red	blue	blue	red	right	left	0.30000000000000004	0.7	6	6	1.8000000000000005	4.199999999999998	0	1	0.7	0.30000000000000004	6	6	4.199999999999998	1.8000000000000005	valid	0.4498894549997203	51200	0	0	2	51200	1	51200	1	53248	0	0.7	51200	red	blue	1	6	ml	2.7.3	bip	sub-18_ses-02_task-ml_proj-bip_2021-03-31-10-20-59.614156
273	18	2	6	274	volatile	4	40	34	sv	red	blue	blue	red	right	left	0.30000000000000004	0.7	4	6	1.2000000000000002	4.199999999999998	0	1	0.7	0.30000000000000004	6	4	4.199999999999998	1.2000000000000002	valid	0.39991560299858975	53248	0	1	1	51200	0	51200	0	51200	0	0.7	51200	red	blue	1	0	ml	2.7.3	bip	sub-18_ses-02_task-ml_proj-bip_2021-03-31-10-20-59.614156
274	18	2	6	275	volatile	4	40	35	sv	red	blue	blue	red	right	left	0.30000000000000004	0.7	4	6	1.2000000000000002	4.199999999999998	0	1	0.7	0.30000000000000004	6	4	4.199999999999998	1.2000000000000002	valid	0.4498948149994249	51200	0	0	2	51200	1	51200	1	51200	1	0.7	51200	red	blue	1	6	ml	2.7.3	bip	sub-18_ses-02_task-ml_proj-bip_2021-03-31-10-20-59.614156
275	18	2	6	276	volatile	4	40	36	sv	red	blue	blue	red	right	left	0.30000000000000004	0.7	2	6	0.6000000000000001	4.199999999999998	0	1	0.7	0.30000000000000004	6	2	4.199999999999998	0.6000000000000001	valid	0.3999064290001115	51200	0	0	2	51200	1	51200	1	51200	1	0.7	51200	red	blue	1	6	ml	2.7.3	bip	sub-18_ses-02_task-ml_proj-bip_2021-03-31-10-20-59.614156
276	18	2	6	277	volatile	4	40	37	sv	blue	red	blue	red	left	right	0.30000000000000004	0.7	2	2	0.6000000000000001	1.4	1	0	0.30000000000000004	0.7	2	2	0.6000000000000001	1.4	invalid	0.4832272839994402	53248	0	1	2	53248	1	53248	1	53248	1	0.7	53248	red	blue	0	0	ml	2.7.3	bip	sub-18_ses-02_task-ml_proj-bip_2021-03-31-10-20-59.614156
277	18	2	6	278	volatile	4	40	38	sv	blue	red	blue	red	left	right	0.30000000000000004	0.7	2	6	0.6000000000000001	4.199999999999998	0	1	0.30000000000000004	0.7	2	6	0.6000000000000001	4.199999999999998	valid	0.3499395840008219	53248	0	1	2	53248	1	53248	1	53248	1	0.7	53248	red	blue	1	6	ml	2.7.3	bip	sub-18_ses-02_task-ml_proj-bip_2021-03-31-10-20-59.614156
278	18	2	6	279	volatile	4	40	39	sv	blue	red	blue	red	left	right	0.30000000000000004	0.7	2	6	0.6000000000000001	4.199999999999998	0	1	0.30000000000000004	0.7	2	6	0.6000000000000001	4.199999999999998	valid	0.36662429199896	53248	0	1	2	53248	1	53248	1	53248	1	0.7	53248	red	blue	1	6	ml	2.7.3	bip	sub-18_ses-02_task-ml_proj-bip_2021-03-31-10-20-59.614156
279	18	2	6	280	volatile	4	40	40	sv	blue	red	blue	red	left	right	0.30000000000000004	0.7	2	10	0.6000000000000001	7.0	0	1	0.30000000000000004	0.7	2	10	0.6000000000000001	7.0	valid	0.41658147999987705	53248	0	1	2	53248	1	53248	1	53248	1	0.7	53248	red	blue	1	10	ml	2.7.3	bip	sub-18_ses-02_task-ml_proj-bip_2021-03-31-10-20-59.614156
280	18	2	6	281	volatile	5	20	1	sv	red	blue	blue	red	right	left	0.7	0.30000000000000004	6	6	4.199999999999998	1.8000000000000005	1	0	0.30000000000000004	0.7	6	6	1.8000000000000005	4.199999999999998	valid	0.4165646480014402	51200	0	0	2	53248	0	53248	0	53248	0	0.7	53248	blue	red	0	0	ml	2.7.3	bip	sub-18_ses-02_task-ml_proj-bip_2021-03-31-10-20-59.614156
281	18	2	6	282	volatile	5	20	2	sv	red	blue	blue	red	right	left	0.7	0.30000000000000004	2	4	1.4	1.2000000000000002	0	1	0.30000000000000004	0.7	4	2	1.2000000000000002	1.4	invalid	0.5332071430002543	51200	0	0	2	53248	0	53248	0	51200	1	0.7	53248	blue	red	0	4	ml	2.7.3	bip	sub-18_ses-02_task-ml_proj-bip_2021-03-31-10-20-59.614156
282	18	2	6	283	volatile	5	20	3	sv	red	blue	blue	red	right	left	0.7	0.30000000000000004	6	4	4.199999999999998	1.2000000000000002	0	1	0.30000000000000004	0.7	4	6	1.2000000000000002	4.199999999999998	invalid	0.3832460060002632	51200	0	0	2	53248	0	53248	0	53248	0	0.7	53248	blue	red	1	4	ml	2.7.3	bip	sub-18_ses-02_task-ml_proj-bip_2021-03-31-10-20-59.614156
283	18	2	6	284	volatile	5	20	4	sv	blue	red	blue	red	left	right	0.7	0.30000000000000004	2	2	1.4	0.6000000000000001	1	0	0.7	0.30000000000000004	2	2	1.4	0.6000000000000001	valid	0.549866829000166	53248	0	1	2	51200	0	51200	0	53248	1	0.7	51200	blue	red	1	0	ml	2.7.3	bip	sub-18_ses-02_task-ml_proj-bip_2021-03-31-10-20-59.614156
284	18	2	6	285	volatile	5	20	5	sv	red	blue	blue	red	right	left	0.7	0.30000000000000004	6	4	4.199999999999998	1.2000000000000002	1	0	0.30000000000000004	0.7	4	6	1.2000000000000002	4.199999999999998	valid	0.3999029219994554	51200	0	0	2	53248	0	53248	0	53248	0	0.7	53248	blue	red	1	0	ml	2.7.3	bip	sub-18_ses-02_task-ml_proj-bip_2021-03-31-10-20-59.614156
285	18	2	6	286	volatile	5	20	6	sv	blue	red	blue	red	left	right	0.7	0.30000000000000004	2	10	1.4	3.0000000000000004	0	1	0.7	0.30000000000000004	2	10	1.4	3.0000000000000004	invalid	0.3665925989989773	53248	0	1	2	53248	1	51200	0	53248	1	0.7	51200	blue	red	0	10	ml	2.7.3	bip	sub-18_ses-02_task-ml_proj-bip_2021-03-31-10-20-59.614156
286	18	2	6	287	volatile	5	20	7	sv	blue	red	blue	red	left	right	0.7	0.30000000000000004	2	10	1.4	3.0000000000000004	0	1	0.7	0.30000000000000004	2	10	1.4	3.0000000000000004	invalid	0.4498997150003561	53248	0	1	2	53248	1	51200	0	53248	1	0.7	51200	blue	red	0	10	ml	2.7.3	bip	sub-18_ses-02_task-ml_proj-bip_2021-03-31-10-20-59.614156
287	18	2	6	288	volatile	5	20	8	sv	red	blue	blue	red	right	left	0.7	0.30000000000000004	4	6	2.8	1.8000000000000005	1	0	0.30000000000000004	0.7	6	4	1.8000000000000005	2.8	valid	0.3999052719991596	51200	0	0	2	53248	0	53248	0	51200	1	0.7	53248	blue	red	0	0	ml	2.7.3	bip	sub-18_ses-02_task-ml_proj-bip_2021-03-31-10-20-59.614156
288	18	2	6	289	volatile	5	20	9	sv	blue	red	blue	red	left	right	0.7	0.30000000000000004	2	6	1.4	1.8000000000000005	0	1	0.7	0.30000000000000004	2	6	1.4	1.8000000000000005	invalid	0.34992944199984777	53248	0	1	2	53248	1	51200	0	53248	1	0.7	51200	blue	red	0	6	ml	2.7.3	bip	sub-18_ses-02_task-ml_proj-bip_2021-03-31-10-20-59.614156
289	18	2	6	290	volatile	5	20	10	sv	blue	red	blue	red	left	right	0.7	0.30000000000000004	4	2	2.8	0.6000000000000001	1	0	0.7	0.30000000000000004	4	2	2.8	0.6000000000000001	valid	0.4998940649984434	53248	0	1	2	51200	0	51200	0	51200	0	0.7	51200	blue	red	1	0	ml	2.7.3	bip	sub-18_ses-02_task-ml_proj-bip_2021-03-31-10-20-59.614156
290	18	2	6	291	volatile	5	20	11	sv	blue	red	blue	red	left	right	0.7	0.30000000000000004	6	2	4.199999999999998	0.6000000000000001	1	0	0.7	0.30000000000000004	6	2	4.199999999999998	0.6000000000000001	valid	0.2999456970010215	53248	0	1	2	51200	0	51200	0	51200	0	0.7	51200	blue	red	1	0	ml	2.7.3	bip	sub-18_ses-02_task-ml_proj-bip_2021-03-31-10-20-59.614156
291	18	2	6	292	volatile	5	20	12	sv	blue	red	blue	red	left	right	0.7	0.30000000000000004	2	2	1.4	0.6000000000000001	1	0	0.7	0.30000000000000004	2	2	1.4	0.6000000000000001	valid	0.3999146890000702	53248	0	1	2	51200	0	51200	0	53248	1	0.7	51200	blue	red	1	0	ml	2.7.3	bip	sub-18_ses-02_task-ml_proj-bip_2021-03-31-10-20-59.614156
292	18	2	6	293	volatile	5	20	13	sv	red	blue	blue	red	right	left	0.7	0.30000000000000004	4	2	2.8	0.6000000000000001	1	0	0.30000000000000004	0.7	2	4	0.6000000000000001	2.8	valid	0.4498905939999531	51200	0	0	2	53248	0	53248	0	53248	0	0.7	53248	blue	red	1	0	ml	2.7.3	bip	sub-18_ses-02_task-ml_proj-bip_2021-03-31-10-20-59.614156
293	18	2	6	294	volatile	5	20	14	sv	red	blue	blue	red	right	left	0.7	0.30000000000000004	2	10	1.4	3.0000000000000004	0	1	0.30000000000000004	0.7	10	2	3.0000000000000004	1.4	invalid	0.4665544880008383	51200	0	0	2	51200	1	53248	0	51200	1	0.7	53248	blue	red	0	10	ml	2.7.3	bip	sub-18_ses-02_task-ml_proj-bip_2021-03-31-10-20-59.614156
294	18	2	6	295	volatile	5	20	15	sv	red	blue	blue	red	right	left	0.7	0.30000000000000004	2	6	1.4	1.8000000000000005	1	0	0.30000000000000004	0.7	6	2	1.8000000000000005	1.4	valid	0.5165369840015046	51200	0	0	2	51200	1	53248	0	51200	1	0.7	53248	blue	red	0	0	ml	2.7.3	bip	sub-18_ses-02_task-ml_proj-bip_2021-03-31-10-20-59.614156
295	18	2	6	296	volatile	5	20	16	sv	blue	red	blue	red	left	right	0.7	0.30000000000000004	2	4	1.4	1.2000000000000002	1	0	0.7	0.30000000000000004	2	4	1.4	1.2000000000000002	valid	0.4165790550014208	53248	0	1	2	51200	0	51200	0	53248	1	0.7	51200	blue	red	0	0	ml	2.7.3	bip	sub-18_ses-02_task-ml_proj-bip_2021-03-31-10-20-59.614156
296	18	2	6	297	volatile	5	20	17	sv	blue	red	blue	red	left	right	0.7	0.30000000000000004	2	6	1.4	1.8000000000000005	1	0	0.7	0.30000000000000004	2	6	1.4	1.8000000000000005	valid	0.4832257180005399	53248	0	1	2	53248	1	51200	0	53248	1	0.7	51200	blue	red	0	0	ml	2.7.3	bip	sub-18_ses-02_task-ml_proj-bip_2021-03-31-10-20-59.614156
297	18	2	6	298	volatile	5	20	18	sv	red	blue	blue	red	right	left	0.7	0.30000000000000004	2	10	1.4	3.0000000000000004	1	0	0.30000000000000004	0.7	10	2	3.0000000000000004	1.4	valid	0.3999167029996897	53248	0	1	1	51200	0	53248	1	51200	0	0.7	53248	blue	red	0	2	ml	2.7.3	bip	sub-18_ses-02_task-ml_proj-bip_2021-03-31-10-20-59.614156
