Unnamed: 0	sub_id	ses_id	block_no	trial_no	phase_type	phase_no	phase_length	trialInPhase_no	phase_type_order	color_left	color_right	color1	color2	position1	position2	prob1	prob2	mag1	mag2	ev1	ev2	outcome1	outcome2	prob_left	prob_right	mag_left	mag_right	ev_left	ev_right	reward_validity	resp_time	resp_key	timeout	choice_side	choice	ev_corr_resp	ev_correct	prob_corr_resp	prob_correct	mag_corr_resp	mag_correct	high_prob	high_prob_side	high_prob_color	low_prob_color	no_brain	reward	name	version	proj_id	logFileID
0	4	1	1	1	volatile	1	20	1	vs	green	brown	green	brown	left	right	0.7	0.30000000000000004	4	2	2.8	0.6000000000000001	1	0	0.7	0.30000000000000004	4	2	2.8	0.6000000000000001	valid	1.0830355419966509	51200	0	0	1	51200	1	51200	1	51200	1	0.7	51200	green	brown	1	4	ml	2.7.3	lorasick	sub-04_ses-01_task-ml_proj-lorasick_2020-11-10-14-09-59.505335
1	4	1	1	2	volatile	1	20	2	vs	brown	green	green	brown	right	left	0.7	0.30000000000000004	10	2	7.0	0.6000000000000001	1	0	0.30000000000000004	0.7	2	10	0.6000000000000001	7.0	valid	0.7498133549997874	53248	0	1	1	53248	1	53248	1	53248	1	0.7	53248	green	brown	1	10	ml	2.7.3	lorasick	sub-04_ses-01_task-ml_proj-lorasick_2020-11-10-14-09-59.505335
2	4	1	1	3	volatile	1	20	3	vs	brown	green	green	brown	right	left	0.7	0.30000000000000004	6	6	4.199999999999998	1.8000000000000005	1	0	0.30000000000000004	0.7	6	6	1.8000000000000005	4.199999999999998	valid	0.5332105769994087	53248	0	1	1	53248	1	53248	1	53248	1	0.7	53248	green	brown	0	6	ml	2.7.3	lorasick	sub-04_ses-01_task-ml_proj-lorasick_2020-11-10-14-09-59.505335
3	4	1	1	4	volatile	1	20	4	vs	green	brown	green	brown	left	right	0.7	0.30000000000000004	2	10	1.4	3.0000000000000004	1	0	0.7	0.30000000000000004	2	10	1.4	3.0000000000000004	valid	0.6664987920012209	51200	0	0	1	53248	0	51200	1	53248	0	0.7	51200	green	brown	0	2	ml	2.7.3	lorasick	sub-04_ses-01_task-ml_proj-lorasick_2020-11-10-14-09-59.505335
4	4	1	1	5	volatile	1	20	5	vs	green	brown	green	brown	left	right	0.7	0.30000000000000004	4	6	2.8	1.8000000000000005	1	0	0.7	0.30000000000000004	4	6	2.8	1.8000000000000005	valid	0.5498621109982196	51200	0	0	1	51200	1	51200	1	53248	0	0.7	51200	green	brown	0	4	ml	2.7.3	lorasick	sub-04_ses-01_task-ml_proj-lorasick_2020-11-10-14-09-59.505335
5	4	1	1	6	volatile	1	20	6	vs	green	brown	green	brown	left	right	0.7	0.30000000000000004	2	6	1.4	1.8000000000000005	1	0	0.7	0.30000000000000004	2	6	1.4	1.8000000000000005	valid	0.4498944139995729	51200	0	0	1	53248	0	51200	1	53248	0	0.7	51200	green	brown	0	2	ml	2.7.3	lorasick	sub-04_ses-01_task-ml_proj-lorasick_2020-11-10-14-09-59.505335
6	4	1	1	7	volatile	1	20	7	vs	green	brown	green	brown	left	right	0.7	0.30000000000000004	4	6	2.8	1.8000000000000005	1	0	0.7	0.30000000000000004	4	6	2.8	1.8000000000000005	valid	0.5498617100020056	51200	0	0	1	51200	1	51200	1	53248	0	0.7	51200	green	brown	0	4	ml	2.7.3	lorasick	sub-04_ses-01_task-ml_proj-lorasick_2020-11-10-14-09-59.505335
7	4	1	1	8	volatile	1	20	8	vs	brown	green	green	brown	right	left	0.7	0.30000000000000004	2	10	1.4	3.0000000000000004	1	0	0.30000000000000004	0.7	10	2	3.0000000000000004	1.4	valid	1.2163376880016583	53248	0	1	1	51200	0	53248	1	51200	0	0.7	53248	green	brown	0	2	ml	2.7.3	lorasick	sub-04_ses-01_task-ml_proj-lorasick_2020-11-10-14-09-59.505335
8	4	1	1	9	volatile	1	20	9	vs	brown	green	green	brown	right	left	0.7	0.30000000000000004	2	2	1.4	0.6000000000000001	0	1	0.30000000000000004	0.7	2	2	0.6000000000000001	1.4	invalid	0.6665036770027655	53248	0	1	1	53248	1	53248	1	53248	1	0.7	53248	green	brown	0	0	ml	2.7.3	lorasick	sub-04_ses-01_task-ml_proj-lorasick_2020-11-10-14-09-59.505335
9	4	1	1	10	volatile	1	20	10	vs	brown	green	green	brown	right	left	0.7	0.30000000000000004	2	10	1.4	3.0000000000000004	0	1	0.30000000000000004	0.7	10	2	3.0000000000000004	1.4	invalid	0.6331801269989228	53248	0	1	1	51200	0	53248	1	51200	0	0.7	53248	green	brown	0	0	ml	2.7.3	lorasick	sub-04_ses-01_task-ml_proj-lorasick_2020-11-10-14-09-59.505335
10	4	1	1	11	volatile	1	20	11	vs	brown	green	green	brown	right	left	0.7	0.30000000000000004	2	6	1.4	1.8000000000000005	1	0	0.30000000000000004	0.7	6	2	1.8000000000000005	1.4	valid	0.666494937002426	51200	0	0	2	51200	1	53248	0	51200	1	0.7	53248	green	brown	0	0	ml	2.7.3	lorasick	sub-04_ses-01_task-ml_proj-lorasick_2020-11-10-14-09-59.505335
11	4	1	1	12	volatile	1	20	12	vs	green	brown	green	brown	left	right	0.7	0.30000000000000004	2	2	1.4	0.6000000000000001	0	1	0.7	0.30000000000000004	2	2	1.4	0.6000000000000001	invalid	0.5998517230000289	51200	0	0	1	51200	1	51200	1	53248	0	0.7	51200	green	brown	1	0	ml	2.7.3	lorasick	sub-04_ses-01_task-ml_proj-lorasick_2020-11-10-14-09-59.505335
12	4	1	1	13	volatile	1	20	13	vs	green	brown	green	brown	left	right	0.7	0.30000000000000004	2	4	1.4	1.2000000000000002	1	0	0.7	0.30000000000000004	2	4	1.4	1.2000000000000002	valid	0.7831258180012809	51200	0	0	1	51200	1	51200	1	53248	0	0.7	51200	green	brown	0	2	ml	2.7.3	lorasick	sub-04_ses-01_task-ml_proj-lorasick_2020-11-10-14-09-59.505335
13	4	1	1	14	volatile	1	20	14	vs	brown	green	green	brown	right	left	0.7	0.30000000000000004	2	6	1.4	1.8000000000000005	0	1	0.30000000000000004	0.7	6	2	1.8000000000000005	1.4	invalid	0.6165213259992015	53248	0	1	1	51200	0	53248	1	51200	0	0.7	53248	green	brown	0	0	ml	2.7.3	lorasick	sub-04_ses-01_task-ml_proj-lorasick_2020-11-10-14-09-59.505335
14	4	1	1	15	volatile	1	20	15	vs	green	brown	green	brown	left	right	0.7	0.30000000000000004	4	2	2.8	0.6000000000000001	1	0	0.7	0.30000000000000004	4	2	2.8	0.6000000000000001	valid	0.7498119459996815	53248	0	1	2	51200	0	51200	0	51200	0	0.7	51200	green	brown	1	0	ml	2.7.3	lorasick	sub-04_ses-01_task-ml_proj-lorasick_2020-11-10-14-09-59.505335
15	4	1	1	16	volatile	1	20	16	vs	brown	green	green	brown	right	left	0.7	0.30000000000000004	6	2	4.199999999999998	0.6000000000000001	1	0	0.30000000000000004	0.7	2	6	0.6000000000000001	4.199999999999998	valid	0.5498639219986217	51200	0	0	2	53248	0	53248	0	53248	0	0.7	53248	green	brown	1	0	ml	2.7.3	lorasick	sub-04_ses-01_task-ml_proj-lorasick_2020-11-10-14-09-59.505335
16	4	1	1	17	volatile	1	20	17	vs	green	brown	green	brown	left	right	0.7	0.30000000000000004	6	6	4.199999999999998	1.8000000000000005	0	1	0.7	0.30000000000000004	6	6	4.199999999999998	1.8000000000000005	invalid	0.7997971810000308	53248	0	1	2	51200	0	51200	0	53248	1	0.7	51200	green	brown	1	6	ml	2.7.3	lorasick	sub-04_ses-01_task-ml_proj-lorasick_2020-11-10-14-09-59.505335
17	4	1	1	18	volatile	1	20	18	vs	brown	green	green	brown	right	left	0.7	0.30000000000000004	4	6	2.8	1.8000000000000005	1	0	0.30000000000000004	0.7	6	4	1.8000000000000005	2.8	valid	0.4998761310016562	51200	0	0	2	53248	0	53248	0	51200	1	0.7	53248	green	brown	0	0	ml	2.7.3	lorasick	sub-04_ses-01_task-ml_proj-lorasick_2020-11-10-14-09-59.505335
18	4	1	1	19	volatile	1	20	19	vs	green	brown	green	brown	left	right	0.7	0.30000000000000004	2	4	1.4	1.2000000000000002	0	1	0.7	0.30000000000000004	2	4	1.4	1.2000000000000002	invalid	0.6998173540014251	51200	0	0	1	51200	1	51200	1	53248	0	0.7	51200	green	brown	0	0	ml	2.7.3	lorasick	sub-04_ses-01_task-ml_proj-lorasick_2020-11-10-14-09-59.505335
19	4	1	1	20	volatile	1	20	20	vs	brown	green	green	brown	right	left	0.7	0.30000000000000004	4	6	2.8	1.8000000000000005	1	0	0.30000000000000004	0.7	6	4	1.8000000000000005	2.8	valid	0.8497726200002944	51200	0	0	2	53248	0	53248	0	51200	1	0.7	53248	green	brown	0	0	ml	2.7.3	lorasick	sub-04_ses-01_task-ml_proj-lorasick_2020-11-10-14-09-59.505335
20	4	1	1	21	volatile	2	20	1	vs	green	brown	green	brown	left	right	0.30000000000000004	0.7	2	2	0.6000000000000001	1.4	0	1	0.30000000000000004	0.7	2	2	0.6000000000000001	1.4	valid	0.5665372570001637	53248	0	1	2	53248	1	53248	1	53248	1	0.7	53248	brown	green	0	2	ml	2.7.3	lorasick	sub-04_ses-01_task-ml_proj-lorasick_2020-11-10-14-09-59.505335
21	4	1	1	22	volatile	2	20	2	vs	brown	green	green	brown	right	left	0.30000000000000004	0.7	4	2	1.2000000000000002	1.4	0	1	0.7	0.30000000000000004	2	4	1.4	1.2000000000000002	valid	0.4332306660035101	51200	0	0	2	51200	1	51200	1	53248	0	0.7	51200	brown	green	0	2	ml	2.7.3	lorasick	sub-04_ses-01_task-ml_proj-lorasick_2020-11-10-14-09-59.505335
22	4	1	1	23	volatile	2	20	3	vs	brown	green	green	brown	right	left	0.30000000000000004	0.7	2	6	0.6000000000000001	4.199999999999998	0	1	0.7	0.30000000000000004	6	2	4.199999999999998	0.6000000000000001	valid	0.4165686669985007	51200	0	0	2	51200	1	51200	1	51200	1	0.7	51200	brown	green	1	6	ml	2.7.3	lorasick	sub-04_ses-01_task-ml_proj-lorasick_2020-11-10-14-09-59.505335
23	4	1	1	24	volatile	2	20	4	vs	brown	green	green	brown	right	left	0.30000000000000004	0.7	2	4	0.6000000000000001	2.8	0	1	0.7	0.30000000000000004	4	2	2.8	0.6000000000000001	valid	0.3999061770009576	51200	0	0	2	51200	1	51200	1	51200	1	0.7	51200	brown	green	1	4	ml	2.7.3	lorasick	sub-04_ses-01_task-ml_proj-lorasick_2020-11-10-14-09-59.505335
24	4	1	1	25	volatile	2	20	5	vs	green	brown	green	brown	left	right	0.30000000000000004	0.7	6	4	1.8000000000000005	2.8	1	0	0.30000000000000004	0.7	6	4	1.8000000000000005	2.8	invalid	0.6331797950006148	53248	0	1	2	53248	1	53248	1	51200	0	0.7	53248	brown	green	0	0	ml	2.7.3	lorasick	sub-04_ses-01_task-ml_proj-lorasick_2020-11-10-14-09-59.505335
25	4	1	1	26	volatile	2	20	6	vs	brown	green	green	brown	right	left	0.30000000000000004	0.7	2	6	0.6000000000000001	4.199999999999998	1	0	0.7	0.30000000000000004	6	2	4.199999999999998	0.6000000000000001	invalid	0.4332310600002529	51200	0	0	2	51200	1	51200	1	51200	1	0.7	51200	brown	green	1	0	ml	2.7.3	lorasick	sub-04_ses-01_task-ml_proj-lorasick_2020-11-10-14-09-59.505335
26	4	1	1	27	volatile	2	20	7	vs	green	brown	green	brown	left	right	0.30000000000000004	0.7	6	6	1.8000000000000005	4.199999999999998	0	1	0.30000000000000004	0.7	6	6	1.8000000000000005	4.199999999999998	valid	0.6331780000000435	53248	0	1	2	53248	1	53248	1	53248	1	0.7	53248	brown	green	0	6	ml	2.7.3	lorasick	sub-04_ses-01_task-ml_proj-lorasick_2020-11-10-14-09-59.505335
27	4	1	1	28	volatile	2	20	8	vs	green	brown	green	brown	left	right	0.30000000000000004	0.7	4	2	1.2000000000000002	1.4	0	1	0.30000000000000004	0.7	4	2	1.2000000000000002	1.4	valid	0.5665331249983865	53248	0	1	2	53248	1	53248	1	51200	0	0.7	53248	brown	green	0	2	ml	2.7.3	lorasick	sub-04_ses-01_task-ml_proj-lorasick_2020-11-10-14-09-59.505335
28	4	1	1	29	volatile	2	20	9	vs	green	brown	green	brown	left	right	0.30000000000000004	0.7	6	4	1.8000000000000005	2.8	0	1	0.30000000000000004	0.7	6	4	1.8000000000000005	2.8	valid	0.43324016999758896	53248	0	1	2	53248	1	53248	1	51200	0	0.7	53248	brown	green	0	4	ml	2.7.3	lorasick	sub-04_ses-01_task-ml_proj-lorasick_2020-11-10-14-09-59.505335
29	4	1	1	30	volatile	2	20	10	vs	green	brown	green	brown	left	right	0.30000000000000004	0.7	4	6	1.2000000000000002	4.199999999999998	1	0	0.30000000000000004	0.7	4	6	1.2000000000000002	4.199999999999998	invalid	0.4332409689995984	53248	0	1	2	53248	1	53248	1	53248	1	0.7	53248	brown	green	1	0	ml	2.7.3	lorasick	sub-04_ses-01_task-ml_proj-lorasick_2020-11-10-14-09-59.505335
30	4	1	1	31	volatile	2	20	11	vs	brown	green	green	brown	right	left	0.30000000000000004	0.7	6	6	1.8000000000000005	4.199999999999998	0	1	0.7	0.30000000000000004	6	6	4.199999999999998	1.8000000000000005	valid	0.7497998639992147	51200	0	0	2	51200	1	51200	1	53248	0	0.7	51200	brown	green	1	6	ml	2.7.3	lorasick	sub-04_ses-01_task-ml_proj-lorasick_2020-11-10-14-09-59.505335
31	4	1	1	32	volatile	2	20	12	vs	brown	green	green	brown	right	left	0.30000000000000004	0.7	4	2	1.2000000000000002	1.4	0	1	0.7	0.30000000000000004	2	4	1.4	1.2000000000000002	valid	0.5831853159979801	51200	0	0	2	51200	1	51200	1	53248	0	0.7	51200	brown	green	0	2	ml	2.7.3	lorasick	sub-04_ses-01_task-ml_proj-lorasick_2020-11-10-14-09-59.505335
32	4	1	1	33	volatile	2	20	13	vs	green	brown	green	brown	left	right	0.30000000000000004	0.7	2	2	0.6000000000000001	1.4	0	1	0.30000000000000004	0.7	2	2	0.6000000000000001	1.4	valid	0.6165209620012321	53248	0	1	2	53248	1	53248	1	53248	1	0.7	53248	brown	green	0	2	ml	2.7.3	lorasick	sub-04_ses-01_task-ml_proj-lorasick_2020-11-10-14-09-59.505335
33	4	1	1	34	volatile	2	20	14	vs	brown	green	green	brown	right	left	0.30000000000000004	0.7	6	2	1.8000000000000005	1.4	1	0	0.7	0.30000000000000004	2	6	1.4	1.8000000000000005	invalid	0.5831840710015967	51200	0	0	2	53248	0	51200	1	53248	0	0.7	51200	brown	green	0	0	ml	2.7.3	lorasick	sub-04_ses-01_task-ml_proj-lorasick_2020-11-10-14-09-59.505335
34	4	1	1	35	volatile	2	20	15	vs	brown	green	green	brown	right	left	0.30000000000000004	0.7	10	2	3.0000000000000004	1.4	0	1	0.7	0.30000000000000004	2	10	1.4	3.0000000000000004	valid	0.4498918169992976	51200	0	0	2	53248	0	51200	1	53248	0	0.7	51200	brown	green	0	2	ml	2.7.3	lorasick	sub-04_ses-01_task-ml_proj-lorasick_2020-11-10-14-09-59.505335
35	4	1	1	36	volatile	2	20	16	vs	brown	green	green	brown	right	left	0.30000000000000004	0.7	2	10	0.6000000000000001	7.0	1	0	0.7	0.30000000000000004	10	2	7.0	0.6000000000000001	invalid	0.6665051830023003	53248	0	1	1	51200	0	51200	0	51200	0	0.7	51200	brown	green	1	2	ml	2.7.3	lorasick	sub-04_ses-01_task-ml_proj-lorasick_2020-11-10-14-09-59.505335
36	4	1	1	37	volatile	2	20	17	vs	green	brown	green	brown	left	right	0.30000000000000004	0.7	2	10	0.6000000000000001	7.0	1	0	0.30000000000000004	0.7	2	10	0.6000000000000001	7.0	invalid	1.1663551269994061	53248	0	1	2	53248	1	53248	1	53248	1	0.7	53248	brown	green	1	0	ml	2.7.3	lorasick	sub-04_ses-01_task-ml_proj-lorasick_2020-11-10-14-09-59.505335
37	4	1	1	38	volatile	2	20	18	vs	green	brown	green	brown	left	right	0.30000000000000004	0.7	10	2	3.0000000000000004	1.4	0	1	0.30000000000000004	0.7	10	2	3.0000000000000004	1.4	valid	1.249663208000129	53248	0	1	2	51200	0	53248	1	51200	0	0.7	53248	brown	green	0	2	ml	2.7.3	lorasick	sub-04_ses-01_task-ml_proj-lorasick_2020-11-10-14-09-59.505335
38	4	1	1	39	volatile	2	20	19	vs	brown	green	green	brown	right	left	0.30000000000000004	0.7	6	4	1.8000000000000005	2.8	0	1	0.7	0.30000000000000004	4	6	2.8	1.8000000000000005	valid	0.8331097009977384	51200	0	0	2	51200	1	51200	1	53248	0	0.7	51200	brown	green	0	4	ml	2.7.3	lorasick	sub-04_ses-01_task-ml_proj-lorasick_2020-11-10-14-09-59.505335
39	4	1	1	40	volatile	2	20	20	vs	green	brown	green	brown	left	right	0.30000000000000004	0.7	2	6	0.6000000000000001	4.199999999999998	0	1	0.30000000000000004	0.7	2	6	0.6000000000000001	4.199999999999998	valid	0.9330938009989042	53248	0	1	2	53248	1	53248	1	53248	1	0.7	53248	brown	green	1	6	ml	2.7.3	lorasick	sub-04_ses-01_task-ml_proj-lorasick_2020-11-10-14-09-59.505335
40	4	1	1	41	volatile	3	40	1	vs	green	brown	green	brown	left	right	0.7	0.30000000000000004	4	2	2.8	0.6000000000000001	1	0	0.7	0.30000000000000004	4	2	2.8	0.6000000000000001	valid	0.5998954289971152	53248	0	1	2	51200	0	51200	0	51200	0	0.7	51200	green	brown	1	0	ml	2.7.3	lorasick	sub-04_ses-01_task-ml_proj-lorasick_2020-11-10-14-09-59.505335
41	4	1	1	42	volatile	3	40	2	vs	brown	green	green	brown	right	left	0.7	0.30000000000000004	6	4	4.199999999999998	1.2000000000000002	0	1	0.30000000000000004	0.7	4	6	1.2000000000000002	4.199999999999998	invalid	0.6998188430006849	51200	0	0	2	53248	0	53248	0	53248	0	0.7	53248	green	brown	1	4	ml	2.7.3	lorasick	sub-04_ses-01_task-ml_proj-lorasick_2020-11-10-14-09-59.505335
42	4	1	1	43	volatile	3	40	3	vs	green	brown	green	brown	left	right	0.7	0.30000000000000004	6	6	4.199999999999998	1.8000000000000005	0	1	0.7	0.30000000000000004	6	6	4.199999999999998	1.8000000000000005	invalid	0.7831381500000134	53248	0	1	2	51200	0	51200	0	53248	1	0.7	51200	green	brown	1	6	ml	2.7.3	lorasick	sub-04_ses-01_task-ml_proj-lorasick_2020-11-10-14-09-59.505335
43	4	1	1	44	volatile	3	40	4	vs	green	brown	green	brown	left	right	0.7	0.30000000000000004	4	2	2.8	0.6000000000000001	1	0	0.7	0.30000000000000004	4	2	2.8	0.6000000000000001	valid	0.5998578130020178	53248	0	1	2	51200	0	51200	0	51200	0	0.7	51200	green	brown	1	0	ml	2.7.3	lorasick	sub-04_ses-01_task-ml_proj-lorasick_2020-11-10-14-09-59.505335
44	4	1	1	45	volatile	3	40	5	vs	green	brown	green	brown	left	right	0.7	0.30000000000000004	10	2	7.0	0.6000000000000001	1	0	0.7	0.30000000000000004	10	2	7.0	0.6000000000000001	valid	1.3163168679966477	53248	0	1	2	51200	0	51200	0	51200	0	0.7	51200	green	brown	1	0	ml	2.7.3	lorasick	sub-04_ses-01_task-ml_proj-lorasick_2020-11-10-14-09-59.505335
45	4	1	1	46	volatile	3	40	6	vs	brown	green	green	brown	right	left	0.7	0.30000000000000004	10	2	7.0	0.6000000000000001	1	0	0.30000000000000004	0.7	2	10	0.6000000000000001	7.0	valid	1.3996176280015789	53248	0	1	1	53248	1	53248	1	53248	1	0.7	53248	green	brown	1	10	ml	2.7.3	lorasick	sub-04_ses-01_task-ml_proj-lorasick_2020-11-10-14-09-59.505335
46	4	1	1	47	volatile	3	40	7	vs	green	brown	green	brown	left	right	0.7	0.30000000000000004	6	4	4.199999999999998	1.2000000000000002	1	0	0.7	0.30000000000000004	6	4	4.199999999999998	1.2000000000000002	valid	0.46655328300039395	51200	0	0	1	51200	1	51200	1	51200	1	0.7	51200	green	brown	1	6	ml	2.7.3	lorasick	sub-04_ses-01_task-ml_proj-lorasick_2020-11-10-14-09-59.505335
47	4	1	1	48	volatile	3	40	8	vs	brown	green	green	brown	right	left	0.7	0.30000000000000004	6	4	4.199999999999998	1.2000000000000002	1	0	0.30000000000000004	0.7	4	6	1.2000000000000002	4.199999999999998	valid	0.3999211500013189	53248	0	1	1	53248	1	53248	1	53248	1	0.7	53248	green	brown	1	6	ml	2.7.3	lorasick	sub-04_ses-01_task-ml_proj-lorasick_2020-11-10-14-09-59.505335
48	4	1	1	49	volatile	3	40	9	vs	brown	green	green	brown	right	left	0.7	0.30000000000000004	2	2	1.4	0.6000000000000001	1	0	0.30000000000000004	0.7	2	2	0.6000000000000001	1.4	valid	0.5165475920002791	53248	0	1	1	53248	1	53248	1	53248	1	0.7	53248	green	brown	0	2	ml	2.7.3	lorasick	sub-04_ses-01_task-ml_proj-lorasick_2020-11-10-14-09-59.505335
49	4	1	1	50	volatile	3	40	10	vs	green	brown	green	brown	left	right	0.7	0.30000000000000004	2	2	1.4	0.6000000000000001	0	1	0.7	0.30000000000000004	2	2	1.4	0.6000000000000001	invalid	0.4332277650028118	51200	0	0	1	51200	1	51200	1	53248	0	0.7	51200	green	brown	1	0	ml	2.7.3	lorasick	sub-04_ses-01_task-ml_proj-lorasick_2020-11-10-14-09-59.505335
50	4	1	2	51	volatile	3	40	11	vs	brown	green	green	brown	right	left	0.7	0.30000000000000004	4	6	2.8	1.8000000000000005	1	0	0.30000000000000004	0.7	6	4	1.8000000000000005	2.8	valid	1.1830070819996763	51200	0	0	2	53248	0	53248	0	51200	1	0.7	53248	green	brown	0	0	ml	2.7.3	lorasick	sub-04_ses-01_task-ml_proj-lorasick_2020-11-10-14-09-59.505335
51	4	1	2	52	volatile	3	40	12	vs	brown	green	green	brown	right	left	0.7	0.30000000000000004	2	2	1.4	0.6000000000000001	0	1	0.30000000000000004	0.7	2	2	0.6000000000000001	1.4	invalid	1.3663021819993446	51200	0	0	2	53248	0	53248	0	53248	0	0.7	53248	green	brown	0	2	ml	2.7.3	lorasick	sub-04_ses-01_task-ml_proj-lorasick_2020-11-10-14-09-59.505335
52	4	1	2	53	volatile	3	40	13	vs	green	brown	green	brown	left	right	0.7	0.30000000000000004	6	2	4.199999999999998	0.6000000000000001	1	0	0.7	0.30000000000000004	6	2	4.199999999999998	0.6000000000000001	valid	0.8497809669970593	53248	0	1	2	51200	0	51200	0	51200	0	0.7	51200	green	brown	1	0	ml	2.7.3	lorasick	sub-04_ses-01_task-ml_proj-lorasick_2020-11-10-14-09-59.505335
53	4	1	2	54	volatile	3	40	14	vs	green	brown	green	brown	left	right	0.7	0.30000000000000004	2	10	1.4	3.0000000000000004	0	1	0.7	0.30000000000000004	2	10	1.4	3.0000000000000004	invalid	1.1496851189986046	53248	0	1	2	53248	1	51200	0	53248	1	0.7	51200	green	brown	0	10	ml	2.7.3	lorasick	sub-04_ses-01_task-ml_proj-lorasick_2020-11-10-14-09-59.505335
54	4	1	2	55	volatile	3	40	15	vs	green	brown	green	brown	left	right	0.7	0.30000000000000004	6	2	4.199999999999998	0.6000000000000001	1	0	0.7	0.30000000000000004	6	2	4.199999999999998	0.6000000000000001	valid	0.9830943430024491	53248	0	1	2	51200	0	51200	0	51200	0	0.7	51200	green	brown	1	0	ml	2.7.3	lorasick	sub-04_ses-01_task-ml_proj-lorasick_2020-11-10-14-09-59.505335
55	4	1	2	56	volatile	3	40	16	vs	green	brown	green	brown	left	right	0.7	0.30000000000000004	2	10	1.4	3.0000000000000004	1	0	0.7	0.30000000000000004	2	10	1.4	3.0000000000000004	valid	1.0164055370005372	53248	0	1	2	53248	1	51200	0	53248	1	0.7	51200	green	brown	0	0	ml	2.7.3	lorasick	sub-04_ses-01_task-ml_proj-lorasick_2020-11-10-14-09-59.505335
56	4	1	2	57	volatile	3	40	17	vs	green	brown	green	brown	left	right	0.7	0.30000000000000004	4	2	2.8	0.6000000000000001	0	1	0.7	0.30000000000000004	4	2	2.8	0.6000000000000001	invalid	0.4498888010020892	51200	0	0	1	51200	1	51200	1	51200	1	0.7	51200	green	brown	1	0	ml	2.7.3	lorasick	sub-04_ses-01_task-ml_proj-lorasick_2020-11-10-14-09-59.505335
57	4	1	2	58	volatile	3	40	18	vs	green	brown	green	brown	left	right	0.7	0.30000000000000004	6	6	4.199999999999998	1.8000000000000005	0	1	0.7	0.30000000000000004	6	6	4.199999999999998	1.8000000000000005	invalid	0.9830753219976032	53248	0	1	2	51200	0	51200	0	53248	1	0.7	51200	green	brown	1	6	ml	2.7.3	lorasick	sub-04_ses-01_task-ml_proj-lorasick_2020-11-10-14-09-59.505335
58	4	1	2	59	volatile	3	40	19	vs	brown	green	green	brown	right	left	0.7	0.30000000000000004	6	2	4.199999999999998	0.6000000000000001	0	1	0.30000000000000004	0.7	2	6	0.6000000000000001	4.199999999999998	invalid	0.5998461070012127	51200	0	0	2	53248	0	53248	0	53248	0	0.7	53248	green	brown	1	2	ml	2.7.3	lorasick	sub-04_ses-01_task-ml_proj-lorasick_2020-11-10-14-09-59.505335
59	4	1	2	60	volatile	3	40	20	vs	brown	green	green	brown	right	left	0.7	0.30000000000000004	2	6	1.4	1.8000000000000005	1	0	0.30000000000000004	0.7	6	2	1.8000000000000005	1.4	valid	0.5998710460007715	51200	0	0	2	51200	1	53248	0	51200	1	0.7	53248	green	brown	0	0	ml	2.7.3	lorasick	sub-04_ses-01_task-ml_proj-lorasick_2020-11-10-14-09-59.505335
60	4	1	2	61	volatile	3	40	21	vs	green	brown	green	brown	left	right	0.7	0.30000000000000004	2	4	1.4	1.2000000000000002	1	0	0.7	0.30000000000000004	2	4	1.4	1.2000000000000002	valid	0.4998879169979773	53248	0	1	2	51200	0	51200	0	53248	1	0.7	51200	green	brown	0	0	ml	2.7.3	lorasick	sub-04_ses-01_task-ml_proj-lorasick_2020-11-10-14-09-59.505335
61	4	1	2	62	volatile	3	40	22	vs	green	brown	green	brown	left	right	0.7	0.30000000000000004	4	6	2.8	1.8000000000000005	0	1	0.7	0.30000000000000004	4	6	2.8	1.8000000000000005	invalid	0.4665543290029746	51200	0	0	1	51200	1	51200	1	53248	0	0.7	51200	green	brown	0	0	ml	2.7.3	lorasick	sub-04_ses-01_task-ml_proj-lorasick_2020-11-10-14-09-59.505335
62	4	1	2	63	volatile	3	40	23	vs	brown	green	green	brown	right	left	0.7	0.30000000000000004	4	2	2.8	0.6000000000000001	1	0	0.30000000000000004	0.7	2	4	0.6000000000000001	2.8	valid	0.4665644289998454	53248	0	1	1	53248	1	53248	1	53248	1	0.7	53248	green	brown	1	4	ml	2.7.3	lorasick	sub-04_ses-01_task-ml_proj-lorasick_2020-11-10-14-09-59.505335
63	4	1	2	64	volatile	3	40	24	vs	brown	green	green	brown	right	left	0.7	0.30000000000000004	6	2	4.199999999999998	0.6000000000000001	1	0	0.30000000000000004	0.7	2	6	0.6000000000000001	4.199999999999998	valid	0.3999099510001543	53248	0	1	1	53248	1	53248	1	53248	1	0.7	53248	green	brown	1	6	ml	2.7.3	lorasick	sub-04_ses-01_task-ml_proj-lorasick_2020-11-10-14-09-59.505335
64	4	1	2	65	volatile	3	40	25	vs	brown	green	green	brown	right	left	0.7	0.30000000000000004	2	10	1.4	3.0000000000000004	1	0	0.30000000000000004	0.7	10	2	3.0000000000000004	1.4	valid	1.3662838860000193	51200	0	0	2	51200	1	53248	0	51200	1	0.7	53248	green	brown	0	0	ml	2.7.3	lorasick	sub-04_ses-01_task-ml_proj-lorasick_2020-11-10-14-09-59.505335
65	4	1	2	66	volatile	3	40	26	vs	brown	green	green	brown	right	left	0.7	0.30000000000000004	2	10	1.4	3.0000000000000004	1	0	0.30000000000000004	0.7	10	2	3.0000000000000004	1.4	valid	0.6498401530006959	53248	0	1	1	51200	0	53248	1	51200	0	0.7	53248	green	brown	0	2	ml	2.7.3	lorasick	sub-04_ses-01_task-ml_proj-lorasick_2020-11-10-14-09-59.505335
66	4	1	2	67	volatile	3	40	27	vs	brown	green	green	brown	right	left	0.7	0.30000000000000004	10	2	7.0	0.6000000000000001	1	0	0.30000000000000004	0.7	2	10	0.6000000000000001	7.0	valid	0.9830750750006702	53248	0	1	1	53248	1	53248	1	53248	1	0.7	53248	green	brown	1	10	ml	2.7.3	lorasick	sub-04_ses-01_task-ml_proj-lorasick_2020-11-10-14-09-59.505335
67	4	1	2	68	volatile	3	40	28	vs	green	brown	green	brown	left	right	0.7	0.30000000000000004	2	4	1.4	1.2000000000000002	1	0	0.7	0.30000000000000004	2	4	1.4	1.2000000000000002	valid	0.6165096929980791	51200	0	0	1	51200	1	51200	1	53248	0	0.7	51200	green	brown	0	2	ml	2.7.3	lorasick	sub-04_ses-01_task-ml_proj-lorasick_2020-11-10-14-09-59.505335
68	4	1	2	69	volatile	3	40	29	vs	brown	green	green	brown	right	left	0.7	0.30000000000000004	6	2	4.199999999999998	0.6000000000000001	1	0	0.30000000000000004	0.7	2	6	0.6000000000000001	4.199999999999998	valid	0.549870162998559	53248	0	1	1	53248	1	53248	1	53248	1	0.7	53248	green	brown	1	6	ml	2.7.3	lorasick	sub-04_ses-01_task-ml_proj-lorasick_2020-11-10-14-09-59.505335
69	4	1	2	70	volatile	3	40	30	vs	brown	green	green	brown	right	left	0.7	0.30000000000000004	6	6	4.199999999999998	1.8000000000000005	1	0	0.30000000000000004	0.7	6	6	1.8000000000000005	4.199999999999998	valid	0.5498665759987489	53248	0	1	1	53248	1	53248	1	53248	1	0.7	53248	green	brown	0	6	ml	2.7.3	lorasick	sub-04_ses-01_task-ml_proj-lorasick_2020-11-10-14-09-59.505335
70	4	1	2	71	volatile	3	40	31	vs	green	brown	green	brown	left	right	0.7	0.30000000000000004	6	4	4.199999999999998	1.2000000000000002	1	0	0.7	0.30000000000000004	6	4	4.199999999999998	1.2000000000000002	valid	0.6165021540000453	51200	0	0	1	51200	1	51200	1	51200	1	0.7	51200	green	brown	1	6	ml	2.7.3	lorasick	sub-04_ses-01_task-ml_proj-lorasick_2020-11-10-14-09-59.505335
71	4	1	2	72	volatile	3	40	32	vs	brown	green	green	brown	right	left	0.7	0.30000000000000004	4	6	2.8	1.8000000000000005	0	1	0.30000000000000004	0.7	6	4	1.8000000000000005	2.8	invalid	0.7331580589998339	53248	0	1	1	53248	1	53248	1	51200	0	0.7	53248	green	brown	0	0	ml	2.7.3	lorasick	sub-04_ses-01_task-ml_proj-lorasick_2020-11-10-14-09-59.505335
72	4	1	2	73	volatile	3	40	33	vs	brown	green	green	brown	right	left	0.7	0.30000000000000004	6	6	4.199999999999998	1.8000000000000005	1	0	0.30000000000000004	0.7	6	6	1.8000000000000005	4.199999999999998	valid	0.46658235399809206	53248	0	1	1	53248	1	53248	1	53248	1	0.7	53248	green	brown	0	6	ml	2.7.3	lorasick	sub-04_ses-01_task-ml_proj-lorasick_2020-11-10-14-09-59.505335
73	4	1	2	74	volatile	3	40	34	vs	brown	green	green	brown	right	left	0.7	0.30000000000000004	2	10	1.4	3.0000000000000004	0	1	0.30000000000000004	0.7	10	2	3.0000000000000004	1.4	invalid	0.6331798120008898	53248	0	1	1	51200	0	53248	1	51200	0	0.7	53248	green	brown	0	0	ml	2.7.3	lorasick	sub-04_ses-01_task-ml_proj-lorasick_2020-11-10-14-09-59.505335
74	4	1	2	75	volatile	3	40	35	vs	green	brown	green	brown	left	right	0.7	0.30000000000000004	2	4	1.4	1.2000000000000002	1	0	0.7	0.30000000000000004	2	4	1.4	1.2000000000000002	valid	0.8164491769966844	51200	0	0	1	51200	1	51200	1	53248	0	0.7	51200	green	brown	0	2	ml	2.7.3	lorasick	sub-04_ses-01_task-ml_proj-lorasick_2020-11-10-14-09-59.505335
75	4	1	2	76	volatile	3	40	36	vs	green	brown	green	brown	left	right	0.7	0.30000000000000004	2	6	1.4	1.8000000000000005	1	0	0.7	0.30000000000000004	2	6	1.4	1.8000000000000005	valid	1.4162647999983164	51200	0	0	1	53248	0	51200	1	53248	0	0.7	51200	green	brown	0	2	ml	2.7.3	lorasick	sub-04_ses-01_task-ml_proj-lorasick_2020-11-10-14-09-59.505335
76	4	1	2	77	volatile	3	40	37	vs	green	brown	green	brown	left	right	0.7	0.30000000000000004	4	6	2.8	1.8000000000000005	1	0	0.7	0.30000000000000004	4	6	2.8	1.8000000000000005	valid	0.6998157529997115	51200	0	0	1	51200	1	51200	1	53248	0	0.7	51200	green	brown	0	4	ml	2.7.3	lorasick	sub-04_ses-01_task-ml_proj-lorasick_2020-11-10-14-09-59.505335
77	4	1	2	78	volatile	3	40	38	vs	brown	green	green	brown	right	left	0.7	0.30000000000000004	2	2	1.4	0.6000000000000001	1	0	0.30000000000000004	0.7	2	2	0.6000000000000001	1.4	valid	0.9830712789989776	53248	0	1	1	53248	1	53248	1	53248	1	0.7	53248	green	brown	0	2	ml	2.7.3	lorasick	sub-04_ses-01_task-ml_proj-lorasick_2020-11-10-14-09-59.505335
78	4	1	2	79	volatile	3	40	39	vs	brown	green	green	brown	right	left	0.7	0.30000000000000004	2	4	1.4	1.2000000000000002	0	1	0.30000000000000004	0.7	4	2	1.2000000000000002	1.4	invalid	1.0663841199966555	53248	0	1	1	53248	1	53248	1	51200	0	0.7	53248	green	brown	0	0	ml	2.7.3	lorasick	sub-04_ses-01_task-ml_proj-lorasick_2020-11-10-14-09-59.505335
79	4	1	2	80	volatile	3	40	40	vs	green	brown	green	brown	left	right	0.7	0.30000000000000004	6	2	4.199999999999998	0.6000000000000001	1	0	0.7	0.30000000000000004	6	2	4.199999999999998	0.6000000000000001	valid	0.8831016639996959	51200	0	0	1	51200	1	51200	1	51200	1	0.7	51200	green	brown	1	6	ml	2.7.3	lorasick	sub-04_ses-01_task-ml_proj-lorasick_2020-11-10-14-09-59.505335
80	4	1	2	81	volatile	4	40	1	vs	green	brown	green	brown	left	right	0.30000000000000004	0.7	2	6	0.6000000000000001	4.199999999999998	0	1	0.30000000000000004	0.7	2	6	0.6000000000000001	4.199999999999998	valid	0.7331388679995143	51200	0	0	1	53248	0	53248	0	53248	0	0.7	53248	brown	green	1	0	ml	2.7.3	lorasick	sub-04_ses-01_task-ml_proj-lorasick_2020-11-10-14-09-59.505335
81	4	1	2	82	volatile	4	40	2	vs	brown	green	green	brown	right	left	0.30000000000000004	0.7	10	2	3.0000000000000004	1.4	0	1	0.7	0.30000000000000004	2	10	1.4	3.0000000000000004	valid	1.349632293000468	53248	0	1	1	53248	1	51200	0	53248	1	0.7	51200	brown	green	0	0	ml	2.7.3	lorasick	sub-04_ses-01_task-ml_proj-lorasick_2020-11-10-14-09-59.505335
82	4	1	2	83	volatile	4	40	3	vs	green	brown	green	brown	left	right	0.30000000000000004	0.7	2	2	0.6000000000000001	1.4	0	1	0.30000000000000004	0.7	2	2	0.6000000000000001	1.4	valid	0.7664756960002705	53248	0	1	2	53248	1	53248	1	53248	1	0.7	53248	brown	green	0	2	ml	2.7.3	lorasick	sub-04_ses-01_task-ml_proj-lorasick_2020-11-10-14-09-59.505335
83	4	1	2	84	volatile	4	40	4	vs	brown	green	green	brown	right	left	0.30000000000000004	0.7	4	2	1.2000000000000002	1.4	0	1	0.7	0.30000000000000004	2	4	1.4	1.2000000000000002	valid	0.566522179000458	51200	0	0	2	51200	1	51200	1	53248	0	0.7	51200	brown	green	0	2	ml	2.7.3	lorasick	sub-04_ses-01_task-ml_proj-lorasick_2020-11-10-14-09-59.505335
84	4	1	2	85	volatile	4	40	5	vs	brown	green	green	brown	right	left	0.30000000000000004	0.7	2	6	0.6000000000000001	4.199999999999998	0	1	0.7	0.30000000000000004	6	2	4.199999999999998	0.6000000000000001	valid	0.6998160370021651	51200	0	0	2	51200	1	51200	1	51200	1	0.7	51200	brown	green	1	6	ml	2.7.3	lorasick	sub-04_ses-01_task-ml_proj-lorasick_2020-11-10-14-09-59.505335
85	4	1	2	86	volatile	4	40	6	vs	brown	green	green	brown	right	left	0.30000000000000004	0.7	2	10	0.6000000000000001	7.0	0	1	0.7	0.30000000000000004	10	2	7.0	0.6000000000000001	valid	0.5331983960022626	51200	0	0	2	51200	1	51200	1	51200	1	0.7	51200	brown	green	1	10	ml	2.7.3	lorasick	sub-04_ses-01_task-ml_proj-lorasick_2020-11-10-14-09-59.505335
86	4	1	2	87	volatile	4	40	7	vs	green	brown	green	brown	left	right	0.30000000000000004	0.7	4	6	1.2000000000000002	4.199999999999998	0	1	0.30000000000000004	0.7	4	6	1.2000000000000002	4.199999999999998	valid	0.4832254440007091	53248	0	1	2	53248	1	53248	1	53248	1	0.7	53248	brown	green	1	6	ml	2.7.3	lorasick	sub-04_ses-01_task-ml_proj-lorasick_2020-11-10-14-09-59.505335
87	4	1	2	88	volatile	4	40	8	vs	green	brown	green	brown	left	right	0.30000000000000004	0.7	6	4	1.8000000000000005	2.8	0	1	0.30000000000000004	0.7	6	4	1.8000000000000005	2.8	valid	0.5332167250016937	53248	0	1	2	53248	1	53248	1	51200	0	0.7	53248	brown	green	0	4	ml	2.7.3	lorasick	sub-04_ses-01_task-ml_proj-lorasick_2020-11-10-14-09-59.505335
88	4	1	2	89	volatile	4	40	9	vs	brown	green	green	brown	right	left	0.30000000000000004	0.7	4	6	1.2000000000000002	4.199999999999998	0	1	0.7	0.30000000000000004	6	4	4.199999999999998	1.2000000000000002	valid	0.9330800339994312	51200	0	0	2	51200	1	51200	1	51200	1	0.7	51200	brown	green	1	6	ml	2.7.3	lorasick	sub-04_ses-01_task-ml_proj-lorasick_2020-11-10-14-09-59.505335
89	4	1	2	90	volatile	4	40	10	vs	green	brown	green	brown	left	right	0.30000000000000004	0.7	2	4	0.6000000000000001	2.8	0	1	0.30000000000000004	0.7	2	4	0.6000000000000001	2.8	valid	0.5998635430005379	53248	0	1	2	53248	1	53248	1	53248	1	0.7	53248	brown	green	1	4	ml	2.7.3	lorasick	sub-04_ses-01_task-ml_proj-lorasick_2020-11-10-14-09-59.505335
90	4	1	2	91	volatile	4	40	11	vs	green	brown	green	brown	left	right	0.30000000000000004	0.7	2	4	0.6000000000000001	2.8	0	1	0.30000000000000004	0.7	2	4	0.6000000000000001	2.8	valid	0.6165262790018461	53248	0	1	2	53248	1	53248	1	53248	1	0.7	53248	brown	green	1	4	ml	2.7.3	lorasick	sub-04_ses-01_task-ml_proj-lorasick_2020-11-10-14-09-59.505335
91	4	1	2	92	volatile	4	40	12	vs	brown	green	green	brown	right	left	0.30000000000000004	0.7	2	2	0.6000000000000001	1.4	1	0	0.7	0.30000000000000004	2	2	1.4	0.6000000000000001	invalid	0.5831830380011525	51200	0	0	2	51200	1	51200	1	53248	0	0.7	51200	brown	green	1	0	ml	2.7.3	lorasick	sub-04_ses-01_task-ml_proj-lorasick_2020-11-10-14-09-59.505335
92	4	1	2	93	volatile	4	40	13	vs	brown	green	green	brown	right	left	0.30000000000000004	0.7	2	4	0.6000000000000001	2.8	1	0	0.7	0.30000000000000004	4	2	2.8	0.6000000000000001	invalid	0.4332306440010143	51200	0	0	2	51200	1	51200	1	51200	1	0.7	51200	brown	green	1	0	ml	2.7.3	lorasick	sub-04_ses-01_task-ml_proj-lorasick_2020-11-10-14-09-59.505335
93	4	1	2	94	volatile	4	40	14	vs	brown	green	green	brown	right	left	0.30000000000000004	0.7	4	6	1.2000000000000002	4.199999999999998	0	1	0.7	0.30000000000000004	6	4	4.199999999999998	1.2000000000000002	valid	0.7164887539984193	53248	0	1	1	51200	0	51200	0	51200	0	0.7	51200	brown	green	1	0	ml	2.7.3	lorasick	sub-04_ses-01_task-ml_proj-lorasick_2020-11-10-14-09-59.505335
94	4	1	2	95	volatile	4	40	15	vs	green	brown	green	brown	left	right	0.30000000000000004	0.7	4	6	1.2000000000000002	4.199999999999998	1	0	0.30000000000000004	0.7	4	6	1.2000000000000002	4.199999999999998	invalid	0.5331973590000416	51200	0	0	1	53248	0	53248	0	53248	0	0.7	53248	brown	green	1	4	ml	2.7.3	lorasick	sub-04_ses-01_task-ml_proj-lorasick_2020-11-10-14-09-59.505335
95	4	1	2	96	volatile	4	40	16	vs	brown	green	green	brown	right	left	0.30000000000000004	0.7	6	2	1.8000000000000005	1.4	0	1	0.7	0.30000000000000004	2	6	1.4	1.8000000000000005	valid	0.5831911789973674	53248	0	1	1	53248	1	51200	0	53248	1	0.7	51200	brown	green	0	0	ml	2.7.3	lorasick	sub-04_ses-01_task-ml_proj-lorasick_2020-11-10-14-09-59.505335
96	4	1	2	97	volatile	4	40	17	vs	brown	green	green	brown	right	left	0.30000000000000004	0.7	6	2	1.8000000000000005	1.4	0	1	0.7	0.30000000000000004	2	6	1.4	1.8000000000000005	valid	0.3666004500009876	53248	0	1	1	53248	1	51200	0	53248	1	0.7	51200	brown	green	0	0	ml	2.7.3	lorasick	sub-04_ses-01_task-ml_proj-lorasick_2020-11-10-14-09-59.505335
97	4	1	2	98	volatile	4	40	18	vs	brown	green	green	brown	right	left	0.30000000000000004	0.7	4	2	1.2000000000000002	1.4	0	1	0.7	0.30000000000000004	2	4	1.4	1.2000000000000002	valid	0.3999052810031571	51200	0	0	2	51200	1	51200	1	53248	0	0.7	51200	brown	green	0	2	ml	2.7.3	lorasick	sub-04_ses-01_task-ml_proj-lorasick_2020-11-10-14-09-59.505335
98	4	1	2	99	volatile	4	40	19	vs	green	brown	green	brown	left	right	0.30000000000000004	0.7	4	2	1.2000000000000002	1.4	1	0	0.30000000000000004	0.7	4	2	1.2000000000000002	1.4	invalid	0.6331820179984788	53248	0	1	2	53248	1	53248	1	51200	0	0.7	53248	brown	green	0	0	ml	2.7.3	lorasick	sub-04_ses-01_task-ml_proj-lorasick_2020-11-10-14-09-59.505335
99	4	1	2	100	volatile	4	40	20	vs	green	brown	green	brown	left	right	0.30000000000000004	0.7	6	2	1.8000000000000005	1.4	0	1	0.30000000000000004	0.7	6	2	1.8000000000000005	1.4	valid	0.41657760399903054	53248	0	1	2	51200	0	53248	1	51200	0	0.7	53248	brown	green	0	2	ml	2.7.3	lorasick	sub-04_ses-01_task-ml_proj-lorasick_2020-11-10-14-09-59.505335
100	4	1	3	101	volatile	4	40	21	vs	brown	green	green	brown	right	left	0.30000000000000004	0.7	6	6	1.8000000000000005	4.199999999999998	0	1	0.7	0.30000000000000004	6	6	4.199999999999998	1.8000000000000005	valid	1.2163285329988869	51200	0	0	2	51200	1	51200	1	53248	0	0.7	51200	brown	green	1	6	ml	2.7.3	lorasick	sub-04_ses-01_task-ml_proj-lorasick_2020-11-10-14-09-59.505335
101	4	1	3	102	volatile	4	40	22	vs	brown	green	green	brown	right	left	0.30000000000000004	0.7	2	6	0.6000000000000001	4.199999999999998	0	1	0.7	0.30000000000000004	6	2	4.199999999999998	0.6000000000000001	valid	0.6165094589996443	51200	0	0	2	51200	1	51200	1	51200	1	0.7	51200	brown	green	1	6	ml	2.7.3	lorasick	sub-04_ses-01_task-ml_proj-lorasick_2020-11-10-14-09-59.505335
102	4	1	3	103	volatile	4	40	23	vs	green	brown	green	brown	left	right	0.30000000000000004	0.7	6	2	1.8000000000000005	1.4	0	1	0.30000000000000004	0.7	6	2	1.8000000000000005	1.4	valid	1.1496933170019474	53248	0	1	2	51200	0	53248	1	51200	0	0.7	53248	brown	green	0	2	ml	2.7.3	lorasick	sub-04_ses-01_task-ml_proj-lorasick_2020-11-10-14-09-59.505335
103	4	1	3	104	volatile	4	40	24	vs	green	brown	green	brown	left	right	0.30000000000000004	0.7	2	10	0.6000000000000001	7.0	1	0	0.30000000000000004	0.7	2	10	0.6000000000000001	7.0	invalid	0.9330891609970422	53248	0	1	2	53248	1	53248	1	53248	1	0.7	53248	brown	green	1	0	ml	2.7.3	lorasick	sub-04_ses-01_task-ml_proj-lorasick_2020-11-10-14-09-59.505335
104	4	1	3	105	volatile	4	40	25	vs	green	brown	green	brown	left	right	0.30000000000000004	0.7	2	6	0.6000000000000001	4.199999999999998	0	1	0.30000000000000004	0.7	2	6	0.6000000000000001	4.199999999999998	valid	0.5831959470015136	53248	0	1	2	53248	1	53248	1	53248	1	0.7	53248	brown	green	1	6	ml	2.7.3	lorasick	sub-04_ses-01_task-ml_proj-lorasick_2020-11-10-14-09-59.505335
105	4	1	3	106	volatile	4	40	26	vs	green	brown	green	brown	left	right	0.30000000000000004	0.7	10	2	3.0000000000000004	1.4	0	1	0.30000000000000004	0.7	10	2	3.0000000000000004	1.4	valid	1.4162685800001782	51200	0	0	1	51200	1	53248	0	51200	1	0.7	53248	brown	green	0	0	ml	2.7.3	lorasick	sub-04_ses-01_task-ml_proj-lorasick_2020-11-10-14-09-59.505335
106	4	1	3	107	volatile	4	40	27	vs	green	brown	green	brown	left	right	0.30000000000000004	0.7	6	6	1.8000000000000005	4.199999999999998	0	1	0.30000000000000004	0.7	6	6	1.8000000000000005	4.199999999999998	valid	0.9664093579995096	53248	0	1	2	53248	1	53248	1	53248	1	0.7	53248	brown	green	0	6	ml	2.7.3	lorasick	sub-04_ses-01_task-ml_proj-lorasick_2020-11-10-14-09-59.505335
107	4	1	3	108	volatile	4	40	28	vs	brown	green	green	brown	right	left	0.30000000000000004	0.7	2	4	0.6000000000000001	2.8	0	1	0.7	0.30000000000000004	4	2	2.8	0.6000000000000001	valid	0.8997563619996072	51200	0	0	2	51200	1	51200	1	51200	1	0.7	51200	brown	green	1	4	ml	2.7.3	lorasick	sub-04_ses-01_task-ml_proj-lorasick_2020-11-10-14-09-59.505335
108	4	1	3	109	volatile	4	40	29	vs	brown	green	green	brown	right	left	0.30000000000000004	0.7	10	2	3.0000000000000004	1.4	1	0	0.7	0.30000000000000004	2	10	1.4	3.0000000000000004	invalid	0.9330805989993678	51200	0	0	2	53248	0	51200	1	53248	0	0.7	51200	brown	green	0	0	ml	2.7.3	lorasick	sub-04_ses-01_task-ml_proj-lorasick_2020-11-10-14-09-59.505335
109	4	1	3	110	volatile	4	40	30	vs	green	brown	green	brown	left	right	0.30000000000000004	0.7	4	6	1.2000000000000002	4.199999999999998	0	1	0.30000000000000004	0.7	4	6	1.2000000000000002	4.199999999999998	valid	1.3329713379971508	53248	0	1	2	53248	1	53248	1	53248	1	0.7	53248	brown	green	1	6	ml	2.7.3	lorasick	sub-04_ses-01_task-ml_proj-lorasick_2020-11-10-14-09-59.505335
110	4	1	3	111	volatile	4	40	31	vs	brown	green	green	brown	right	left	0.30000000000000004	0.7	6	6	1.8000000000000005	4.199999999999998	0	1	0.7	0.30000000000000004	6	6	4.199999999999998	1.8000000000000005	valid	0.7997866500008968	51200	0	0	2	51200	1	51200	1	53248	0	0.7	51200	brown	green	1	6	ml	2.7.3	lorasick	sub-04_ses-01_task-ml_proj-lorasick_2020-11-10-14-09-59.505335
111	4	1	3	112	volatile	4	40	32	vs	brown	green	green	brown	right	left	0.30000000000000004	0.7	6	6	1.8000000000000005	4.199999999999998	1	0	0.7	0.30000000000000004	6	6	4.199999999999998	1.8000000000000005	invalid	0.6165084189997287	51200	0	0	2	51200	1	51200	1	53248	0	0.7	51200	brown	green	1	0	ml	2.7.3	lorasick	sub-04_ses-01_task-ml_proj-lorasick_2020-11-10-14-09-59.505335
112	4	1	3	113	volatile	4	40	33	vs	brown	green	green	brown	right	left	0.30000000000000004	0.7	2	10	0.6000000000000001	7.0	1	0	0.7	0.30000000000000004	10	2	7.0	0.6000000000000001	invalid	0.9664115499981564	51200	0	0	2	51200	1	51200	1	51200	1	0.7	51200	brown	green	1	0	ml	2.7.3	lorasick	sub-04_ses-01_task-ml_proj-lorasick_2020-11-10-14-09-59.505335
113	4	1	3	114	volatile	4	40	34	vs	brown	green	green	brown	right	left	0.30000000000000004	0.7	2	10	0.6000000000000001	7.0	0	1	0.7	0.30000000000000004	10	2	7.0	0.6000000000000001	valid	1.3995987929993134	51200	0	0	2	51200	1	51200	1	51200	1	0.7	51200	brown	green	1	10	ml	2.7.3	lorasick	sub-04_ses-01_task-ml_proj-lorasick_2020-11-10-14-09-59.505335
114	4	1	3	115	volatile	4	40	35	vs	green	brown	green	brown	left	right	0.30000000000000004	0.7	4	6	1.2000000000000002	4.199999999999998	1	0	0.30000000000000004	0.7	4	6	1.2000000000000002	4.199999999999998	invalid	0.6165199679999205	53248	0	1	2	53248	1	53248	1	53248	1	0.7	53248	brown	green	1	0	ml	2.7.3	lorasick	sub-04_ses-01_task-ml_proj-lorasick_2020-11-10-14-09-59.505335
115	4	1	3	116	volatile	4	40	36	vs	green	brown	green	brown	left	right	0.30000000000000004	0.7	2	2	0.6000000000000001	1.4	0	1	0.30000000000000004	0.7	2	2	0.6000000000000001	1.4	valid	0.7997873269996489	51200	0	0	1	53248	0	53248	0	53248	0	0.7	53248	brown	green	0	0	ml	2.7.3	lorasick	sub-04_ses-01_task-ml_proj-lorasick_2020-11-10-14-09-59.505335
116	4	1	3	117	volatile	4	40	37	vs	green	brown	green	brown	left	right	0.30000000000000004	0.7	2	2	0.6000000000000001	1.4	1	0	0.30000000000000004	0.7	2	2	0.6000000000000001	1.4	invalid	0.3832592559992918	53248	0	1	2	53248	1	53248	1	53248	1	0.7	53248	brown	green	0	0	ml	2.7.3	lorasick	sub-04_ses-01_task-ml_proj-lorasick_2020-11-10-14-09-59.505335
117	4	1	3	118	volatile	4	40	38	vs	brown	green	green	brown	right	left	0.30000000000000004	0.7	10	2	3.0000000000000004	1.4	1	0	0.7	0.30000000000000004	2	10	1.4	3.0000000000000004	invalid	0.4998751530001755	51200	0	0	2	53248	0	51200	1	53248	0	0.7	51200	brown	green	0	0	ml	2.7.3	lorasick	sub-04_ses-01_task-ml_proj-lorasick_2020-11-10-14-09-59.505335
118	4	1	3	119	volatile	4	40	39	vs	green	brown	green	brown	left	right	0.30000000000000004	0.7	4	2	1.2000000000000002	1.4	0	1	0.30000000000000004	0.7	4	2	1.2000000000000002	1.4	valid	1.5828971040027682	53248	0	1	2	53248	1	53248	1	51200	0	0.7	53248	brown	green	0	2	ml	2.7.3	lorasick	sub-04_ses-01_task-ml_proj-lorasick_2020-11-10-14-09-59.505335
119	4	1	3	120	volatile	4	40	40	vs	green	brown	green	brown	left	right	0.30000000000000004	0.7	6	4	1.8000000000000005	2.8	1	0	0.30000000000000004	0.7	6	4	1.8000000000000005	2.8	invalid	0.4499001219992351	53248	0	1	2	53248	1	53248	1	51200	0	0.7	53248	brown	green	0	0	ml	2.7.3	lorasick	sub-04_ses-01_task-ml_proj-lorasick_2020-11-10-14-09-59.505335
120	4	1	3	121	volatile	5	20	1	vs	green	brown	green	brown	left	right	0.7	0.30000000000000004	2	6	1.4	1.8000000000000005	0	1	0.7	0.30000000000000004	2	6	1.4	1.8000000000000005	invalid	0.4665720509983658	51200	0	0	1	53248	0	51200	1	53248	0	0.7	51200	green	brown	0	0	ml	2.7.3	lorasick	sub-04_ses-01_task-ml_proj-lorasick_2020-11-10-14-09-59.505335
121	4	1	3	122	volatile	5	20	2	vs	brown	green	green	brown	right	left	0.7	0.30000000000000004	4	6	2.8	1.8000000000000005	1	0	0.30000000000000004	0.7	6	4	1.8000000000000005	2.8	valid	0.6331730370002333	53248	0	1	1	53248	1	53248	1	51200	0	0.7	53248	green	brown	0	4	ml	2.7.3	lorasick	sub-04_ses-01_task-ml_proj-lorasick_2020-11-10-14-09-59.505335
122	4	1	3	123	volatile	5	20	3	vs	green	brown	green	brown	left	right	0.7	0.30000000000000004	4	6	2.8	1.8000000000000005	1	0	0.7	0.30000000000000004	4	6	2.8	1.8000000000000005	valid	0.4498989680032537	51200	0	0	1	51200	1	51200	1	53248	0	0.7	51200	green	brown	0	4	ml	2.7.3	lorasick	sub-04_ses-01_task-ml_proj-lorasick_2020-11-10-14-09-59.505335
123	4	1	3	124	volatile	5	20	4	vs	green	brown	green	brown	left	right	0.7	0.30000000000000004	4	2	2.8	0.6000000000000001	0	1	0.7	0.30000000000000004	4	2	2.8	0.6000000000000001	invalid	0.3832469090011728	51200	0	0	1	51200	1	51200	1	51200	1	0.7	51200	green	brown	1	0	ml	2.7.3	lorasick	sub-04_ses-01_task-ml_proj-lorasick_2020-11-10-14-09-59.505335
124	4	1	3	125	volatile	5	20	5	vs	brown	green	green	brown	right	left	0.7	0.30000000000000004	4	2	2.8	0.6000000000000001	1	0	0.30000000000000004	0.7	2	4	0.6000000000000001	2.8	valid	0.649841850001394	53248	0	1	1	53248	1	53248	1	53248	1	0.7	53248	green	brown	1	4	ml	2.7.3	lorasick	sub-04_ses-01_task-ml_proj-lorasick_2020-11-10-14-09-59.505335
125	4	1	3	126	volatile	5	20	6	vs	brown	green	green	brown	right	left	0.7	0.30000000000000004	6	4	4.199999999999998	1.2000000000000002	1	0	0.30000000000000004	0.7	4	6	1.2000000000000002	4.199999999999998	valid	0.43324189499981	53248	0	1	1	53248	1	53248	1	53248	1	0.7	53248	green	brown	1	6	ml	2.7.3	lorasick	sub-04_ses-01_task-ml_proj-lorasick_2020-11-10-14-09-59.505335
126	4	1	3	127	volatile	5	20	7	vs	green	brown	green	brown	left	right	0.7	0.30000000000000004	6	6	4.199999999999998	1.8000000000000005	1	0	0.7	0.30000000000000004	6	6	4.199999999999998	1.8000000000000005	valid	0.449890026000503	51200	0	0	1	51200	1	51200	1	53248	0	0.7	51200	green	brown	1	6	ml	2.7.3	lorasick	sub-04_ses-01_task-ml_proj-lorasick_2020-11-10-14-09-59.505335
127	4	1	3	128	volatile	5	20	8	vs	green	brown	green	brown	left	right	0.7	0.30000000000000004	4	2	2.8	0.6000000000000001	1	0	0.7	0.30000000000000004	4	2	2.8	0.6000000000000001	valid	0.5332003100011207	51200	0	0	1	51200	1	51200	1	51200	1	0.7	51200	green	brown	1	4	ml	2.7.3	lorasick	sub-04_ses-01_task-ml_proj-lorasick_2020-11-10-14-09-59.505335
128	4	1	3	129	volatile	5	20	9	vs	brown	green	green	brown	right	left	0.7	0.30000000000000004	10	2	7.0	0.6000000000000001	0	1	0.30000000000000004	0.7	2	10	0.6000000000000001	7.0	invalid	0.549875468997925	53248	0	1	1	53248	1	53248	1	53248	1	0.7	53248	green	brown	1	0	ml	2.7.3	lorasick	sub-04_ses-01_task-ml_proj-lorasick_2020-11-10-14-09-59.505335
129	4	1	3	130	volatile	5	20	10	vs	green	brown	green	brown	left	right	0.7	0.30000000000000004	10	2	7.0	0.6000000000000001	1	0	0.7	0.30000000000000004	10	2	7.0	0.6000000000000001	valid	0.9164258439996048	51200	0	0	1	51200	1	51200	1	51200	1	0.7	51200	green	brown	1	10	ml	2.7.3	lorasick	sub-04_ses-01_task-ml_proj-lorasick_2020-11-10-14-09-59.505335
130	4	1	3	131	volatile	5	20	11	vs	brown	green	green	brown	right	left	0.7	0.30000000000000004	2	2	1.4	0.6000000000000001	1	0	0.30000000000000004	0.7	2	2	0.6000000000000001	1.4	valid	0.6831694540014723	53248	0	1	1	53248	1	53248	1	53248	1	0.7	53248	green	brown	0	2	ml	2.7.3	lorasick	sub-04_ses-01_task-ml_proj-lorasick_2020-11-10-14-09-59.505335
131	4	1	3	132	volatile	5	20	12	vs	green	brown	green	brown	left	right	0.7	0.30000000000000004	6	4	4.199999999999998	1.2000000000000002	1	0	0.7	0.30000000000000004	6	4	4.199999999999998	1.2000000000000002	valid	0.5498786039970582	51200	0	0	1	51200	1	51200	1	51200	1	0.7	51200	green	brown	1	6	ml	2.7.3	lorasick	sub-04_ses-01_task-ml_proj-lorasick_2020-11-10-14-09-59.505335
132	4	1	3	133	volatile	5	20	13	vs	green	brown	green	brown	left	right	0.7	0.30000000000000004	2	10	1.4	3.0000000000000004	0	1	0.7	0.30000000000000004	2	10	1.4	3.0000000000000004	invalid	0.7164770409981429	51200	0	0	1	53248	0	51200	1	53248	0	0.7	51200	green	brown	0	0	ml	2.7.3	lorasick	sub-04_ses-01_task-ml_proj-lorasick_2020-11-10-14-09-59.505335
133	4	1	3	134	volatile	5	20	14	vs	green	brown	green	brown	left	right	0.7	0.30000000000000004	6	2	4.199999999999998	0.6000000000000001	1	0	0.7	0.30000000000000004	6	2	4.199999999999998	0.6000000000000001	valid	0.4332286509998085	51200	0	0	1	51200	1	51200	1	51200	1	0.7	51200	green	brown	1	6	ml	2.7.3	lorasick	sub-04_ses-01_task-ml_proj-lorasick_2020-11-10-14-09-59.505335
134	4	1	3	135	volatile	5	20	15	vs	green	brown	green	brown	left	right	0.7	0.30000000000000004	6	2	4.199999999999998	0.6000000000000001	1	0	0.7	0.30000000000000004	6	2	4.199999999999998	0.6000000000000001	valid	0.4332293890001893	51200	0	0	1	51200	1	51200	1	51200	1	0.7	51200	green	brown	1	6	ml	2.7.3	lorasick	sub-04_ses-01_task-ml_proj-lorasick_2020-11-10-14-09-59.505335
135	4	1	3	136	volatile	5	20	16	vs	brown	green	green	brown	right	left	0.7	0.30000000000000004	2	2	1.4	0.6000000000000001	1	0	0.30000000000000004	0.7	2	2	0.6000000000000001	1.4	valid	0.6498415889982425	53248	0	1	1	53248	1	53248	1	53248	1	0.7	53248	green	brown	0	2	ml	2.7.3	lorasick	sub-04_ses-01_task-ml_proj-lorasick_2020-11-10-14-09-59.505335
136	4	1	3	137	volatile	5	20	17	vs	brown	green	green	brown	right	left	0.7	0.30000000000000004	6	6	4.199999999999998	1.8000000000000005	1	0	0.30000000000000004	0.7	6	6	1.8000000000000005	4.199999999999998	valid	0.5998552550008753	53248	0	1	1	53248	1	53248	1	53248	1	0.7	53248	green	brown	0	6	ml	2.7.3	lorasick	sub-04_ses-01_task-ml_proj-lorasick_2020-11-10-14-09-59.505335
137	4	1	3	138	volatile	5	20	18	vs	brown	green	green	brown	right	left	0.7	0.30000000000000004	4	2	2.8	0.6000000000000001	0	1	0.30000000000000004	0.7	2	4	0.6000000000000001	2.8	invalid	0.4665649630005646	53248	0	1	1	53248	1	53248	1	53248	1	0.7	53248	green	brown	1	0	ml	2.7.3	lorasick	sub-04_ses-01_task-ml_proj-lorasick_2020-11-10-14-09-59.505335
138	4	1	3	139	volatile	5	20	19	vs	brown	green	green	brown	right	left	0.7	0.30000000000000004	6	2	4.199999999999998	0.6000000000000001	1	0	0.30000000000000004	0.7	2	6	0.6000000000000001	4.199999999999998	valid	0.3999177969999437	53248	0	1	1	53248	1	53248	1	53248	1	0.7	53248	green	brown	1	6	ml	2.7.3	lorasick	sub-04_ses-01_task-ml_proj-lorasick_2020-11-10-14-09-59.505335
139	4	1	3	140	volatile	5	20	20	vs	brown	green	green	brown	right	left	0.7	0.30000000000000004	2	10	1.4	3.0000000000000004	0	1	0.30000000000000004	0.7	10	2	3.0000000000000004	1.4	invalid	1.033051140999305	51200	0	0	2	51200	1	53248	0	51200	1	0.7	53248	green	brown	0	10	ml	2.7.3	lorasick	sub-04_ses-01_task-ml_proj-lorasick_2020-11-10-14-09-59.505335
140	4	1	3	141	volatile	6	40	1	vs	green	brown	green	brown	left	right	0.30000000000000004	0.7	2	4	0.6000000000000001	2.8	0	1	0.30000000000000004	0.7	2	4	0.6000000000000001	2.8	valid	1.0663711929992132	51200	0	0	1	53248	0	53248	0	53248	0	0.7	53248	brown	green	1	0	ml	2.7.3	lorasick	sub-04_ses-01_task-ml_proj-lorasick_2020-11-10-14-09-59.505335
141	4	1	3	142	volatile	6	40	2	vs	green	brown	green	brown	left	right	0.30000000000000004	0.7	6	6	1.8000000000000005	4.199999999999998	0	1	0.30000000000000004	0.7	6	6	1.8000000000000005	4.199999999999998	valid	0.3665944000022137	53248	0	1	2	53248	1	53248	1	53248	1	0.7	53248	brown	green	0	6	ml	2.7.3	lorasick	sub-04_ses-01_task-ml_proj-lorasick_2020-11-10-14-09-59.505335
142	4	1	3	143	volatile	6	40	3	vs	green	brown	green	brown	left	right	0.30000000000000004	0.7	2	2	0.6000000000000001	1.4	0	1	0.30000000000000004	0.7	2	2	0.6000000000000001	1.4	valid	0.7498147929982224	53248	0	1	2	53248	1	53248	1	53248	1	0.7	53248	brown	green	0	2	ml	2.7.3	lorasick	sub-04_ses-01_task-ml_proj-lorasick_2020-11-10-14-09-59.505335
143	4	1	3	144	volatile	6	40	4	vs	green	brown	green	brown	left	right	0.30000000000000004	0.7	2	6	0.6000000000000001	4.199999999999998	1	0	0.30000000000000004	0.7	2	6	0.6000000000000001	4.199999999999998	invalid	0.4665717019997828	53248	0	1	2	53248	1	53248	1	53248	1	0.7	53248	brown	green	1	0	ml	2.7.3	lorasick	sub-04_ses-01_task-ml_proj-lorasick_2020-11-10-14-09-59.505335
144	4	1	3	145	volatile	6	40	5	vs	green	brown	green	brown	left	right	0.30000000000000004	0.7	4	2	1.2000000000000002	1.4	1	0	0.30000000000000004	0.7	4	2	1.2000000000000002	1.4	invalid	0.699829065000813	53248	0	1	2	53248	1	53248	1	51200	0	0.7	53248	brown	green	0	0	ml	2.7.3	lorasick	sub-04_ses-01_task-ml_proj-lorasick_2020-11-10-14-09-59.505335
145	4	1	3	146	volatile	6	40	6	vs	green	brown	green	brown	left	right	0.30000000000000004	0.7	4	6	1.2000000000000002	4.199999999999998	0	1	0.30000000000000004	0.7	4	6	1.2000000000000002	4.199999999999998	valid	0.7498007530011819	51200	0	0	1	53248	0	53248	0	53248	0	0.7	53248	brown	green	1	0	ml	2.7.3	lorasick	sub-04_ses-01_task-ml_proj-lorasick_2020-11-10-14-09-59.505335
146	4	1	3	147	volatile	6	40	7	vs	brown	green	green	brown	right	left	0.30000000000000004	0.7	6	6	1.8000000000000005	4.199999999999998	1	0	0.7	0.30000000000000004	6	6	4.199999999999998	1.8000000000000005	invalid	0.7331506699993042	53248	0	1	1	51200	0	51200	0	53248	1	0.7	51200	brown	green	1	6	ml	2.7.3	lorasick	sub-04_ses-01_task-ml_proj-lorasick_2020-11-10-14-09-59.505335
147	4	1	3	148	volatile	6	40	8	vs	green	brown	green	brown	left	right	0.30000000000000004	0.7	2	6	0.6000000000000001	4.199999999999998	1	0	0.30000000000000004	0.7	2	6	0.6000000000000001	4.199999999999998	invalid	0.516539868000109	51200	0	0	1	53248	0	53248	0	53248	0	0.7	53248	brown	green	1	2	ml	2.7.3	lorasick	sub-04_ses-01_task-ml_proj-lorasick_2020-11-10-14-09-59.505335
148	4	1	3	149	volatile	6	40	9	vs	green	brown	green	brown	left	right	0.30000000000000004	0.7	6	4	1.8000000000000005	2.8	0	1	0.30000000000000004	0.7	6	4	1.8000000000000005	2.8	valid	0.4498886799992761	51200	0	0	1	53248	0	53248	0	51200	1	0.7	53248	brown	green	0	0	ml	2.7.3	lorasick	sub-04_ses-01_task-ml_proj-lorasick_2020-11-10-14-09-59.505335
149	4	1	3	150	volatile	6	40	10	vs	green	brown	green	brown	left	right	0.30000000000000004	0.7	2	2	0.6000000000000001	1.4	0	1	0.30000000000000004	0.7	2	2	0.6000000000000001	1.4	valid	0.5165432149988192	51200	0	0	1	53248	0	53248	0	53248	0	0.7	53248	brown	green	0	0	ml	2.7.3	lorasick	sub-04_ses-01_task-ml_proj-lorasick_2020-11-10-14-09-59.505335
150	4	1	4	151	volatile	6	40	11	vs	green	brown	green	brown	left	right	0.30000000000000004	0.7	2	10	0.6000000000000001	7.0	1	0	0.30000000000000004	0.7	2	10	0.6000000000000001	7.0	invalid	1.4829353919994899	53248	0	1	2	53248	1	53248	1	53248	1	0.7	53248	brown	green	1	0	ml	2.7.3	lorasick	sub-04_ses-01_task-ml_proj-lorasick_2020-11-10-14-09-59.505335
151	4	1	4	152	volatile	6	40	12	vs	brown	green	green	brown	right	left	0.30000000000000004	0.7	4	2	1.2000000000000002	1.4	1	0	0.7	0.30000000000000004	2	4	1.4	1.2000000000000002	invalid	0.6998327759974927	53248	0	1	1	51200	0	51200	0	53248	1	0.7	51200	brown	green	0	4	ml	2.7.3	lorasick	sub-04_ses-01_task-ml_proj-lorasick_2020-11-10-14-09-59.505335
152	4	1	4	153	volatile	6	40	13	vs	green	brown	green	brown	left	right	0.30000000000000004	0.7	6	4	1.8000000000000005	2.8	0	1	0.30000000000000004	0.7	6	4	1.8000000000000005	2.8	valid	0.4832140530015749	51200	0	0	1	53248	0	53248	0	51200	1	0.7	53248	brown	green	0	0	ml	2.7.3	lorasick	sub-04_ses-01_task-ml_proj-lorasick_2020-11-10-14-09-59.505335
153	4	1	4	154	volatile	6	40	14	vs	brown	green	green	brown	right	left	0.30000000000000004	0.7	2	6	0.6000000000000001	4.199999999999998	0	1	0.7	0.30000000000000004	6	2	4.199999999999998	0.6000000000000001	valid	0.5665341169988096	53248	0	1	1	51200	0	51200	0	51200	0	0.7	51200	brown	green	1	0	ml	2.7.3	lorasick	sub-04_ses-01_task-ml_proj-lorasick_2020-11-10-14-09-59.505335
154	4	1	4	155	volatile	6	40	15	vs	green	brown	green	brown	left	right	0.30000000000000004	0.7	10	2	3.0000000000000004	1.4	0	1	0.30000000000000004	0.7	10	2	3.0000000000000004	1.4	valid	0.516552072000195	53248	0	1	2	51200	0	53248	1	51200	0	0.7	53248	brown	green	0	2	ml	2.7.3	lorasick	sub-04_ses-01_task-ml_proj-lorasick_2020-11-10-14-09-59.505335
155	4	1	4	156	volatile	6	40	16	vs	green	brown	green	brown	left	right	0.30000000000000004	0.7	2	10	0.6000000000000001	7.0	0	1	0.30000000000000004	0.7	2	10	0.6000000000000001	7.0	valid	0.3999188330017205	53248	0	1	2	53248	1	53248	1	53248	1	0.7	53248	brown	green	1	10	ml	2.7.3	lorasick	sub-04_ses-01_task-ml_proj-lorasick_2020-11-10-14-09-59.505335
156	4	1	4	157	volatile	6	40	17	vs	brown	green	green	brown	right	left	0.30000000000000004	0.7	6	2	1.8000000000000005	1.4	1	0	0.7	0.30000000000000004	2	6	1.4	1.8000000000000005	invalid	0.5665191489970312	51200	0	0	2	53248	0	51200	1	53248	0	0.7	51200	brown	green	0	0	ml	2.7.3	lorasick	sub-04_ses-01_task-ml_proj-lorasick_2020-11-10-14-09-59.505335
157	4	1	4	158	volatile	6	40	18	vs	brown	green	green	brown	right	left	0.30000000000000004	0.7	10	2	3.0000000000000004	1.4	0	1	0.7	0.30000000000000004	2	10	1.4	3.0000000000000004	valid	0.4498925859988958	51200	0	0	2	53248	0	51200	1	53248	0	0.7	51200	brown	green	0	2	ml	2.7.3	lorasick	sub-04_ses-01_task-ml_proj-lorasick_2020-11-10-14-09-59.505335
158	4	1	4	159	volatile	6	40	19	vs	brown	green	green	brown	right	left	0.30000000000000004	0.7	2	6	0.6000000000000001	4.199999999999998	0	1	0.7	0.30000000000000004	6	2	4.199999999999998	0.6000000000000001	valid	0.7997900980008126	51200	0	0	2	51200	1	51200	1	51200	1	0.7	51200	brown	green	1	6	ml	2.7.3	lorasick	sub-04_ses-01_task-ml_proj-lorasick_2020-11-10-14-09-59.505335
159	4	1	4	160	volatile	6	40	20	vs	green	brown	green	brown	left	right	0.30000000000000004	0.7	6	6	1.8000000000000005	4.199999999999998	0	1	0.30000000000000004	0.7	6	6	1.8000000000000005	4.199999999999998	valid	0.7664734960017086	53248	0	1	2	53248	1	53248	1	53248	1	0.7	53248	brown	green	0	6	ml	2.7.3	lorasick	sub-04_ses-01_task-ml_proj-lorasick_2020-11-10-14-09-59.505335
160	4	1	4	161	volatile	6	40	21	vs	brown	green	green	brown	right	left	0.30000000000000004	0.7	2	2	0.6000000000000001	1.4	0	1	0.7	0.30000000000000004	2	2	1.4	0.6000000000000001	valid	0.6331745860006777	51200	0	0	2	51200	1	51200	1	53248	0	0.7	51200	brown	green	1	2	ml	2.7.3	lorasick	sub-04_ses-01_task-ml_proj-lorasick_2020-11-10-14-09-59.505335
161	4	1	4	162	volatile	6	40	22	vs	green	brown	green	brown	left	right	0.30000000000000004	0.7	4	6	1.2000000000000002	4.199999999999998	0	1	0.30000000000000004	0.7	4	6	1.2000000000000002	4.199999999999998	valid	0.4499030639999546	53248	0	1	2	53248	1	53248	1	53248	1	0.7	53248	brown	green	1	6	ml	2.7.3	lorasick	sub-04_ses-01_task-ml_proj-lorasick_2020-11-10-14-09-59.505335
162	4	1	4	163	volatile	6	40	23	vs	brown	green	green	brown	right	left	0.30000000000000004	0.7	4	6	1.2000000000000002	4.199999999999998	0	1	0.7	0.30000000000000004	6	4	4.199999999999998	1.2000000000000002	valid	0.5165360059982049	51200	0	0	2	51200	1	51200	1	51200	1	0.7	51200	brown	green	1	6	ml	2.7.3	lorasick	sub-04_ses-01_task-ml_proj-lorasick_2020-11-10-14-09-59.505335
163	4	1	4	164	volatile	6	40	24	vs	green	brown	green	brown	left	right	0.30000000000000004	0.7	6	6	1.8000000000000005	4.199999999999998	0	1	0.30000000000000004	0.7	6	6	1.8000000000000005	4.199999999999998	valid	0.5332115080018411	53248	0	1	2	53248	1	53248	1	53248	1	0.7	53248	brown	green	0	6	ml	2.7.3	lorasick	sub-04_ses-01_task-ml_proj-lorasick_2020-11-10-14-09-59.505335
164	4	1	4	165	volatile	6	40	25	vs	brown	green	green	brown	right	left	0.30000000000000004	0.7	4	6	1.2000000000000002	4.199999999999998	0	1	0.7	0.30000000000000004	6	4	4.199999999999998	1.2000000000000002	valid	0.4332385120032996	51200	0	0	2	51200	1	51200	1	51200	1	0.7	51200	brown	green	1	6	ml	2.7.3	lorasick	sub-04_ses-01_task-ml_proj-lorasick_2020-11-10-14-09-59.505335
165	4	1	4	166	volatile	6	40	26	vs	brown	green	green	brown	right	left	0.30000000000000004	0.7	2	4	0.6000000000000001	2.8	0	1	0.7	0.30000000000000004	4	2	2.8	0.6000000000000001	valid	0.5998508769989712	51200	0	0	2	51200	1	51200	1	51200	1	0.7	51200	brown	green	1	4	ml	2.7.3	lorasick	sub-04_ses-01_task-ml_proj-lorasick_2020-11-10-14-09-59.505335
166	4	1	4	167	volatile	6	40	27	vs	brown	green	green	brown	right	left	0.30000000000000004	0.7	10	2	3.0000000000000004	1.4	0	1	0.7	0.30000000000000004	2	10	1.4	3.0000000000000004	valid	0.5165390139991359	51200	0	0	2	53248	0	51200	1	53248	0	0.7	51200	brown	green	0	2	ml	2.7.3	lorasick	sub-04_ses-01_task-ml_proj-lorasick_2020-11-10-14-09-59.505335
167	4	1	4	168	volatile	6	40	28	vs	brown	green	green	brown	right	left	0.30000000000000004	0.7	2	4	0.6000000000000001	2.8	0	1	0.7	0.30000000000000004	4	2	2.8	0.6000000000000001	valid	0.4665527090000978	51200	0	0	2	51200	1	51200	1	51200	1	0.7	51200	brown	green	1	4	ml	2.7.3	lorasick	sub-04_ses-01_task-ml_proj-lorasick_2020-11-10-14-09-59.505335
168	4	1	4	169	volatile	6	40	29	vs	brown	green	green	brown	right	left	0.30000000000000004	0.7	2	6	0.6000000000000001	4.199999999999998	0	1	0.7	0.30000000000000004	6	2	4.199999999999998	0.6000000000000001	valid	0.3665800800008583	51200	0	0	2	51200	1	51200	1	51200	1	0.7	51200	brown	green	1	6	ml	2.7.3	lorasick	sub-04_ses-01_task-ml_proj-lorasick_2020-11-10-14-09-59.505335
169	4	1	4	170	volatile	6	40	30	vs	brown	green	green	brown	right	left	0.30000000000000004	0.7	2	6	0.6000000000000001	4.199999999999998	1	0	0.7	0.30000000000000004	6	2	4.199999999999998	0.6000000000000001	invalid	0.3999063679984829	51200	0	0	2	51200	1	51200	1	51200	1	0.7	51200	brown	green	1	0	ml	2.7.3	lorasick	sub-04_ses-01_task-ml_proj-lorasick_2020-11-10-14-09-59.505335
170	4	1	4	171	volatile	6	40	31	vs	brown	green	green	brown	right	left	0.30000000000000004	0.7	4	2	1.2000000000000002	1.4	0	1	0.7	0.30000000000000004	2	4	1.4	1.2000000000000002	valid	0.7664708850024908	51200	0	0	2	51200	1	51200	1	53248	0	0.7	51200	brown	green	0	2	ml	2.7.3	lorasick	sub-04_ses-01_task-ml_proj-lorasick_2020-11-10-14-09-59.505335
171	4	1	4	172	volatile	6	40	32	vs	green	brown	green	brown	left	right	0.30000000000000004	0.7	2	2	0.6000000000000001	1.4	0	1	0.30000000000000004	0.7	2	2	0.6000000000000001	1.4	valid	0.5831951260006463	53248	0	1	2	53248	1	53248	1	53248	1	0.7	53248	brown	green	0	2	ml	2.7.3	lorasick	sub-04_ses-01_task-ml_proj-lorasick_2020-11-10-14-09-59.505335
172	4	1	4	173	volatile	6	40	33	vs	brown	green	green	brown	right	left	0.30000000000000004	0.7	6	4	1.8000000000000005	2.8	1	0	0.7	0.30000000000000004	4	6	2.8	1.8000000000000005	invalid	0.41657148499871255	51200	0	0	2	51200	1	51200	1	53248	0	0.7	51200	brown	green	0	0	ml	2.7.3	lorasick	sub-04_ses-01_task-ml_proj-lorasick_2020-11-10-14-09-59.505335
173	4	1	4	174	volatile	6	40	34	vs	brown	green	green	brown	right	left	0.30000000000000004	0.7	2	10	0.6000000000000001	7.0	0	1	0.7	0.30000000000000004	10	2	7.0	0.6000000000000001	valid	1.1163607140006206	51200	0	0	2	51200	1	51200	1	51200	1	0.7	51200	brown	green	1	10	ml	2.7.3	lorasick	sub-04_ses-01_task-ml_proj-lorasick_2020-11-10-14-09-59.505335
174	4	1	4	175	volatile	6	40	35	vs	green	brown	green	brown	left	right	0.30000000000000004	0.7	4	2	1.2000000000000002	1.4	0	1	0.30000000000000004	0.7	4	2	1.2000000000000002	1.4	valid	0.6165215660003014	53248	0	1	2	53248	1	53248	1	51200	0	0.7	53248	brown	green	0	2	ml	2.7.3	lorasick	sub-04_ses-01_task-ml_proj-lorasick_2020-11-10-14-09-59.505335
175	4	1	4	176	volatile	6	40	36	vs	brown	green	green	brown	right	left	0.30000000000000004	0.7	6	4	1.8000000000000005	2.8	1	0	0.7	0.30000000000000004	4	6	2.8	1.8000000000000005	invalid	0.4332304470008239	51200	0	0	2	51200	1	51200	1	53248	0	0.7	51200	brown	green	0	0	ml	2.7.3	lorasick	sub-04_ses-01_task-ml_proj-lorasick_2020-11-10-14-09-59.505335
176	4	1	4	177	volatile	6	40	37	vs	brown	green	green	brown	right	left	0.30000000000000004	0.7	6	2	1.8000000000000005	1.4	0	1	0.7	0.30000000000000004	2	6	1.4	1.8000000000000005	valid	0.4332133749994682	51200	0	0	2	53248	0	51200	1	53248	0	0.7	51200	brown	green	0	2	ml	2.7.3	lorasick	sub-04_ses-01_task-ml_proj-lorasick_2020-11-10-14-09-59.505335
177	4	1	4	178	volatile	6	40	38	vs	green	brown	green	brown	left	right	0.30000000000000004	0.7	2	4	0.6000000000000001	2.8	1	0	0.30000000000000004	0.7	2	4	0.6000000000000001	2.8	invalid	0.7164967410026293	53248	0	1	2	53248	1	53248	1	53248	1	0.7	53248	brown	green	1	0	ml	2.7.3	lorasick	sub-04_ses-01_task-ml_proj-lorasick_2020-11-10-14-09-59.505335
178	4	1	4	179	volatile	6	40	39	vs	green	brown	green	brown	left	right	0.30000000000000004	0.7	10	2	3.0000000000000004	1.4	1	0	0.30000000000000004	0.7	10	2	3.0000000000000004	1.4	invalid	0.8830973179974535	51200	0	0	1	51200	1	53248	0	51200	1	0.7	53248	brown	green	0	10	ml	2.7.3	lorasick	sub-04_ses-01_task-ml_proj-lorasick_2020-11-10-14-09-59.505335
179	4	1	4	180	volatile	6	40	40	vs	brown	green	green	brown	right	left	0.30000000000000004	0.7	2	10	0.6000000000000001	7.0	0	1	0.7	0.30000000000000004	10	2	7.0	0.6000000000000001	valid	0.5498694300003989	53248	0	1	1	51200	0	51200	0	51200	0	0.7	51200	brown	green	1	0	ml	2.7.3	lorasick	sub-04_ses-01_task-ml_proj-lorasick_2020-11-10-14-09-59.505335
180	4	1	4	181	volatile	7	20	1	vs	brown	green	green	brown	right	left	0.7	0.30000000000000004	2	6	1.4	1.8000000000000005	0	1	0.30000000000000004	0.7	6	2	1.8000000000000005	1.4	invalid	0.549860571998579	53248	0	1	1	51200	0	53248	1	51200	0	0.7	53248	green	brown	0	0	ml	2.7.3	lorasick	sub-04_ses-01_task-ml_proj-lorasick_2020-11-10-14-09-59.505335
181	4	1	4	182	volatile	7	20	2	vs	green	brown	green	brown	left	right	0.7	0.30000000000000004	2	4	1.4	1.2000000000000002	1	0	0.7	0.30000000000000004	2	4	1.4	1.2000000000000002	valid	0.466569897998852	53248	0	1	2	51200	0	51200	0	53248	1	0.7	51200	green	brown	0	0	ml	2.7.3	lorasick	sub-04_ses-01_task-ml_proj-lorasick_2020-11-10-14-09-59.505335
182	4	1	4	183	volatile	7	20	3	vs	green	brown	green	brown	left	right	0.7	0.30000000000000004	2	10	1.4	3.0000000000000004	1	0	0.7	0.30000000000000004	2	10	1.4	3.0000000000000004	valid	0.3665860580003937	53248	0	1	2	53248	1	51200	0	53248	1	0.7	51200	green	brown	0	0	ml	2.7.3	lorasick	sub-04_ses-01_task-ml_proj-lorasick_2020-11-10-14-09-59.505335
183	4	1	4	184	volatile	7	20	4	vs	brown	green	green	brown	right	left	0.7	0.30000000000000004	2	2	1.4	0.6000000000000001	0	1	0.30000000000000004	0.7	2	2	0.6000000000000001	1.4	invalid	0.5165385809996224	51200	0	0	2	53248	0	53248	0	53248	0	0.7	53248	green	brown	0	2	ml	2.7.3	lorasick	sub-04_ses-01_task-ml_proj-lorasick_2020-11-10-14-09-59.505335
184	4	1	4	185	volatile	7	20	5	vs	green	brown	green	brown	left	right	0.7	0.30000000000000004	6	2	4.199999999999998	0.6000000000000001	0	1	0.7	0.30000000000000004	6	2	4.199999999999998	0.6000000000000001	invalid	0.6498527920011838	53248	0	1	2	51200	0	51200	0	51200	0	0.7	51200	green	brown	1	2	ml	2.7.3	lorasick	sub-04_ses-01_task-ml_proj-lorasick_2020-11-10-14-09-59.505335
185	4	1	4	186	volatile	7	20	6	vs	brown	green	green	brown	right	left	0.7	0.30000000000000004	2	10	1.4	3.0000000000000004	1	0	0.30000000000000004	0.7	10	2	3.0000000000000004	1.4	valid	0.7498018990008859	51200	0	0	2	51200	1	53248	0	51200	1	0.7	53248	green	brown	0	0	ml	2.7.3	lorasick	sub-04_ses-01_task-ml_proj-lorasick_2020-11-10-14-09-59.505335
186	4	1	4	187	volatile	7	20	7	vs	brown	green	green	brown	right	left	0.7	0.30000000000000004	4	6	2.8	1.8000000000000005	1	0	0.30000000000000004	0.7	6	4	1.8000000000000005	2.8	valid	0.8331136480010173	51200	0	0	2	53248	0	53248	0	51200	1	0.7	53248	green	brown	0	0	ml	2.7.3	lorasick	sub-04_ses-01_task-ml_proj-lorasick_2020-11-10-14-09-59.505335
187	4	1	4	188	volatile	7	20	8	vs	brown	green	green	brown	right	left	0.7	0.30000000000000004	6	6	4.199999999999998	1.8000000000000005	1	0	0.30000000000000004	0.7	6	6	1.8000000000000005	4.199999999999998	valid	0.3832424819993321	51200	0	0	2	53248	0	53248	0	53248	0	0.7	53248	green	brown	0	0	ml	2.7.3	lorasick	sub-04_ses-01_task-ml_proj-lorasick_2020-11-10-14-09-59.505335
188	4	1	4	189	volatile	7	20	9	vs	green	brown	green	brown	left	right	0.7	0.30000000000000004	10	2	7.0	0.6000000000000001	1	0	0.7	0.30000000000000004	10	2	7.0	0.6000000000000001	valid	0.7997853760025464	51200	0	0	1	51200	1	51200	1	51200	1	0.7	51200	green	brown	1	10	ml	2.7.3	lorasick	sub-04_ses-01_task-ml_proj-lorasick_2020-11-10-14-09-59.505335
189	4	1	4	190	volatile	7	20	10	vs	green	brown	green	brown	left	right	0.7	0.30000000000000004	2	4	1.4	1.2000000000000002	1	0	0.7	0.30000000000000004	2	4	1.4	1.2000000000000002	valid	0.5998495200001344	51200	0	0	1	51200	1	51200	1	53248	0	0.7	51200	green	brown	0	2	ml	2.7.3	lorasick	sub-04_ses-01_task-ml_proj-lorasick_2020-11-10-14-09-59.505335
190	4	1	4	191	volatile	7	20	11	vs	green	brown	green	brown	left	right	0.7	0.30000000000000004	4	6	2.8	1.8000000000000005	0	1	0.7	0.30000000000000004	4	6	2.8	1.8000000000000005	invalid	0.4332329940007185	51200	0	0	1	51200	1	51200	1	53248	0	0.7	51200	green	brown	0	0	ml	2.7.3	lorasick	sub-04_ses-01_task-ml_proj-lorasick_2020-11-10-14-09-59.505335
191	4	1	4	192	volatile	7	20	12	vs	green	brown	green	brown	left	right	0.7	0.30000000000000004	2	6	1.4	1.8000000000000005	1	0	0.7	0.30000000000000004	2	6	1.4	1.8000000000000005	valid	0.5331996290005918	51200	0	0	1	53248	0	51200	1	53248	0	0.7	51200	green	brown	0	2	ml	2.7.3	lorasick	sub-04_ses-01_task-ml_proj-lorasick_2020-11-10-14-09-59.505335
192	4	1	4	193	volatile	7	20	13	vs	green	brown	green	brown	left	right	0.7	0.30000000000000004	6	6	4.199999999999998	1.8000000000000005	1	0	0.7	0.30000000000000004	6	6	4.199999999999998	1.8000000000000005	valid	0.516539639000257	51200	0	0	1	51200	1	51200	1	53248	0	0.7	51200	green	brown	1	6	ml	2.7.3	lorasick	sub-04_ses-01_task-ml_proj-lorasick_2020-11-10-14-09-59.505335
193	4	1	4	194	volatile	7	20	14	vs	green	brown	green	brown	left	right	0.7	0.30000000000000004	4	2	2.8	0.6000000000000001	1	0	0.7	0.30000000000000004	4	2	2.8	0.6000000000000001	valid	0.4165747939987341	51200	0	0	1	51200	1	51200	1	51200	1	0.7	51200	green	brown	1	4	ml	2.7.3	lorasick	sub-04_ses-01_task-ml_proj-lorasick_2020-11-10-14-09-59.505335
194	4	1	4	195	volatile	7	20	15	vs	brown	green	green	brown	right	left	0.7	0.30000000000000004	2	2	1.4	0.6000000000000001	1	0	0.30000000000000004	0.7	2	2	0.6000000000000001	1.4	valid	0.7997980689979158	53248	0	1	1	53248	1	53248	1	53248	1	0.7	53248	green	brown	0	2	ml	2.7.3	lorasick	sub-04_ses-01_task-ml_proj-lorasick_2020-11-10-14-09-59.505335
195	4	1	4	196	volatile	7	20	16	vs	brown	green	green	brown	right	left	0.7	0.30000000000000004	6	4	4.199999999999998	1.2000000000000002	1	0	0.30000000000000004	0.7	4	6	1.2000000000000002	4.199999999999998	valid	0.41658011600156897	53248	0	1	1	53248	1	53248	1	53248	1	0.7	53248	green	brown	1	6	ml	2.7.3	lorasick	sub-04_ses-01_task-ml_proj-lorasick_2020-11-10-14-09-59.505335
196	4	1	4	197	volatile	7	20	17	vs	brown	green	green	brown	right	left	0.7	0.30000000000000004	6	2	4.199999999999998	0.6000000000000001	1	0	0.30000000000000004	0.7	2	6	0.6000000000000001	4.199999999999998	valid	0.39991758500036667	53248	0	1	1	53248	1	53248	1	53248	1	0.7	53248	green	brown	1	6	ml	2.7.3	lorasick	sub-04_ses-01_task-ml_proj-lorasick_2020-11-10-14-09-59.505335
197	4	1	4	198	volatile	7	20	18	vs	green	brown	green	brown	left	right	0.7	0.30000000000000004	4	2	2.8	0.6000000000000001	0	1	0.7	0.30000000000000004	4	2	2.8	0.6000000000000001	invalid	0.4832145740001579	51200	0	0	1	51200	1	51200	1	51200	1	0.7	51200	green	brown	1	0	ml	2.7.3	lorasick	sub-04_ses-01_task-ml_proj-lorasick_2020-11-10-14-09-59.505335
198	4	1	4	199	volatile	7	20	19	vs	brown	green	green	brown	right	left	0.7	0.30000000000000004	4	6	2.8	1.8000000000000005	0	1	0.30000000000000004	0.7	6	4	1.8000000000000005	2.8	invalid	0.5332120330022008	53248	0	1	1	53248	1	53248	1	51200	0	0.7	53248	green	brown	0	0	ml	2.7.3	lorasick	sub-04_ses-01_task-ml_proj-lorasick_2020-11-10-14-09-59.505335
199	4	1	4	200	volatile	7	20	20	vs	brown	green	green	brown	right	left	0.7	0.30000000000000004	10	2	7.0	0.6000000000000001	1	0	0.30000000000000004	0.7	2	10	0.6000000000000001	7.0	valid	1.1830050669996126	51200	0	0	2	53248	0	53248	0	53248	0	0.7	53248	green	brown	1	0	ml	2.7.3	lorasick	sub-04_ses-01_task-ml_proj-lorasick_2020-11-10-14-09-59.505335
200	4	1	5	201	stable	8	200	1	vs	brown	green	green	brown	right	left	0.30000000000000004	0.7	2	10	0.6000000000000001	7.0	0	1	0.7	0.30000000000000004	10	2	7.0	0.6000000000000001	valid	1.1663463740005682	51200	0	0	2	51200	1	51200	1	51200	1	0.7	51200	brown	green	1	10	ml	2.7.3	lorasick	sub-04_ses-01_task-ml_proj-lorasick_2020-11-10-14-09-59.505335
201	4	1	5	202	stable	8	200	2	vs	brown	green	green	brown	right	left	0.30000000000000004	0.7	6	4	1.8000000000000005	2.8	1	0	0.7	0.30000000000000004	4	6	2.8	1.8000000000000005	invalid	0.5165387250017375	51200	0	0	2	51200	1	51200	1	53248	0	0.7	51200	brown	green	0	0	ml	2.7.3	lorasick	sub-04_ses-01_task-ml_proj-lorasick_2020-11-10-14-09-59.505335
202	4	1	5	203	stable	8	200	3	vs	brown	green	green	brown	right	left	0.30000000000000004	0.7	2	2	0.6000000000000001	1.4	1	0	0.7	0.30000000000000004	2	2	1.4	0.6000000000000001	invalid	0.5331993439976941	51200	0	0	2	51200	1	51200	1	53248	0	0.7	51200	brown	green	1	0	ml	2.7.3	lorasick	sub-04_ses-01_task-ml_proj-lorasick_2020-11-10-14-09-59.505335
203	4	1	5	204	stable	8	200	4	vs	green	brown	green	brown	left	right	0.30000000000000004	0.7	6	2	1.8000000000000005	1.4	0	1	0.30000000000000004	0.7	6	2	1.8000000000000005	1.4	valid	0.8664294340014749	51200	0	0	1	51200	1	53248	0	51200	1	0.7	53248	brown	green	0	0	ml	2.7.3	lorasick	sub-04_ses-01_task-ml_proj-lorasick_2020-11-10-14-09-59.505335
204	4	1	5	205	stable	8	200	5	vs	brown	green	green	brown	right	left	0.30000000000000004	0.7	10	2	3.0000000000000004	1.4	0	1	0.7	0.30000000000000004	2	10	1.4	3.0000000000000004	valid	0.6665033219978795	53248	0	1	1	53248	1	51200	0	53248	1	0.7	51200	brown	green	0	0	ml	2.7.3	lorasick	sub-04_ses-01_task-ml_proj-lorasick_2020-11-10-14-09-59.505335
205	4	1	5	206	stable	8	200	6	vs	brown	green	green	brown	right	left	0.30000000000000004	0.7	10	2	3.0000000000000004	1.4	0	1	0.7	0.30000000000000004	2	10	1.4	3.0000000000000004	valid	0.5831900589982979	51200	0	0	2	53248	0	51200	1	53248	0	0.7	51200	brown	green	0	2	ml	2.7.3	lorasick	sub-04_ses-01_task-ml_proj-lorasick_2020-11-10-14-09-59.505335
206	4	1	5	207	stable	8	200	7	vs	green	brown	green	brown	left	right	0.30000000000000004	0.7	2	4	0.6000000000000001	2.8	0	1	0.30000000000000004	0.7	2	4	0.6000000000000001	2.8	valid	0.5665359029990213	53248	0	1	2	53248	1	53248	1	53248	1	0.7	53248	brown	green	1	4	ml	2.7.3	lorasick	sub-04_ses-01_task-ml_proj-lorasick_2020-11-10-14-09-59.505335
207	4	1	5	208	stable	8	200	8	vs	brown	green	green	brown	right	left	0.30000000000000004	0.7	10	2	3.0000000000000004	1.4	1	0	0.7	0.30000000000000004	2	10	1.4	3.0000000000000004	invalid	0.39990423699782696	51200	0	0	2	53248	0	51200	1	53248	0	0.7	51200	brown	green	0	0	ml	2.7.3	lorasick	sub-04_ses-01_task-ml_proj-lorasick_2020-11-10-14-09-59.505335
208	4	1	5	209	stable	8	200	9	vs	green	brown	green	brown	left	right	0.30000000000000004	0.7	2	10	0.6000000000000001	7.0	0	1	0.30000000000000004	0.7	2	10	0.6000000000000001	7.0	valid	0.5998558339997544	53248	0	1	2	53248	1	53248	1	53248	1	0.7	53248	brown	green	1	10	ml	2.7.3	lorasick	sub-04_ses-01_task-ml_proj-lorasick_2020-11-10-14-09-59.505335
209	4	1	5	210	stable	8	200	10	vs	brown	green	green	brown	right	left	0.30000000000000004	0.7	2	4	0.6000000000000001	2.8	0	1	0.7	0.30000000000000004	4	2	2.8	0.6000000000000001	valid	0.4165755129979516	51200	0	0	2	51200	1	51200	1	51200	1	0.7	51200	brown	green	1	4	ml	2.7.3	lorasick	sub-04_ses-01_task-ml_proj-lorasick_2020-11-10-14-09-59.505335
210	4	1	5	211	stable	8	200	11	vs	green	brown	green	brown	left	right	0.30000000000000004	0.7	10	2	3.0000000000000004	1.4	0	1	0.30000000000000004	0.7	10	2	3.0000000000000004	1.4	valid	0.7831292250011757	53248	0	1	2	51200	0	53248	1	51200	0	0.7	53248	brown	green	0	2	ml	2.7.3	lorasick	sub-04_ses-01_task-ml_proj-lorasick_2020-11-10-14-09-59.505335
211	4	1	5	212	stable	8	200	12	vs	green	brown	green	brown	left	right	0.30000000000000004	0.7	2	4	0.6000000000000001	2.8	0	1	0.30000000000000004	0.7	2	4	0.6000000000000001	2.8	valid	0.8164618170012545	53248	0	1	2	53248	1	53248	1	53248	1	0.7	53248	brown	green	1	4	ml	2.7.3	lorasick	sub-04_ses-01_task-ml_proj-lorasick_2020-11-10-14-09-59.505335
212	4	1	5	213	stable	8	200	13	vs	brown	green	green	brown	right	left	0.30000000000000004	0.7	2	6	0.6000000000000001	4.199999999999998	0	1	0.7	0.30000000000000004	6	2	4.199999999999998	0.6000000000000001	valid	0.5498912669972924	51200	0	0	2	51200	1	51200	1	51200	1	0.7	51200	brown	green	1	6	ml	2.7.3	lorasick	sub-04_ses-01_task-ml_proj-lorasick_2020-11-10-14-09-59.505335
213	4	1	5	214	stable	8	200	14	vs	green	brown	green	brown	left	right	0.30000000000000004	0.7	2	6	0.6000000000000001	4.199999999999998	0	1	0.30000000000000004	0.7	2	6	0.6000000000000001	4.199999999999998	valid	0.3999185360007687	53248	0	1	2	53248	1	53248	1	53248	1	0.7	53248	brown	green	1	6	ml	2.7.3	lorasick	sub-04_ses-01_task-ml_proj-lorasick_2020-11-10-14-09-59.505335
214	4	1	5	215	stable	8	200	15	vs	green	brown	green	brown	left	right	0.30000000000000004	0.7	6	4	1.8000000000000005	2.8	1	0	0.30000000000000004	0.7	6	4	1.8000000000000005	2.8	invalid	0.5332089100011217	53248	0	1	2	53248	1	53248	1	51200	0	0.7	53248	brown	green	0	0	ml	2.7.3	lorasick	sub-04_ses-01_task-ml_proj-lorasick_2020-11-10-14-09-59.505335
215	4	1	5	216	stable	8	200	16	vs	green	brown	green	brown	left	right	0.30000000000000004	0.7	4	6	1.2000000000000002	4.199999999999998	1	0	0.30000000000000004	0.7	4	6	1.2000000000000002	4.199999999999998	invalid	0.5165476440015482	53248	0	1	2	53248	1	53248	1	53248	1	0.7	53248	brown	green	1	0	ml	2.7.3	lorasick	sub-04_ses-01_task-ml_proj-lorasick_2020-11-10-14-09-59.505335
216	4	1	5	217	stable	8	200	17	vs	green	brown	green	brown	left	right	0.30000000000000004	0.7	6	2	1.8000000000000005	1.4	1	0	0.30000000000000004	0.7	6	2	1.8000000000000005	1.4	invalid	1.1996687579994614	51200	0	0	1	51200	1	53248	0	51200	1	0.7	53248	brown	green	0	6	ml	2.7.3	lorasick	sub-04_ses-01_task-ml_proj-lorasick_2020-11-10-14-09-59.505335
217	4	1	5	218	stable	8	200	18	vs	brown	green	green	brown	right	left	0.30000000000000004	0.7	6	4	1.8000000000000005	2.8	0	1	0.7	0.30000000000000004	4	6	2.8	1.8000000000000005	valid	0.5498746369994478	53248	0	1	1	51200	0	51200	0	53248	1	0.7	51200	brown	green	0	0	ml	2.7.3	lorasick	sub-04_ses-01_task-ml_proj-lorasick_2020-11-10-14-09-59.505335
218	4	1	5	219	stable	8	200	19	vs	brown	green	green	brown	right	left	0.30000000000000004	0.7	2	4	0.6000000000000001	2.8	1	0	0.7	0.30000000000000004	4	2	2.8	0.6000000000000001	invalid	0.6665028220013482	53248	0	1	1	51200	0	51200	0	51200	0	0.7	51200	brown	green	1	2	ml	2.7.3	lorasick	sub-04_ses-01_task-ml_proj-lorasick_2020-11-10-14-09-59.505335
219	4	1	5	220	stable	8	200	20	vs	green	brown	green	brown	left	right	0.30000000000000004	0.7	2	2	0.6000000000000001	1.4	0	1	0.30000000000000004	0.7	2	2	0.6000000000000001	1.4	valid	0.44989215699752094	51200	0	0	1	53248	0	53248	0	53248	0	0.7	53248	brown	green	0	0	ml	2.7.3	lorasick	sub-04_ses-01_task-ml_proj-lorasick_2020-11-10-14-09-59.505335
220	4	1	5	221	stable	8	200	21	vs	brown	green	green	brown	right	left	0.30000000000000004	0.7	4	6	1.2000000000000002	4.199999999999998	1	0	0.7	0.30000000000000004	6	4	4.199999999999998	1.2000000000000002	invalid	0.6664990909994231	51200	0	0	2	51200	1	51200	1	51200	1	0.7	51200	brown	green	1	0	ml	2.7.3	lorasick	sub-04_ses-01_task-ml_proj-lorasick_2020-11-10-14-09-59.505335
221	4	1	5	222	stable	8	200	22	vs	brown	green	green	brown	right	left	0.30000000000000004	0.7	10	2	3.0000000000000004	1.4	0	1	0.7	0.30000000000000004	2	10	1.4	3.0000000000000004	valid	0.7164892969994978	53248	0	1	1	53248	1	51200	0	53248	1	0.7	51200	brown	green	0	0	ml	2.7.3	lorasick	sub-04_ses-01_task-ml_proj-lorasick_2020-11-10-14-09-59.505335
222	4	1	5	223	stable	8	200	23	vs	green	brown	green	brown	left	right	0.30000000000000004	0.7	4	6	1.2000000000000002	4.199999999999998	1	0	0.30000000000000004	0.7	4	6	1.2000000000000002	4.199999999999998	invalid	0.4832207939980435	53248	0	1	2	53248	1	53248	1	53248	1	0.7	53248	brown	green	1	0	ml	2.7.3	lorasick	sub-04_ses-01_task-ml_proj-lorasick_2020-11-10-14-09-59.505335
223	4	1	5	224	stable	8	200	24	vs	brown	green	green	brown	right	left	0.30000000000000004	0.7	10	2	3.0000000000000004	1.4	0	1	0.7	0.30000000000000004	2	10	1.4	3.0000000000000004	valid	0.5498680429991509	51200	0	0	2	53248	0	51200	1	53248	0	0.7	51200	brown	green	0	2	ml	2.7.3	lorasick	sub-04_ses-01_task-ml_proj-lorasick_2020-11-10-14-09-59.505335
224	4	1	5	225	stable	8	200	25	vs	brown	green	green	brown	right	left	0.30000000000000004	0.7	10	2	3.0000000000000004	1.4	1	0	0.7	0.30000000000000004	2	10	1.4	3.0000000000000004	invalid	0.2832750879970263	51200	0	0	2	53248	0	51200	1	53248	0	0.7	51200	brown	green	0	0	ml	2.7.3	lorasick	sub-04_ses-01_task-ml_proj-lorasick_2020-11-10-14-09-59.505335
225	4	1	5	226	stable	8	200	26	vs	brown	green	green	brown	right	left	0.30000000000000004	0.7	2	10	0.6000000000000001	7.0	0	1	0.7	0.30000000000000004	10	2	7.0	0.6000000000000001	valid	0.7831224709989328	51200	0	0	2	51200	1	51200	1	51200	1	0.7	51200	brown	green	1	10	ml	2.7.3	lorasick	sub-04_ses-01_task-ml_proj-lorasick_2020-11-10-14-09-59.505335
226	4	1	5	227	stable	8	200	27	vs	green	brown	green	brown	left	right	0.30000000000000004	0.7	6	4	1.8000000000000005	2.8	0	1	0.30000000000000004	0.7	6	4	1.8000000000000005	2.8	valid	1.049854005999805	53248	0	1	2	53248	1	53248	1	51200	0	0.7	53248	brown	green	0	4	ml	2.7.3	lorasick	sub-04_ses-01_task-ml_proj-lorasick_2020-11-10-14-09-59.505335
227	4	1	5	228	stable	8	200	28	vs	green	brown	green	brown	left	right	0.30000000000000004	0.7	6	6	1.8000000000000005	4.199999999999998	0	1	0.30000000000000004	0.7	6	6	1.8000000000000005	4.199999999999998	valid	0.416579377000744	53248	0	1	2	53248	1	53248	1	53248	1	0.7	53248	brown	green	0	6	ml	2.7.3	lorasick	sub-04_ses-01_task-ml_proj-lorasick_2020-11-10-14-09-59.505335
228	4	1	5	229	stable	8	200	29	vs	green	brown	green	brown	left	right	0.30000000000000004	0.7	6	2	1.8000000000000005	1.4	1	0	0.30000000000000004	0.7	6	2	1.8000000000000005	1.4	invalid	0.5165471600012097	53248	0	1	2	51200	0	53248	1	51200	0	0.7	53248	brown	green	0	0	ml	2.7.3	lorasick	sub-04_ses-01_task-ml_proj-lorasick_2020-11-10-14-09-59.505335
229	4	1	5	230	stable	8	200	30	vs	brown	green	green	brown	right	left	0.30000000000000004	0.7	6	4	1.8000000000000005	2.8	0	1	0.7	0.30000000000000004	4	6	2.8	1.8000000000000005	valid	0.5998381290010002	51200	0	0	2	51200	1	51200	1	53248	0	0.7	51200	brown	green	0	4	ml	2.7.3	lorasick	sub-04_ses-01_task-ml_proj-lorasick_2020-11-10-14-09-59.505335
230	4	1	5	231	stable	8	200	31	vs	green	brown	green	brown	left	right	0.30000000000000004	0.7	10	2	3.0000000000000004	1.4	1	0	0.30000000000000004	0.7	10	2	3.0000000000000004	1.4	invalid	0.5998569130024407	53248	0	1	2	51200	0	53248	1	51200	0	0.7	53248	brown	green	0	0	ml	2.7.3	lorasick	sub-04_ses-01_task-ml_proj-lorasick_2020-11-10-14-09-59.505335
231	4	1	5	232	stable	8	200	32	vs	brown	green	green	brown	right	left	0.30000000000000004	0.7	6	4	1.8000000000000005	2.8	0	1	0.7	0.30000000000000004	4	6	2.8	1.8000000000000005	valid	0.9997269389969006	51200	0	0	2	51200	1	51200	1	53248	0	0.7	51200	brown	green	0	4	ml	2.7.3	lorasick	sub-04_ses-01_task-ml_proj-lorasick_2020-11-10-14-09-59.505335
232	4	1	5	233	stable	8	200	33	vs	brown	green	green	brown	right	left	0.30000000000000004	0.7	2	10	0.6000000000000001	7.0	0	1	0.7	0.30000000000000004	10	2	7.0	0.6000000000000001	valid	0.8997638859982544	51200	0	0	2	51200	1	51200	1	51200	1	0.7	51200	brown	green	1	10	ml	2.7.3	lorasick	sub-04_ses-01_task-ml_proj-lorasick_2020-11-10-14-09-59.505335
233	4	1	5	234	stable	8	200	34	vs	brown	green	green	brown	right	left	0.30000000000000004	0.7	2	2	0.6000000000000001	1.4	0	1	0.7	0.30000000000000004	2	2	1.4	0.6000000000000001	valid	0.9830675340017478	51200	0	0	2	51200	1	51200	1	53248	0	0.7	51200	brown	green	1	2	ml	2.7.3	lorasick	sub-04_ses-01_task-ml_proj-lorasick_2020-11-10-14-09-59.505335
234	4	1	5	235	stable	8	200	35	vs	green	brown	green	brown	left	right	0.30000000000000004	0.7	6	4	1.8000000000000005	2.8	1	0	0.30000000000000004	0.7	6	4	1.8000000000000005	2.8	invalid	1.083050571000058	53248	0	1	2	53248	1	53248	1	51200	0	0.7	53248	brown	green	0	0	ml	2.7.3	lorasick	sub-04_ses-01_task-ml_proj-lorasick_2020-11-10-14-09-59.505335
235	4	1	5	236	stable	8	200	36	vs	brown	green	green	brown	right	left	0.30000000000000004	0.7	6	6	1.8000000000000005	4.199999999999998	0	1	0.7	0.30000000000000004	6	6	4.199999999999998	1.8000000000000005	valid	0.6331745149982453	51200	0	0	2	51200	1	51200	1	53248	0	0.7	51200	brown	green	1	6	ml	2.7.3	lorasick	sub-04_ses-01_task-ml_proj-lorasick_2020-11-10-14-09-59.505335
236	4	1	5	237	stable	8	200	37	vs	green	brown	green	brown	left	right	0.30000000000000004	0.7	2	6	0.6000000000000001	4.199999999999998	0	1	0.30000000000000004	0.7	2	6	0.6000000000000001	4.199999999999998	valid	1.1163691680012562	53248	0	1	2	53248	1	53248	1	53248	1	0.7	53248	brown	green	1	6	ml	2.7.3	lorasick	sub-04_ses-01_task-ml_proj-lorasick_2020-11-10-14-09-59.505335
237	4	1	5	238	stable	8	200	38	vs	brown	green	green	brown	right	left	0.30000000000000004	0.7	10	2	3.0000000000000004	1.4	0	1	0.7	0.30000000000000004	2	10	1.4	3.0000000000000004	valid	0.8664381829985359	51200	0	0	2	53248	0	51200	1	53248	0	0.7	51200	brown	green	0	2	ml	2.7.3	lorasick	sub-04_ses-01_task-ml_proj-lorasick_2020-11-10-14-09-59.505335
238	4	1	5	239	stable	8	200	39	vs	brown	green	green	brown	right	left	0.30000000000000004	0.7	2	6	0.6000000000000001	4.199999999999998	1	0	0.7	0.30000000000000004	6	2	4.199999999999998	0.6000000000000001	invalid	0.7997860120012774	51200	0	0	2	51200	1	51200	1	51200	1	0.7	51200	brown	green	1	0	ml	2.7.3	lorasick	sub-04_ses-01_task-ml_proj-lorasick_2020-11-10-14-09-59.505335
239	4	1	5	240	stable	8	200	40	vs	green	brown	green	brown	left	right	0.30000000000000004	0.7	4	6	1.2000000000000002	4.199999999999998	1	0	0.30000000000000004	0.7	4	6	1.2000000000000002	4.199999999999998	invalid	0.7331530430019484	53248	0	1	2	53248	1	53248	1	53248	1	0.7	53248	brown	green	1	0	ml	2.7.3	lorasick	sub-04_ses-01_task-ml_proj-lorasick_2020-11-10-14-09-59.505335
240	4	1	5	241	stable	8	200	41	vs	green	brown	green	brown	left	right	0.30000000000000004	0.7	2	4	0.6000000000000001	2.8	0	1	0.30000000000000004	0.7	2	4	0.6000000000000001	2.8	valid	0.6165160339987779	53248	0	1	2	53248	1	53248	1	53248	1	0.7	53248	brown	green	1	4	ml	2.7.3	lorasick	sub-04_ses-01_task-ml_proj-lorasick_2020-11-10-14-09-59.505335
241	4	1	5	242	stable	8	200	42	vs	green	brown	green	brown	left	right	0.30000000000000004	0.7	6	4	1.8000000000000005	2.8	1	0	0.30000000000000004	0.7	6	4	1.8000000000000005	2.8	invalid	0.7664735120015393	53248	0	1	2	53248	1	53248	1	51200	0	0.7	53248	brown	green	0	0	ml	2.7.3	lorasick	sub-04_ses-01_task-ml_proj-lorasick_2020-11-10-14-09-59.505335
242	4	1	5	243	stable	8	200	43	vs	green	brown	green	brown	left	right	0.30000000000000004	0.7	4	2	1.2000000000000002	1.4	0	1	0.30000000000000004	0.7	4	2	1.2000000000000002	1.4	valid	0.6831620360026136	53248	0	1	2	53248	1	53248	1	51200	0	0.7	53248	brown	green	0	2	ml	2.7.3	lorasick	sub-04_ses-01_task-ml_proj-lorasick_2020-11-10-14-09-59.505335
243	4	1	5	244	stable	8	200	44	vs	brown	green	green	brown	right	left	0.30000000000000004	0.7	6	6	1.8000000000000005	4.199999999999998	0	1	0.7	0.30000000000000004	6	6	4.199999999999998	1.8000000000000005	valid	0.5165375930009759	51200	0	0	2	51200	1	51200	1	53248	0	0.7	51200	brown	green	1	6	ml	2.7.3	lorasick	sub-04_ses-01_task-ml_proj-lorasick_2020-11-10-14-09-59.505335
244	4	1	5	245	stable	8	200	45	vs	green	brown	green	brown	left	right	0.30000000000000004	0.7	2	10	0.6000000000000001	7.0	0	1	0.30000000000000004	0.7	2	10	0.6000000000000001	7.0	valid	0.7498054900024727	53248	0	1	2	53248	1	53248	1	53248	1	0.7	53248	brown	green	1	10	ml	2.7.3	lorasick	sub-04_ses-01_task-ml_proj-lorasick_2020-11-10-14-09-59.505335
245	4	1	5	246	stable	8	200	46	vs	green	brown	green	brown	left	right	0.30000000000000004	0.7	2	2	0.6000000000000001	1.4	0	1	0.30000000000000004	0.7	2	2	0.6000000000000001	1.4	valid	0.5831957289992715	53248	0	1	2	53248	1	53248	1	53248	1	0.7	53248	brown	green	0	2	ml	2.7.3	lorasick	sub-04_ses-01_task-ml_proj-lorasick_2020-11-10-14-09-59.505335
246	4	1	5	247	stable	8	200	47	vs	brown	green	green	brown	right	left	0.30000000000000004	0.7	2	2	0.6000000000000001	1.4	1	0	0.7	0.30000000000000004	2	2	1.4	0.6000000000000001	invalid	0.5498696979993838	51200	0	0	2	51200	1	51200	1	53248	0	0.7	51200	brown	green	1	0	ml	2.7.3	lorasick	sub-04_ses-01_task-ml_proj-lorasick_2020-11-10-14-09-59.505335
247	4	1	5	248	stable	8	200	48	vs	brown	green	green	brown	right	left	0.30000000000000004	0.7	6	4	1.8000000000000005	2.8	0	1	0.7	0.30000000000000004	4	6	2.8	1.8000000000000005	valid	0.5665188759994635	51200	0	0	2	51200	1	51200	1	53248	0	0.7	51200	brown	green	0	4	ml	2.7.3	lorasick	sub-04_ses-01_task-ml_proj-lorasick_2020-11-10-14-09-59.505335
248	4	1	5	249	stable	8	200	49	vs	green	brown	green	brown	left	right	0.30000000000000004	0.7	2	4	0.6000000000000001	2.8	0	1	0.30000000000000004	0.7	2	4	0.6000000000000001	2.8	valid	0.6498411409993423	53248	0	1	2	53248	1	53248	1	53248	1	0.7	53248	brown	green	1	4	ml	2.7.3	lorasick	sub-04_ses-01_task-ml_proj-lorasick_2020-11-10-14-09-59.505335
249	4	1	5	250	stable	8	200	50	vs	brown	green	green	brown	right	left	0.30000000000000004	0.7	6	6	1.8000000000000005	4.199999999999998	1	0	0.7	0.30000000000000004	6	6	4.199999999999998	1.8000000000000005	invalid	0.5498622190025344	51200	0	0	2	51200	1	51200	1	53248	0	0.7	51200	brown	green	1	0	ml	2.7.3	lorasick	sub-04_ses-01_task-ml_proj-lorasick_2020-11-10-14-09-59.505335
250	4	1	6	251	stable	8	200	51	vs	brown	green	green	brown	right	left	0.30000000000000004	0.7	6	6	1.8000000000000005	4.199999999999998	0	1	0.7	0.30000000000000004	6	6	4.199999999999998	1.8000000000000005	valid	1.016383438000048	51200	0	0	2	51200	1	51200	1	53248	0	0.7	51200	brown	green	1	6	ml	2.7.3	lorasick	sub-04_ses-01_task-ml_proj-lorasick_2020-11-10-14-09-59.505335
251	4	1	6	252	stable	8	200	52	vs	brown	green	green	brown	right	left	0.30000000000000004	0.7	2	6	0.6000000000000001	4.199999999999998	1	0	0.7	0.30000000000000004	6	2	4.199999999999998	0.6000000000000001	invalid	0.5998475599990343	51200	0	0	2	51200	1	51200	1	51200	1	0.7	51200	brown	green	1	0	ml	2.7.3	lorasick	sub-04_ses-01_task-ml_proj-lorasick_2020-11-10-14-09-59.505335
252	4	1	6	253	stable	8	200	53	vs	green	brown	green	brown	left	right	0.30000000000000004	0.7	6	6	1.8000000000000005	4.199999999999998	0	1	0.30000000000000004	0.7	6	6	1.8000000000000005	4.199999999999998	valid	0.8164585730010003	53248	0	1	2	53248	1	53248	1	53248	1	0.7	53248	brown	green	0	6	ml	2.7.3	lorasick	sub-04_ses-01_task-ml_proj-lorasick_2020-11-10-14-09-59.505335
253	4	1	6	254	stable	8	200	54	vs	brown	green	green	brown	right	left	0.30000000000000004	0.7	2	2	0.6000000000000001	1.4	0	1	0.7	0.30000000000000004	2	2	1.4	0.6000000000000001	valid	0.6664920989969687	51200	0	0	2	51200	1	51200	1	53248	0	0.7	51200	brown	green	1	2	ml	2.7.3	lorasick	sub-04_ses-01_task-ml_proj-lorasick_2020-11-10-14-09-59.505335
254	4	1	6	255	stable	8	200	55	vs	brown	green	green	brown	right	left	0.30000000000000004	0.7	4	6	1.2000000000000002	4.199999999999998	0	1	0.7	0.30000000000000004	6	4	4.199999999999998	1.2000000000000002	valid	0.5165356129982683	51200	0	0	2	51200	1	51200	1	51200	1	0.7	51200	brown	green	1	6	ml	2.7.3	lorasick	sub-04_ses-01_task-ml_proj-lorasick_2020-11-10-14-09-59.505335
255	4	1	6	256	stable	8	200	56	vs	green	brown	green	brown	left	right	0.30000000000000004	0.7	10	2	3.0000000000000004	1.4	0	1	0.30000000000000004	0.7	10	2	3.0000000000000004	1.4	valid	1.133019801996852	51200	0	0	1	51200	1	53248	0	51200	1	0.7	53248	brown	green	0	0	ml	2.7.3	lorasick	sub-04_ses-01_task-ml_proj-lorasick_2020-11-10-14-09-59.505335
256	4	1	6	257	stable	8	200	57	vs	brown	green	green	brown	right	left	0.30000000000000004	0.7	6	2	1.8000000000000005	1.4	0	1	0.7	0.30000000000000004	2	6	1.4	1.8000000000000005	valid	0.4998935920011718	51200	0	0	2	53248	0	51200	1	53248	0	0.7	51200	brown	green	0	2	ml	2.7.3	lorasick	sub-04_ses-01_task-ml_proj-lorasick_2020-11-10-14-09-59.505335
257	4	1	6	258	stable	8	200	58	vs	green	brown	green	brown	left	right	0.30000000000000004	0.7	2	6	0.6000000000000001	4.199999999999998	0	1	0.30000000000000004	0.7	2	6	0.6000000000000001	4.199999999999998	valid	0.8831077670001832	53248	0	1	2	53248	1	53248	1	53248	1	0.7	53248	brown	green	1	6	ml	2.7.3	lorasick	sub-04_ses-01_task-ml_proj-lorasick_2020-11-10-14-09-59.505335
258	4	1	6	259	stable	8	200	59	vs	brown	green	green	brown	right	left	0.30000000000000004	0.7	6	6	1.8000000000000005	4.199999999999998	0	1	0.7	0.30000000000000004	6	6	4.199999999999998	1.8000000000000005	valid	0.7664638179994654	51200	0	0	2	51200	1	51200	1	53248	0	0.7	51200	brown	green	1	6	ml	2.7.3	lorasick	sub-04_ses-01_task-ml_proj-lorasick_2020-11-10-14-09-59.505335
259	4	1	6	260	stable	8	200	60	vs	green	brown	green	brown	left	right	0.30000000000000004	0.7	2	4	0.6000000000000001	2.8	0	1	0.30000000000000004	0.7	2	4	0.6000000000000001	2.8	valid	0.6998287589995016	53248	0	1	2	53248	1	53248	1	53248	1	0.7	53248	brown	green	1	4	ml	2.7.3	lorasick	sub-04_ses-01_task-ml_proj-lorasick_2020-11-10-14-09-59.505335
260	4	1	6	261	stable	8	200	61	vs	brown	green	green	brown	right	left	0.30000000000000004	0.7	4	6	1.2000000000000002	4.199999999999998	0	1	0.7	0.30000000000000004	6	4	4.199999999999998	1.2000000000000002	valid	0.4665539210000134	51200	0	0	2	51200	1	51200	1	51200	1	0.7	51200	brown	green	1	6	ml	2.7.3	lorasick	sub-04_ses-01_task-ml_proj-lorasick_2020-11-10-14-09-59.505335
261	4	1	6	262	stable	8	200	62	vs	green	brown	green	brown	left	right	0.30000000000000004	0.7	2	4	0.6000000000000001	2.8	0	1	0.30000000000000004	0.7	2	4	0.6000000000000001	2.8	valid	0.8664445740032534	53248	0	1	2	53248	1	53248	1	53248	1	0.7	53248	brown	green	1	4	ml	2.7.3	lorasick	sub-04_ses-01_task-ml_proj-lorasick_2020-11-10-14-09-59.505335
262	4	1	6	263	stable	8	200	63	vs	green	brown	green	brown	left	right	0.30000000000000004	0.7	2	2	0.6000000000000001	1.4	1	0	0.30000000000000004	0.7	2	2	0.6000000000000001	1.4	invalid	0.7498195999978634	53248	0	1	2	53248	1	53248	1	53248	1	0.7	53248	brown	green	0	0	ml	2.7.3	lorasick	sub-04_ses-01_task-ml_proj-lorasick_2020-11-10-14-09-59.505335
263	4	1	6	264	stable	8	200	64	vs	brown	green	green	brown	right	left	0.30000000000000004	0.7	4	6	1.2000000000000002	4.199999999999998	0	1	0.7	0.30000000000000004	6	4	4.199999999999998	1.2000000000000002	valid	1.2329900820004696	51200	0	0	2	51200	1	51200	1	51200	1	0.7	51200	brown	green	1	6	ml	2.7.3	lorasick	sub-04_ses-01_task-ml_proj-lorasick_2020-11-10-14-09-59.505335
264	4	1	6	265	stable	8	200	65	vs	brown	green	green	brown	right	left	0.30000000000000004	0.7	10	2	3.0000000000000004	1.4	1	0	0.7	0.30000000000000004	2	10	1.4	3.0000000000000004	invalid	1.0997078039981716	53248	0	1	1	53248	1	51200	0	53248	1	0.7	51200	brown	green	0	10	ml	2.7.3	lorasick	sub-04_ses-01_task-ml_proj-lorasick_2020-11-10-14-09-59.505335
265	4	1	6	266	stable	8	200	66	vs	brown	green	green	brown	right	left	0.30000000000000004	0.7	4	2	1.2000000000000002	1.4	0	1	0.7	0.30000000000000004	2	4	1.4	1.2000000000000002	valid	0.7997881230003259	51200	0	0	2	51200	1	51200	1	53248	0	0.7	51200	brown	green	0	2	ml	2.7.3	lorasick	sub-04_ses-01_task-ml_proj-lorasick_2020-11-10-14-09-59.505335
266	4	1	6	267	stable	8	200	67	vs	brown	green	green	brown	right	left	0.30000000000000004	0.7	2	10	0.6000000000000001	7.0	0	1	0.7	0.30000000000000004	10	2	7.0	0.6000000000000001	valid	1.0663763289994677	51200	0	0	2	51200	1	51200	1	51200	1	0.7	51200	brown	green	1	10	ml	2.7.3	lorasick	sub-04_ses-01_task-ml_proj-lorasick_2020-11-10-14-09-59.505335
267	4	1	6	268	stable	8	200	68	vs	brown	green	green	brown	right	left	0.30000000000000004	0.7	2	6	0.6000000000000001	4.199999999999998	0	1	0.7	0.30000000000000004	6	2	4.199999999999998	0.6000000000000001	valid	0.9164198090002174	51200	0	0	2	51200	1	51200	1	51200	1	0.7	51200	brown	green	1	6	ml	2.7.3	lorasick	sub-04_ses-01_task-ml_proj-lorasick_2020-11-10-14-09-59.505335
268	4	1	6	269	stable	8	200	69	vs	green	brown	green	brown	left	right	0.30000000000000004	0.7	2	4	0.6000000000000001	2.8	0	1	0.30000000000000004	0.7	2	4	0.6000000000000001	2.8	valid	1.0164004510006637	53248	0	1	2	53248	1	53248	1	53248	1	0.7	53248	brown	green	1	4	ml	2.7.3	lorasick	sub-04_ses-01_task-ml_proj-lorasick_2020-11-10-14-09-59.505335
269	4	1	6	270	stable	8	200	70	vs	brown	green	green	brown	right	left	0.30000000000000004	0.7	4	2	1.2000000000000002	1.4	0	1	0.7	0.30000000000000004	2	4	1.4	1.2000000000000002	valid	0.8164564390026499	51200	0	0	2	51200	1	51200	1	53248	0	0.7	51200	brown	green	0	2	ml	2.7.3	lorasick	sub-04_ses-01_task-ml_proj-lorasick_2020-11-10-14-09-59.505335
270	4	1	6	271	stable	8	200	71	vs	green	brown	green	brown	left	right	0.30000000000000004	0.7	2	10	0.6000000000000001	7.0	1	0	0.30000000000000004	0.7	2	10	0.6000000000000001	7.0	invalid	0.9664161990003776	53248	0	1	2	53248	1	53248	1	53248	1	0.7	53248	brown	green	1	0	ml	2.7.3	lorasick	sub-04_ses-01_task-ml_proj-lorasick_2020-11-10-14-09-59.505335
271	4	1	6	272	stable	8	200	72	vs	green	brown	green	brown	left	right	0.30000000000000004	0.7	2	6	0.6000000000000001	4.199999999999998	0	1	0.30000000000000004	0.7	2	6	0.6000000000000001	4.199999999999998	valid	0.7998028260008141	53248	0	1	2	53248	1	53248	1	53248	1	0.7	53248	brown	green	1	6	ml	2.7.3	lorasick	sub-04_ses-01_task-ml_proj-lorasick_2020-11-10-14-09-59.505335
272	4	1	6	273	stable	8	200	73	vs	green	brown	green	brown	left	right	0.30000000000000004	0.7	2	10	0.6000000000000001	7.0	0	1	0.30000000000000004	0.7	2	10	0.6000000000000001	7.0	valid	0.6498467290002736	53248	0	1	2	53248	1	53248	1	53248	1	0.7	53248	brown	green	1	10	ml	2.7.3	lorasick	sub-04_ses-01_task-ml_proj-lorasick_2020-11-10-14-09-59.505335
273	4	1	6	274	stable	8	200	74	vs	brown	green	green	brown	right	left	0.30000000000000004	0.7	6	4	1.8000000000000005	2.8	0	1	0.7	0.30000000000000004	4	6	2.8	1.8000000000000005	valid	1.4329437540000072	51200	0	0	2	51200	1	51200	1	53248	0	0.7	51200	brown	green	0	4	ml	2.7.3	lorasick	sub-04_ses-01_task-ml_proj-lorasick_2020-11-10-14-09-59.505335
274	4	1	6	275	stable	8	200	75	vs	brown	green	green	brown	right	left	0.30000000000000004	0.7	2	4	0.6000000000000001	2.8	1	0	0.7	0.30000000000000004	4	2	2.8	0.6000000000000001	invalid	0.6664937819987244	51200	0	0	2	51200	1	51200	1	51200	1	0.7	51200	brown	green	1	0	ml	2.7.3	lorasick	sub-04_ses-01_task-ml_proj-lorasick_2020-11-10-14-09-59.505335
275	4	1	6	276	stable	8	200	76	vs	brown	green	green	brown	right	left	0.30000000000000004	0.7	2	4	0.6000000000000001	2.8	0	1	0.7	0.30000000000000004	4	2	2.8	0.6000000000000001	valid	0.8497754189993431	51200	0	0	2	51200	1	51200	1	51200	1	0.7	51200	brown	green	1	4	ml	2.7.3	lorasick	sub-04_ses-01_task-ml_proj-lorasick_2020-11-10-14-09-59.505335
276	4	1	6	277	stable	8	200	77	vs	brown	green	green	brown	right	left	0.30000000000000004	0.7	4	6	1.2000000000000002	4.199999999999998	1	0	0.7	0.30000000000000004	6	4	4.199999999999998	1.2000000000000002	invalid	0.7831941809999989	51200	0	0	2	51200	1	51200	1	51200	1	0.7	51200	brown	green	1	0	ml	2.7.3	lorasick	sub-04_ses-01_task-ml_proj-lorasick_2020-11-10-14-09-59.505335
277	4	1	6	278	stable	8	200	78	vs	green	brown	green	brown	left	right	0.30000000000000004	0.7	2	2	0.6000000000000001	1.4	1	0	0.30000000000000004	0.7	2	2	0.6000000000000001	1.4	invalid	0.7498156300025585	53248	0	1	2	53248	1	53248	1	53248	1	0.7	53248	brown	green	0	0	ml	2.7.3	lorasick	sub-04_ses-01_task-ml_proj-lorasick_2020-11-10-14-09-59.505335
278	4	1	6	279	stable	8	200	79	vs	green	brown	green	brown	left	right	0.30000000000000004	0.7	6	2	1.8000000000000005	1.4	0	1	0.30000000000000004	0.7	6	2	1.8000000000000005	1.4	valid	1.0330588110009558	53248	0	1	2	51200	0	53248	1	51200	0	0.7	53248	brown	green	0	2	ml	2.7.3	lorasick	sub-04_ses-01_task-ml_proj-lorasick_2020-11-10-14-09-59.505335
279	4	1	6	280	stable	8	200	80	vs	brown	green	green	brown	right	left	0.30000000000000004	0.7	4	2	1.2000000000000002	1.4	0	1	0.7	0.30000000000000004	2	4	1.4	1.2000000000000002	valid	0.583186913998361	51200	0	0	2	51200	1	51200	1	53248	0	0.7	51200	brown	green	0	2	ml	2.7.3	lorasick	sub-04_ses-01_task-ml_proj-lorasick_2020-11-10-14-09-59.505335
280	4	1	6	281	stable	8	200	81	vs	brown	green	green	brown	right	left	0.30000000000000004	0.7	2	2	0.6000000000000001	1.4	1	0	0.7	0.30000000000000004	2	2	1.4	0.6000000000000001	invalid	0.549864284999785	51200	0	0	2	51200	1	51200	1	53248	0	0.7	51200	brown	green	1	0	ml	2.7.3	lorasick	sub-04_ses-01_task-ml_proj-lorasick_2020-11-10-14-09-59.505335
281	4	1	6	282	stable	8	200	82	vs	brown	green	green	brown	right	left	0.30000000000000004	0.7	2	10	0.6000000000000001	7.0	1	0	0.7	0.30000000000000004	10	2	7.0	0.6000000000000001	invalid	0.8497753330011619	51200	0	0	2	51200	1	51200	1	51200	1	0.7	51200	brown	green	1	0	ml	2.7.3	lorasick	sub-04_ses-01_task-ml_proj-lorasick_2020-11-10-14-09-59.505335
282	4	1	6	283	stable	8	200	83	vs	brown	green	green	brown	right	left	0.30000000000000004	0.7	10	2	3.0000000000000004	1.4	0	1	0.7	0.30000000000000004	2	10	1.4	3.0000000000000004	valid	0.9830813779990422	53248	0	1	1	53248	1	51200	0	53248	1	0.7	51200	brown	green	0	0	ml	2.7.3	lorasick	sub-04_ses-01_task-ml_proj-lorasick_2020-11-10-14-09-59.505335
