Unnamed: 0	sub_id	ses_id	block_no	trial_no	phase_type	phase_no	phase_length	trialInPhase_no	phase_type_order	color_left	color_right	color1	color2	position1	position2	prob1	prob2	mag1	mag2	ev1	ev2	outcome1	outcome2	prob_left	prob_right	mag_left	mag_right	ev_left	ev_right	reward_validity	resp_time	resp_key	timeout	choice_side	choice	ev_corr_resp	ev_correct	prob_corr_resp	prob_correct	mag_corr_resp	mag_correct	high_prob	high_prob_side	high_prob_color	low_prob_color	no_brain	reward	name	version	proj_id	logFileID
0	6	1	1	1	stable	1	200	1	sv	turquoise	purple	purple	turquoise	right	left	0.7	0.30000000000000004	6	4	4.199999999999998	1.2000000000000002	0	1	0.30000000000000004	0.7	4	6	1.2000000000000002	4.199999999999998	invalid	0.7831381840005633	53248	0	1	1	53248	1	53248	1	53248	1	0.7	53248	purple	turquoise	1	0	ml	2.7.3	lorasick	sub-06_ses-01_task-ml_proj-lorasick_2020-12-04-14-01-39.011958
1	6	1	1	2	stable	1	200	2	sv	purple	turquoise	purple	turquoise	left	right	0.7	0.30000000000000004	2	6	1.4	1.8000000000000005	1	0	0.7	0.30000000000000004	2	6	1.4	1.8000000000000005	valid	0.8331358180003008	53248	0	1	2	53248	1	51200	0	53248	1	0.7	51200	purple	turquoise	0	0	ml	2.7.3	lorasick	sub-06_ses-01_task-ml_proj-lorasick_2020-12-04-14-01-39.011958
2	6	1	1	3	stable	1	200	3	sv	purple	turquoise	purple	turquoise	left	right	0.7	0.30000000000000004	6	4	4.199999999999998	1.2000000000000002	0	1	0.7	0.30000000000000004	6	4	4.199999999999998	1.2000000000000002	invalid	0.5165445310012728	51200	0	0	1	51200	1	51200	1	51200	1	0.7	51200	purple	turquoise	1	0	ml	2.7.3	lorasick	sub-06_ses-01_task-ml_proj-lorasick_2020-12-04-14-01-39.011958
3	6	1	1	4	stable	1	200	4	sv	purple	turquoise	purple	turquoise	left	right	0.7	0.30000000000000004	2	4	1.4	1.2000000000000002	1	0	0.7	0.30000000000000004	2	4	1.4	1.2000000000000002	valid	0.5332165599975269	53248	0	1	2	51200	0	51200	0	53248	1	0.7	51200	purple	turquoise	0	0	ml	2.7.3	lorasick	sub-06_ses-01_task-ml_proj-lorasick_2020-12-04-14-01-39.011958
4	6	1	1	5	stable	1	200	5	sv	purple	turquoise	purple	turquoise	left	right	0.7	0.30000000000000004	4	2	2.8	0.6000000000000001	1	0	0.7	0.30000000000000004	4	2	2.8	0.6000000000000001	valid	0.7331561989994952	51200	0	0	1	51200	1	51200	1	51200	1	0.7	51200	purple	turquoise	1	4	ml	2.7.3	lorasick	sub-06_ses-01_task-ml_proj-lorasick_2020-12-04-14-01-39.011958
5	6	1	1	6	stable	1	200	6	sv	purple	turquoise	purple	turquoise	left	right	0.7	0.30000000000000004	2	2	1.4	0.6000000000000001	1	0	0.7	0.30000000000000004	2	2	1.4	0.6000000000000001	valid	0.7997942059992056	51200	0	0	1	51200	1	51200	1	53248	0	0.7	51200	purple	turquoise	1	2	ml	2.7.3	lorasick	sub-06_ses-01_task-ml_proj-lorasick_2020-12-04-14-01-39.011958
6	6	1	1	7	stable	1	200	7	sv	turquoise	purple	purple	turquoise	right	left	0.7	0.30000000000000004	4	2	2.8	0.6000000000000001	0	1	0.30000000000000004	0.7	2	4	0.6000000000000001	2.8	invalid	0.4499073810002301	53248	0	1	1	53248	1	53248	1	53248	1	0.7	53248	purple	turquoise	1	0	ml	2.7.3	lorasick	sub-06_ses-01_task-ml_proj-lorasick_2020-12-04-14-01-39.011958
7	6	1	1	8	stable	1	200	8	sv	turquoise	purple	purple	turquoise	right	left	0.7	0.30000000000000004	4	6	2.8	1.8000000000000005	1	0	0.30000000000000004	0.7	6	4	1.8000000000000005	2.8	valid	0.9830763679965456	51200	0	0	2	53248	0	53248	0	51200	1	0.7	53248	purple	turquoise	0	0	ml	2.7.3	lorasick	sub-06_ses-01_task-ml_proj-lorasick_2020-12-04-14-01-39.011958
8	6	1	1	9	stable	1	200	9	sv	purple	turquoise	purple	turquoise	left	right	0.7	0.30000000000000004	4	2	2.8	0.6000000000000001	1	0	0.7	0.30000000000000004	4	2	2.8	0.6000000000000001	valid	0.4665539269990404	51200	0	0	1	51200	1	51200	1	51200	1	0.7	51200	purple	turquoise	1	4	ml	2.7.3	lorasick	sub-06_ses-01_task-ml_proj-lorasick_2020-12-04-14-01-39.011958
9	6	1	1	10	stable	1	200	10	sv	turquoise	purple	purple	turquoise	right	left	0.7	0.30000000000000004	6	6	4.199999999999998	1.8000000000000005	1	0	0.30000000000000004	0.7	6	6	1.8000000000000005	4.199999999999998	valid	0.4998949200016796	53248	0	1	1	53248	1	53248	1	53248	1	0.7	53248	purple	turquoise	0	6	ml	2.7.3	lorasick	sub-06_ses-01_task-ml_proj-lorasick_2020-12-04-14-01-39.011958
10	6	1	1	11	stable	1	200	11	sv	purple	turquoise	purple	turquoise	left	right	0.7	0.30000000000000004	2	6	1.4	1.8000000000000005	1	0	0.7	0.30000000000000004	2	6	1.4	1.8000000000000005	valid	0.8664518609984952	53248	0	1	2	53248	1	51200	0	53248	1	0.7	51200	purple	turquoise	0	0	ml	2.7.3	lorasick	sub-06_ses-01_task-ml_proj-lorasick_2020-12-04-14-01-39.011958
11	6	1	1	12	stable	1	200	12	sv	turquoise	purple	purple	turquoise	right	left	0.7	0.30000000000000004	10	2	7.0	0.6000000000000001	0	1	0.30000000000000004	0.7	2	10	0.6000000000000001	7.0	invalid	0.5998649149987614	53248	0	1	1	53248	1	53248	1	53248	1	0.7	53248	purple	turquoise	1	0	ml	2.7.3	lorasick	sub-06_ses-01_task-ml_proj-lorasick_2020-12-04-14-01-39.011958
12	6	1	1	13	stable	1	200	13	sv	turquoise	purple	purple	turquoise	right	left	0.7	0.30000000000000004	2	10	1.4	3.0000000000000004	1	0	0.30000000000000004	0.7	10	2	3.0000000000000004	1.4	valid	0.849774106998666	51200	0	0	2	51200	1	53248	0	51200	1	0.7	53248	purple	turquoise	0	0	ml	2.7.3	lorasick	sub-06_ses-01_task-ml_proj-lorasick_2020-12-04-14-01-39.011958
13	6	1	1	14	stable	1	200	14	sv	turquoise	purple	purple	turquoise	right	left	0.7	0.30000000000000004	2	2	1.4	0.6000000000000001	1	0	0.30000000000000004	0.7	2	2	0.6000000000000001	1.4	valid	0.5998653640017437	53248	0	1	1	53248	1	53248	1	53248	1	0.7	53248	purple	turquoise	0	2	ml	2.7.3	lorasick	sub-06_ses-01_task-ml_proj-lorasick_2020-12-04-14-01-39.011958
14	6	1	1	15	stable	1	200	15	sv	purple	turquoise	purple	turquoise	left	right	0.7	0.30000000000000004	6	4	4.199999999999998	1.2000000000000002	1	0	0.7	0.30000000000000004	6	4	4.199999999999998	1.2000000000000002	valid	0.4998795510000491	51200	0	0	1	51200	1	51200	1	51200	1	0.7	51200	purple	turquoise	1	6	ml	2.7.3	lorasick	sub-06_ses-01_task-ml_proj-lorasick_2020-12-04-14-01-39.011958
15	6	1	1	16	stable	1	200	16	sv	purple	turquoise	purple	turquoise	left	right	0.7	0.30000000000000004	6	4	4.199999999999998	1.2000000000000002	0	1	0.7	0.30000000000000004	6	4	4.199999999999998	1.2000000000000002	invalid	0.4832203979967744	51200	0	0	1	51200	1	51200	1	51200	1	0.7	51200	purple	turquoise	1	0	ml	2.7.3	lorasick	sub-06_ses-01_task-ml_proj-lorasick_2020-12-04-14-01-39.011958
16	6	1	1	17	stable	1	200	17	sv	turquoise	purple	purple	turquoise	right	left	0.7	0.30000000000000004	6	6	4.199999999999998	1.8000000000000005	1	0	0.30000000000000004	0.7	6	6	1.8000000000000005	4.199999999999998	valid	0.9330998080004064	53248	0	1	1	53248	1	53248	1	53248	1	0.7	53248	purple	turquoise	0	6	ml	2.7.3	lorasick	sub-06_ses-01_task-ml_proj-lorasick_2020-12-04-14-01-39.011958
17	6	1	1	18	stable	1	200	18	sv	purple	turquoise	purple	turquoise	left	right	0.7	0.30000000000000004	10	2	7.0	0.6000000000000001	0	1	0.7	0.30000000000000004	10	2	7.0	0.6000000000000001	invalid	0.5332241049982258	51200	0	0	1	51200	1	51200	1	51200	1	0.7	51200	purple	turquoise	1	0	ml	2.7.3	lorasick	sub-06_ses-01_task-ml_proj-lorasick_2020-12-04-14-01-39.011958
18	6	1	1	19	stable	1	200	19	sv	purple	turquoise	purple	turquoise	left	right	0.7	0.30000000000000004	4	2	2.8	0.6000000000000001	1	0	0.7	0.30000000000000004	4	2	2.8	0.6000000000000001	valid	0.6331758029991761	51200	0	0	1	51200	1	51200	1	51200	1	0.7	51200	purple	turquoise	1	4	ml	2.7.3	lorasick	sub-06_ses-01_task-ml_proj-lorasick_2020-12-04-14-01-39.011958
19	6	1	1	20	stable	1	200	20	sv	turquoise	purple	purple	turquoise	right	left	0.7	0.30000000000000004	2	4	1.4	1.2000000000000002	0	1	0.30000000000000004	0.7	4	2	1.2000000000000002	1.4	invalid	0.6664996680010518	51200	0	0	2	53248	0	53248	0	51200	1	0.7	53248	purple	turquoise	0	4	ml	2.7.3	lorasick	sub-06_ses-01_task-ml_proj-lorasick_2020-12-04-14-01-39.011958
20	6	1	1	21	stable	1	200	21	sv	purple	turquoise	purple	turquoise	left	right	0.7	0.30000000000000004	2	10	1.4	3.0000000000000004	1	0	0.7	0.30000000000000004	2	10	1.4	3.0000000000000004	valid	0.5498772619976079	53248	0	1	2	53248	1	51200	0	53248	1	0.7	51200	purple	turquoise	0	0	ml	2.7.3	lorasick	sub-06_ses-01_task-ml_proj-lorasick_2020-12-04-14-01-39.011958
21	6	1	1	22	stable	1	200	22	sv	purple	turquoise	purple	turquoise	left	right	0.7	0.30000000000000004	2	4	1.4	1.2000000000000002	1	0	0.7	0.30000000000000004	2	4	1.4	1.2000000000000002	valid	0.4998930250003468	53248	0	1	2	51200	0	51200	0	53248	1	0.7	51200	purple	turquoise	0	0	ml	2.7.3	lorasick	sub-06_ses-01_task-ml_proj-lorasick_2020-12-04-14-01-39.011958
22	6	1	1	23	stable	1	200	23	sv	purple	turquoise	purple	turquoise	left	right	0.7	0.30000000000000004	2	10	1.4	3.0000000000000004	1	0	0.7	0.30000000000000004	2	10	1.4	3.0000000000000004	valid	0.549875870001415	53248	0	1	2	53248	1	51200	0	53248	1	0.7	51200	purple	turquoise	0	0	ml	2.7.3	lorasick	sub-06_ses-01_task-ml_proj-lorasick_2020-12-04-14-01-39.011958
23	6	1	1	24	stable	1	200	24	sv	turquoise	purple	purple	turquoise	right	left	0.7	0.30000000000000004	10	2	7.0	0.6000000000000001	1	0	0.30000000000000004	0.7	2	10	0.6000000000000001	7.0	valid	0.5498777650027478	53248	0	1	1	53248	1	53248	1	53248	1	0.7	53248	purple	turquoise	1	10	ml	2.7.3	lorasick	sub-06_ses-01_task-ml_proj-lorasick_2020-12-04-14-01-39.011958
24	6	1	1	25	stable	1	200	25	sv	purple	turquoise	purple	turquoise	left	right	0.7	0.30000000000000004	6	4	4.199999999999998	1.2000000000000002	0	1	0.7	0.30000000000000004	6	4	4.199999999999998	1.2000000000000002	invalid	0.4998726280027768	51200	0	0	1	51200	1	51200	1	51200	1	0.7	51200	purple	turquoise	1	0	ml	2.7.3	lorasick	sub-06_ses-01_task-ml_proj-lorasick_2020-12-04-14-01-39.011958
25	6	1	1	26	stable	1	200	26	sv	turquoise	purple	purple	turquoise	right	left	0.7	0.30000000000000004	2	6	1.4	1.8000000000000005	0	1	0.30000000000000004	0.7	6	2	1.8000000000000005	1.4	invalid	0.5332055790022423	51200	0	0	2	51200	1	53248	0	51200	1	0.7	53248	purple	turquoise	0	6	ml	2.7.3	lorasick	sub-06_ses-01_task-ml_proj-lorasick_2020-12-04-14-01-39.011958
26	6	1	1	27	stable	1	200	27	sv	turquoise	purple	purple	turquoise	right	left	0.7	0.30000000000000004	6	4	4.199999999999998	1.2000000000000002	0	1	0.30000000000000004	0.7	4	6	1.2000000000000002	4.199999999999998	invalid	0.4832306710013654	53248	0	1	1	53248	1	53248	1	53248	1	0.7	53248	purple	turquoise	1	0	ml	2.7.3	lorasick	sub-06_ses-01_task-ml_proj-lorasick_2020-12-04-14-01-39.011958
27	6	1	1	28	stable	1	200	28	sv	turquoise	purple	purple	turquoise	right	left	0.7	0.30000000000000004	4	2	2.8	0.6000000000000001	1	0	0.30000000000000004	0.7	2	4	0.6000000000000001	2.8	valid	0.6831710750011553	53248	0	1	1	53248	1	53248	1	53248	1	0.7	53248	purple	turquoise	1	4	ml	2.7.3	lorasick	sub-06_ses-01_task-ml_proj-lorasick_2020-12-04-14-01-39.011958
28	6	1	1	29	stable	1	200	29	sv	purple	turquoise	purple	turquoise	left	right	0.7	0.30000000000000004	10	2	7.0	0.6000000000000001	1	0	0.7	0.30000000000000004	10	2	7.0	0.6000000000000001	valid	0.5332036539984983	51200	0	0	1	51200	1	51200	1	51200	1	0.7	51200	purple	turquoise	1	10	ml	2.7.3	lorasick	sub-06_ses-01_task-ml_proj-lorasick_2020-12-04-14-01-39.011958
29	6	1	1	30	stable	1	200	30	sv	turquoise	purple	purple	turquoise	right	left	0.7	0.30000000000000004	6	6	4.199999999999998	1.8000000000000005	1	0	0.30000000000000004	0.7	6	6	1.8000000000000005	4.199999999999998	valid	1.0830456139992748	51200	0	0	2	53248	0	53248	0	53248	0	0.7	53248	purple	turquoise	0	0	ml	2.7.3	lorasick	sub-06_ses-01_task-ml_proj-lorasick_2020-12-04-14-01-39.011958
30	6	1	1	31	stable	1	200	31	sv	purple	turquoise	purple	turquoise	left	right	0.7	0.30000000000000004	2	2	1.4	0.6000000000000001	1	0	0.7	0.30000000000000004	2	2	1.4	0.6000000000000001	valid	1.1330334660015071	51200	0	0	1	51200	1	51200	1	53248	0	0.7	51200	purple	turquoise	1	2	ml	2.7.3	lorasick	sub-06_ses-01_task-ml_proj-lorasick_2020-12-04-14-01-39.011958
31	6	1	1	32	stable	1	200	32	sv	turquoise	purple	purple	turquoise	right	left	0.7	0.30000000000000004	2	4	1.4	1.2000000000000002	0	1	0.30000000000000004	0.7	4	2	1.2000000000000002	1.4	invalid	1.1996752529994408	51200	0	0	2	53248	0	53248	0	51200	1	0.7	53248	purple	turquoise	0	4	ml	2.7.3	lorasick	sub-06_ses-01_task-ml_proj-lorasick_2020-12-04-14-01-39.011958
32	6	1	1	33	stable	1	200	33	sv	turquoise	purple	purple	turquoise	right	left	0.7	0.30000000000000004	6	6	4.199999999999998	1.8000000000000005	1	0	0.30000000000000004	0.7	6	6	1.8000000000000005	4.199999999999998	valid	0.6831646860009641	53248	0	1	1	53248	1	53248	1	53248	1	0.7	53248	purple	turquoise	0	6	ml	2.7.3	lorasick	sub-06_ses-01_task-ml_proj-lorasick_2020-12-04-14-01-39.011958
33	6	1	1	34	stable	1	200	34	sv	turquoise	purple	purple	turquoise	right	left	0.7	0.30000000000000004	4	2	2.8	0.6000000000000001	0	1	0.30000000000000004	0.7	2	4	0.6000000000000001	2.8	invalid	0.5165466569997079	53248	0	1	1	53248	1	53248	1	53248	1	0.7	53248	purple	turquoise	1	0	ml	2.7.3	lorasick	sub-06_ses-01_task-ml_proj-lorasick_2020-12-04-14-01-39.011958
34	6	1	1	35	stable	1	200	35	sv	turquoise	purple	purple	turquoise	right	left	0.7	0.30000000000000004	4	6	2.8	1.8000000000000005	1	0	0.30000000000000004	0.7	6	4	1.8000000000000005	2.8	valid	0.6165157260002161	51200	0	0	2	53248	0	53248	0	51200	1	0.7	53248	purple	turquoise	0	0	ml	2.7.3	lorasick	sub-06_ses-01_task-ml_proj-lorasick_2020-12-04-14-01-39.011958
35	6	1	1	36	stable	1	200	36	sv	purple	turquoise	purple	turquoise	left	right	0.7	0.30000000000000004	2	2	1.4	0.6000000000000001	1	0	0.7	0.30000000000000004	2	2	1.4	0.6000000000000001	valid	0.8497799980032141	51200	0	0	1	51200	1	51200	1	53248	0	0.7	51200	purple	turquoise	1	2	ml	2.7.3	lorasick	sub-06_ses-01_task-ml_proj-lorasick_2020-12-04-14-01-39.011958
36	6	1	1	37	stable	1	200	37	sv	purple	turquoise	purple	turquoise	left	right	0.7	0.30000000000000004	2	4	1.4	1.2000000000000002	1	0	0.7	0.30000000000000004	2	4	1.4	1.2000000000000002	valid	0.8997634920015116	51200	0	0	1	51200	1	51200	1	53248	0	0.7	51200	purple	turquoise	0	2	ml	2.7.3	lorasick	sub-06_ses-01_task-ml_proj-lorasick_2020-12-04-14-01-39.011958
37	6	1	1	38	stable	1	200	38	sv	purple	turquoise	purple	turquoise	left	right	0.7	0.30000000000000004	2	6	1.4	1.8000000000000005	1	0	0.7	0.30000000000000004	2	6	1.4	1.8000000000000005	valid	0.7831310980000126	51200	0	0	1	53248	0	51200	1	53248	0	0.7	51200	purple	turquoise	0	2	ml	2.7.3	lorasick	sub-06_ses-01_task-ml_proj-lorasick_2020-12-04-14-01-39.011958
38	6	1	1	39	stable	1	200	39	sv	purple	turquoise	purple	turquoise	left	right	0.7	0.30000000000000004	2	4	1.4	1.2000000000000002	0	1	0.7	0.30000000000000004	2	4	1.4	1.2000000000000002	invalid	0.9330869299992628	51200	0	0	1	51200	1	51200	1	53248	0	0.7	51200	purple	turquoise	0	0	ml	2.7.3	lorasick	sub-06_ses-01_task-ml_proj-lorasick_2020-12-04-14-01-39.011958
39	6	1	1	40	stable	1	200	40	sv	turquoise	purple	purple	turquoise	right	left	0.7	0.30000000000000004	6	4	4.199999999999998	1.2000000000000002	0	1	0.30000000000000004	0.7	4	6	1.2000000000000002	4.199999999999998	invalid	0.4998898370031384	53248	0	1	1	53248	1	53248	1	53248	1	0.7	53248	purple	turquoise	1	0	ml	2.7.3	lorasick	sub-06_ses-01_task-ml_proj-lorasick_2020-12-04-14-01-39.011958
40	6	1	1	41	stable	1	200	41	sv	turquoise	purple	purple	turquoise	right	left	0.7	0.30000000000000004	2	10	1.4	3.0000000000000004	1	0	0.30000000000000004	0.7	10	2	3.0000000000000004	1.4	valid	0.7331204729998717	51200	0	0	2	51200	1	53248	0	51200	1	0.7	53248	purple	turquoise	0	0	ml	2.7.3	lorasick	sub-06_ses-01_task-ml_proj-lorasick_2020-12-04-14-01-39.011958
41	6	1	1	42	stable	1	200	42	sv	purple	turquoise	purple	turquoise	left	right	0.7	0.30000000000000004	4	2	2.8	0.6000000000000001	1	0	0.7	0.30000000000000004	4	2	2.8	0.6000000000000001	valid	0.8997661329995026	51200	0	0	1	51200	1	51200	1	51200	1	0.7	51200	purple	turquoise	1	4	ml	2.7.3	lorasick	sub-06_ses-01_task-ml_proj-lorasick_2020-12-04-14-01-39.011958
42	6	1	1	43	stable	1	200	43	sv	purple	turquoise	purple	turquoise	left	right	0.7	0.30000000000000004	2	10	1.4	3.0000000000000004	0	1	0.7	0.30000000000000004	2	10	1.4	3.0000000000000004	invalid	0.566542765001941	53248	0	1	2	53248	1	51200	0	53248	1	0.7	51200	purple	turquoise	0	10	ml	2.7.3	lorasick	sub-06_ses-01_task-ml_proj-lorasick_2020-12-04-14-01-39.011958
43	6	1	1	44	stable	1	200	44	sv	purple	turquoise	purple	turquoise	left	right	0.7	0.30000000000000004	4	6	2.8	1.8000000000000005	0	1	0.7	0.30000000000000004	4	6	2.8	1.8000000000000005	invalid	0.8331162579997908	51200	0	0	1	51200	1	51200	1	53248	0	0.7	51200	purple	turquoise	0	0	ml	2.7.3	lorasick	sub-06_ses-01_task-ml_proj-lorasick_2020-12-04-14-01-39.011958
44	6	1	1	45	stable	1	200	45	sv	turquoise	purple	purple	turquoise	right	left	0.7	0.30000000000000004	4	6	2.8	1.8000000000000005	1	0	0.30000000000000004	0.7	6	4	1.8000000000000005	2.8	valid	0.5332043060006981	51200	0	0	2	53248	0	53248	0	51200	1	0.7	53248	purple	turquoise	0	0	ml	2.7.3	lorasick	sub-06_ses-01_task-ml_proj-lorasick_2020-12-04-14-01-39.011958
45	6	1	1	46	stable	1	200	46	sv	turquoise	purple	purple	turquoise	right	left	0.7	0.30000000000000004	6	6	4.199999999999998	1.8000000000000005	0	1	0.30000000000000004	0.7	6	6	1.8000000000000005	4.199999999999998	invalid	0.6331760709981609	51200	0	0	2	53248	0	53248	0	53248	0	0.7	53248	purple	turquoise	0	6	ml	2.7.3	lorasick	sub-06_ses-01_task-ml_proj-lorasick_2020-12-04-14-01-39.011958
46	6	1	1	47	stable	1	200	47	sv	purple	turquoise	purple	turquoise	left	right	0.7	0.30000000000000004	6	2	4.199999999999998	0.6000000000000001	1	0	0.7	0.30000000000000004	6	2	4.199999999999998	0.6000000000000001	valid	0.7498114250010985	51200	0	0	1	51200	1	51200	1	51200	1	0.7	51200	purple	turquoise	1	6	ml	2.7.3	lorasick	sub-06_ses-01_task-ml_proj-lorasick_2020-12-04-14-01-39.011958
47	6	1	1	48	stable	1	200	48	sv	turquoise	purple	purple	turquoise	right	left	0.7	0.30000000000000004	2	4	1.4	1.2000000000000002	1	0	0.30000000000000004	0.7	4	2	1.2000000000000002	1.4	valid	1.2163418260024628	51200	0	0	2	53248	0	53248	0	51200	1	0.7	53248	purple	turquoise	0	0	ml	2.7.3	lorasick	sub-06_ses-01_task-ml_proj-lorasick_2020-12-04-14-01-39.011958
48	6	1	1	49	stable	1	200	49	sv	purple	turquoise	purple	turquoise	left	right	0.7	0.30000000000000004	10	2	7.0	0.6000000000000001	1	0	0.7	0.30000000000000004	10	2	7.0	0.6000000000000001	valid	0.4332343599999149	51200	0	0	1	51200	1	51200	1	51200	1	0.7	51200	purple	turquoise	1	10	ml	2.7.3	lorasick	sub-06_ses-01_task-ml_proj-lorasick_2020-12-04-14-01-39.011958
49	6	1	1	50	stable	1	200	50	sv	turquoise	purple	purple	turquoise	right	left	0.7	0.30000000000000004	2	6	1.4	1.8000000000000005	0	1	0.30000000000000004	0.7	6	2	1.8000000000000005	1.4	invalid	0.4665714600014326	53248	0	1	1	51200	0	53248	1	51200	0	0.7	53248	purple	turquoise	0	0	ml	2.7.3	lorasick	sub-06_ses-01_task-ml_proj-lorasick_2020-12-04-14-01-39.011958
50	6	1	2	51	stable	1	200	51	sv	purple	turquoise	purple	turquoise	left	right	0.7	0.30000000000000004	4	6	2.8	1.8000000000000005	0	1	0.7	0.30000000000000004	4	6	2.8	1.8000000000000005	invalid	0.6498462109993852	53248	0	1	2	51200	0	51200	0	53248	1	0.7	51200	purple	turquoise	0	6	ml	2.7.3	lorasick	sub-06_ses-01_task-ml_proj-lorasick_2020-12-04-14-01-39.011958
51	6	1	2	52	stable	1	200	52	sv	purple	turquoise	purple	turquoise	left	right	0.7	0.30000000000000004	6	4	4.199999999999998	1.2000000000000002	1	0	0.7	0.30000000000000004	6	4	4.199999999999998	1.2000000000000002	valid	0.5832020509988071	53248	0	1	2	51200	0	51200	0	51200	0	0.7	51200	purple	turquoise	1	0	ml	2.7.3	lorasick	sub-06_ses-01_task-ml_proj-lorasick_2020-12-04-14-01-39.011958
52	6	1	2	53	stable	1	200	53	sv	purple	turquoise	purple	turquoise	left	right	0.7	0.30000000000000004	2	2	1.4	0.6000000000000001	1	0	0.7	0.30000000000000004	2	2	1.4	0.6000000000000001	valid	0.5832023119983205	53248	0	1	2	51200	0	51200	0	53248	1	0.7	51200	purple	turquoise	1	0	ml	2.7.3	lorasick	sub-06_ses-01_task-ml_proj-lorasick_2020-12-04-14-01-39.011958
53	6	1	2	54	stable	1	200	54	sv	turquoise	purple	purple	turquoise	right	left	0.7	0.30000000000000004	6	6	4.199999999999998	1.8000000000000005	1	0	0.30000000000000004	0.7	6	6	1.8000000000000005	4.199999999999998	valid	0.7331575159987551	53248	0	1	1	53248	1	53248	1	53248	1	0.7	53248	purple	turquoise	0	6	ml	2.7.3	lorasick	sub-06_ses-01_task-ml_proj-lorasick_2020-12-04-14-01-39.011958
54	6	1	2	55	stable	1	200	55	sv	turquoise	purple	purple	turquoise	right	left	0.7	0.30000000000000004	2	6	1.4	1.8000000000000005	1	0	0.30000000000000004	0.7	6	2	1.8000000000000005	1.4	valid	0.5998702959986986	53248	0	1	1	51200	0	53248	1	51200	0	0.7	53248	purple	turquoise	0	2	ml	2.7.3	lorasick	sub-06_ses-01_task-ml_proj-lorasick_2020-12-04-14-01-39.011958
55	6	1	2	56	stable	1	200	56	sv	purple	turquoise	purple	turquoise	left	right	0.7	0.30000000000000004	2	6	1.4	1.8000000000000005	1	0	0.7	0.30000000000000004	2	6	1.4	1.8000000000000005	valid	1.2329998130007882	51200	0	0	1	53248	0	51200	1	53248	0	0.7	51200	purple	turquoise	0	2	ml	2.7.3	lorasick	sub-06_ses-01_task-ml_proj-lorasick_2020-12-04-14-01-39.011958
56	6	1	2	57	stable	1	200	57	sv	turquoise	purple	purple	turquoise	right	left	0.7	0.30000000000000004	2	2	1.4	0.6000000000000001	1	0	0.30000000000000004	0.7	2	2	0.6000000000000001	1.4	valid	0.5498782330032554	53248	0	1	1	53248	1	53248	1	53248	1	0.7	53248	purple	turquoise	0	2	ml	2.7.3	lorasick	sub-06_ses-01_task-ml_proj-lorasick_2020-12-04-14-01-39.011958
57	6	1	2	58	stable	1	200	58	sv	turquoise	purple	purple	turquoise	right	left	0.7	0.30000000000000004	2	4	1.4	1.2000000000000002	1	0	0.30000000000000004	0.7	4	2	1.2000000000000002	1.4	valid	0.5165527919998567	53248	0	1	1	53248	1	53248	1	51200	0	0.7	53248	purple	turquoise	0	2	ml	2.7.3	lorasick	sub-06_ses-01_task-ml_proj-lorasick_2020-12-04-14-01-39.011958
58	6	1	2	59	stable	1	200	59	sv	turquoise	purple	purple	turquoise	right	left	0.7	0.30000000000000004	4	6	2.8	1.8000000000000005	0	1	0.30000000000000004	0.7	6	4	1.8000000000000005	2.8	invalid	0.4832246749974729	53248	0	1	1	53248	1	53248	1	51200	0	0.7	53248	purple	turquoise	0	0	ml	2.7.3	lorasick	sub-06_ses-01_task-ml_proj-lorasick_2020-12-04-14-01-39.011958
59	6	1	2	60	stable	1	200	60	sv	purple	turquoise	purple	turquoise	left	right	0.7	0.30000000000000004	4	6	2.8	1.8000000000000005	1	0	0.7	0.30000000000000004	4	6	2.8	1.8000000000000005	valid	0.3332582099974388	51200	0	0	1	51200	1	51200	1	53248	0	0.7	51200	purple	turquoise	0	4	ml	2.7.3	lorasick	sub-06_ses-01_task-ml_proj-lorasick_2020-12-04-14-01-39.011958
60	6	1	2	61	stable	1	200	61	sv	turquoise	purple	purple	turquoise	right	left	0.7	0.30000000000000004	2	6	1.4	1.8000000000000005	1	0	0.30000000000000004	0.7	6	2	1.8000000000000005	1.4	valid	0.3332721289989422	53248	0	1	1	51200	0	53248	1	51200	0	0.7	53248	purple	turquoise	0	2	ml	2.7.3	lorasick	sub-06_ses-01_task-ml_proj-lorasick_2020-12-04-14-01-39.011958
61	6	1	2	62	stable	1	200	62	sv	purple	turquoise	purple	turquoise	left	right	0.7	0.30000000000000004	6	6	4.199999999999998	1.8000000000000005	0	1	0.7	0.30000000000000004	6	6	4.199999999999998	1.8000000000000005	invalid	0.3999111310004082	51200	0	0	1	51200	1	51200	1	53248	0	0.7	51200	purple	turquoise	1	0	ml	2.7.3	lorasick	sub-06_ses-01_task-ml_proj-lorasick_2020-12-04-14-01-39.011958
62	6	1	2	63	stable	1	200	63	sv	turquoise	purple	purple	turquoise	right	left	0.7	0.30000000000000004	4	6	2.8	1.8000000000000005	1	0	0.30000000000000004	0.7	6	4	1.8000000000000005	2.8	valid	0.4499063760013087	53248	0	1	1	53248	1	53248	1	51200	0	0.7	53248	purple	turquoise	0	4	ml	2.7.3	lorasick	sub-06_ses-01_task-ml_proj-lorasick_2020-12-04-14-01-39.011958
63	6	1	2	64	stable	1	200	64	sv	purple	turquoise	purple	turquoise	left	right	0.7	0.30000000000000004	6	4	4.199999999999998	1.2000000000000002	1	0	0.7	0.30000000000000004	6	4	4.199999999999998	1.2000000000000002	valid	0.3332609950011829	51200	0	0	1	51200	1	51200	1	51200	1	0.7	51200	purple	turquoise	1	6	ml	2.7.3	lorasick	sub-06_ses-01_task-ml_proj-lorasick_2020-12-04-14-01-39.011958
64	6	1	2	65	stable	1	200	65	sv	purple	turquoise	purple	turquoise	left	right	0.7	0.30000000000000004	2	4	1.4	1.2000000000000002	1	0	0.7	0.30000000000000004	2	4	1.4	1.2000000000000002	valid	0.9164262039994356	51200	0	0	1	51200	1	51200	1	53248	0	0.7	51200	purple	turquoise	0	2	ml	2.7.3	lorasick	sub-06_ses-01_task-ml_proj-lorasick_2020-12-04-14-01-39.011958
65	6	1	2	66	stable	1	200	66	sv	turquoise	purple	purple	turquoise	right	left	0.7	0.30000000000000004	2	2	1.4	0.6000000000000001	0	1	0.30000000000000004	0.7	2	2	0.6000000000000001	1.4	invalid	0.4832276519991865	53248	0	1	1	53248	1	53248	1	53248	1	0.7	53248	purple	turquoise	0	0	ml	2.7.3	lorasick	sub-06_ses-01_task-ml_proj-lorasick_2020-12-04-14-01-39.011958
66	6	1	2	67	stable	1	200	67	sv	purple	turquoise	purple	turquoise	left	right	0.7	0.30000000000000004	2	4	1.4	1.2000000000000002	0	1	0.7	0.30000000000000004	2	4	1.4	1.2000000000000002	invalid	0.7498065489999135	51200	0	0	1	51200	1	51200	1	53248	0	0.7	51200	purple	turquoise	0	0	ml	2.7.3	lorasick	sub-06_ses-01_task-ml_proj-lorasick_2020-12-04-14-01-39.011958
67	6	1	2	68	stable	1	200	68	sv	turquoise	purple	purple	turquoise	right	left	0.7	0.30000000000000004	2	4	1.4	1.2000000000000002	1	0	0.30000000000000004	0.7	4	2	1.2000000000000002	1.4	valid	0.4665591989978566	51200	0	0	2	53248	0	53248	0	51200	1	0.7	53248	purple	turquoise	0	0	ml	2.7.3	lorasick	sub-06_ses-01_task-ml_proj-lorasick_2020-12-04-14-01-39.011958
68	6	1	2	69	stable	1	200	69	sv	turquoise	purple	purple	turquoise	right	left	0.7	0.30000000000000004	6	4	4.199999999999998	1.2000000000000002	1	0	0.30000000000000004	0.7	4	6	1.2000000000000002	4.199999999999998	valid	0.4998909589994582	53248	0	1	1	53248	1	53248	1	53248	1	0.7	53248	purple	turquoise	1	6	ml	2.7.3	lorasick	sub-06_ses-01_task-ml_proj-lorasick_2020-12-04-14-01-39.011958
69	6	1	2	70	stable	1	200	70	sv	turquoise	purple	purple	turquoise	right	left	0.7	0.30000000000000004	6	2	4.199999999999998	0.6000000000000001	1	0	0.30000000000000004	0.7	2	6	0.6000000000000001	4.199999999999998	valid	0.44990553699972224	53248	0	1	1	53248	1	53248	1	53248	1	0.7	53248	purple	turquoise	1	6	ml	2.7.3	lorasick	sub-06_ses-01_task-ml_proj-lorasick_2020-12-04-14-01-39.011958
70	6	1	2	71	stable	1	200	71	sv	purple	turquoise	purple	turquoise	left	right	0.7	0.30000000000000004	2	6	1.4	1.8000000000000005	1	0	0.7	0.30000000000000004	2	6	1.4	1.8000000000000005	valid	0.41657374699934735	51200	0	0	1	53248	0	51200	1	53248	0	0.7	51200	purple	turquoise	0	2	ml	2.7.3	lorasick	sub-06_ses-01_task-ml_proj-lorasick_2020-12-04-14-01-39.011958
71	6	1	2	72	stable	1	200	72	sv	purple	turquoise	purple	turquoise	left	right	0.7	0.30000000000000004	2	2	1.4	0.6000000000000001	0	1	0.7	0.30000000000000004	2	2	1.4	0.6000000000000001	invalid	0.4665405640007521	51200	0	0	1	51200	1	51200	1	53248	0	0.7	51200	purple	turquoise	1	0	ml	2.7.3	lorasick	sub-06_ses-01_task-ml_proj-lorasick_2020-12-04-14-01-39.011958
72	6	1	2	73	stable	1	200	73	sv	turquoise	purple	purple	turquoise	right	left	0.7	0.30000000000000004	6	4	4.199999999999998	1.2000000000000002	1	0	0.30000000000000004	0.7	4	6	1.2000000000000002	4.199999999999998	valid	0.4998918580022291	53248	0	1	1	53248	1	53248	1	53248	1	0.7	53248	purple	turquoise	1	6	ml	2.7.3	lorasick	sub-06_ses-01_task-ml_proj-lorasick_2020-12-04-14-01-39.011958
73	6	1	2	74	stable	1	200	74	sv	purple	turquoise	purple	turquoise	left	right	0.7	0.30000000000000004	2	6	1.4	1.8000000000000005	1	0	0.7	0.30000000000000004	2	6	1.4	1.8000000000000005	valid	0.6665010920005443	51200	0	0	1	53248	0	51200	1	53248	0	0.7	51200	purple	turquoise	0	2	ml	2.7.3	lorasick	sub-06_ses-01_task-ml_proj-lorasick_2020-12-04-14-01-39.011958
74	6	1	2	75	stable	1	200	75	sv	turquoise	purple	purple	turquoise	right	left	0.7	0.30000000000000004	6	6	4.199999999999998	1.8000000000000005	1	0	0.30000000000000004	0.7	6	6	1.8000000000000005	4.199999999999998	valid	0.549876128003234	53248	0	1	1	53248	1	53248	1	53248	1	0.7	53248	purple	turquoise	0	6	ml	2.7.3	lorasick	sub-06_ses-01_task-ml_proj-lorasick_2020-12-04-14-01-39.011958
75	6	1	2	76	stable	1	200	76	sv	turquoise	purple	purple	turquoise	right	left	0.7	0.30000000000000004	2	6	1.4	1.8000000000000005	0	1	0.30000000000000004	0.7	6	2	1.8000000000000005	1.4	invalid	0.6998231600009603	51200	0	0	2	51200	1	53248	0	51200	1	0.7	53248	purple	turquoise	0	6	ml	2.7.3	lorasick	sub-06_ses-01_task-ml_proj-lorasick_2020-12-04-14-01-39.011958
76	6	1	2	77	stable	1	200	77	sv	turquoise	purple	purple	turquoise	right	left	0.7	0.30000000000000004	2	10	1.4	3.0000000000000004	1	0	0.30000000000000004	0.7	10	2	3.0000000000000004	1.4	valid	0.4665578120002465	51200	0	0	2	51200	1	53248	0	51200	1	0.7	53248	purple	turquoise	0	0	ml	2.7.3	lorasick	sub-06_ses-01_task-ml_proj-lorasick_2020-12-04-14-01-39.011958
77	6	1	2	78	stable	1	200	78	sv	turquoise	purple	purple	turquoise	right	left	0.7	0.30000000000000004	2	2	1.4	0.6000000000000001	1	0	0.30000000000000004	0.7	2	2	0.6000000000000001	1.4	valid	0.6331755690007412	53248	0	1	1	53248	1	53248	1	53248	1	0.7	53248	purple	turquoise	0	2	ml	2.7.3	lorasick	sub-06_ses-01_task-ml_proj-lorasick_2020-12-04-14-01-39.011958
78	6	1	2	79	stable	1	200	79	sv	purple	turquoise	purple	turquoise	left	right	0.7	0.30000000000000004	6	6	4.199999999999998	1.8000000000000005	1	0	0.7	0.30000000000000004	6	6	4.199999999999998	1.8000000000000005	valid	0.5165402000020549	51200	0	0	1	51200	1	51200	1	53248	0	0.7	51200	purple	turquoise	1	6	ml	2.7.3	lorasick	sub-06_ses-01_task-ml_proj-lorasick_2020-12-04-14-01-39.011958
79	6	1	2	80	stable	1	200	80	sv	turquoise	purple	purple	turquoise	right	left	0.7	0.30000000000000004	2	10	1.4	3.0000000000000004	1	0	0.30000000000000004	0.7	10	2	3.0000000000000004	1.4	valid	0.5665195010005846	51200	0	0	2	51200	1	53248	0	51200	1	0.7	53248	purple	turquoise	0	0	ml	2.7.3	lorasick	sub-06_ses-01_task-ml_proj-lorasick_2020-12-04-14-01-39.011958
80	6	1	2	81	stable	1	200	81	sv	purple	turquoise	purple	turquoise	left	right	0.7	0.30000000000000004	6	4	4.199999999999998	1.2000000000000002	1	0	0.7	0.30000000000000004	6	4	4.199999999999998	1.2000000000000002	valid	0.5165507420024369	51200	0	0	1	51200	1	51200	1	51200	1	0.7	51200	purple	turquoise	1	6	ml	2.7.3	lorasick	sub-06_ses-01_task-ml_proj-lorasick_2020-12-04-14-01-39.011958
81	6	1	2	82	stable	1	200	82	sv	purple	turquoise	purple	turquoise	left	right	0.7	0.30000000000000004	2	10	1.4	3.0000000000000004	0	1	0.7	0.30000000000000004	2	10	1.4	3.0000000000000004	invalid	0.7498362660007842	53248	0	1	2	53248	1	51200	0	53248	1	0.7	51200	purple	turquoise	0	10	ml	2.7.3	lorasick	sub-06_ses-01_task-ml_proj-lorasick_2020-12-04-14-01-39.011958
82	6	1	2	83	stable	1	200	83	sv	purple	turquoise	purple	turquoise	left	right	0.7	0.30000000000000004	2	10	1.4	3.0000000000000004	0	1	0.7	0.30000000000000004	2	10	1.4	3.0000000000000004	invalid	0.5831911239984038	51200	0	0	1	53248	0	51200	1	53248	0	0.7	51200	purple	turquoise	0	0	ml	2.7.3	lorasick	sub-06_ses-01_task-ml_proj-lorasick_2020-12-04-14-01-39.011958
83	6	1	2	84	stable	1	200	84	sv	turquoise	purple	purple	turquoise	right	left	0.7	0.30000000000000004	2	10	1.4	3.0000000000000004	1	0	0.30000000000000004	0.7	10	2	3.0000000000000004	1.4	valid	0.8831041520024883	51200	0	0	2	51200	1	53248	0	51200	1	0.7	53248	purple	turquoise	0	0	ml	2.7.3	lorasick	sub-06_ses-01_task-ml_proj-lorasick_2020-12-04-14-01-39.011958
84	6	1	2	85	stable	1	200	85	sv	turquoise	purple	purple	turquoise	right	left	0.7	0.30000000000000004	6	2	4.199999999999998	0.6000000000000001	0	1	0.30000000000000004	0.7	2	6	0.6000000000000001	4.199999999999998	invalid	0.6498425839999982	53248	0	1	1	53248	1	53248	1	53248	1	0.7	53248	purple	turquoise	1	0	ml	2.7.3	lorasick	sub-06_ses-01_task-ml_proj-lorasick_2020-12-04-14-01-39.011958
85	6	1	2	86	stable	1	200	86	sv	turquoise	purple	purple	turquoise	right	left	0.7	0.30000000000000004	6	4	4.199999999999998	1.2000000000000002	1	0	0.30000000000000004	0.7	4	6	1.2000000000000002	4.199999999999998	valid	0.4832265570003074	53248	0	1	1	53248	1	53248	1	53248	1	0.7	53248	purple	turquoise	1	6	ml	2.7.3	lorasick	sub-06_ses-01_task-ml_proj-lorasick_2020-12-04-14-01-39.011958
86	6	1	2	87	stable	1	200	87	sv	purple	turquoise	purple	turquoise	left	right	0.7	0.30000000000000004	6	4	4.199999999999998	1.2000000000000002	1	0	0.7	0.30000000000000004	6	4	4.199999999999998	1.2000000000000002	valid	0.4832208580010047	51200	0	0	1	51200	1	51200	1	51200	1	0.7	51200	purple	turquoise	1	6	ml	2.7.3	lorasick	sub-06_ses-01_task-ml_proj-lorasick_2020-12-04-14-01-39.011958
87	6	1	2	88	stable	1	200	88	sv	turquoise	purple	purple	turquoise	right	left	0.7	0.30000000000000004	6	2	4.199999999999998	0.6000000000000001	1	0	0.30000000000000004	0.7	2	6	0.6000000000000001	4.199999999999998	valid	0.5832054249985958	53248	0	1	1	53248	1	53248	1	53248	1	0.7	53248	purple	turquoise	1	6	ml	2.7.3	lorasick	sub-06_ses-01_task-ml_proj-lorasick_2020-12-04-14-01-39.011958
88	6	1	2	89	stable	1	200	89	sv	purple	turquoise	purple	turquoise	left	right	0.7	0.30000000000000004	10	2	7.0	0.6000000000000001	1	0	0.7	0.30000000000000004	10	2	7.0	0.6000000000000001	valid	0.3832484049999039	51200	0	0	1	51200	1	51200	1	51200	1	0.7	51200	purple	turquoise	1	10	ml	2.7.3	lorasick	sub-06_ses-01_task-ml_proj-lorasick_2020-12-04-14-01-39.011958
89	6	1	2	90	stable	1	200	90	sv	purple	turquoise	purple	turquoise	left	right	0.7	0.30000000000000004	4	2	2.8	0.6000000000000001	1	0	0.7	0.30000000000000004	4	2	2.8	0.6000000000000001	valid	0.4498910619986418	51200	0	0	1	51200	1	51200	1	51200	1	0.7	51200	purple	turquoise	1	4	ml	2.7.3	lorasick	sub-06_ses-01_task-ml_proj-lorasick_2020-12-04-14-01-39.011958
90	6	1	2	91	stable	1	200	91	sv	purple	turquoise	purple	turquoise	left	right	0.7	0.30000000000000004	6	6	4.199999999999998	1.8000000000000005	0	1	0.7	0.30000000000000004	6	6	4.199999999999998	1.8000000000000005	invalid	0.3999123190005776	51200	0	0	1	51200	1	51200	1	53248	0	0.7	51200	purple	turquoise	1	0	ml	2.7.3	lorasick	sub-06_ses-01_task-ml_proj-lorasick_2020-12-04-14-01-39.011958
91	6	1	2	92	stable	1	200	92	sv	purple	turquoise	purple	turquoise	left	right	0.7	0.30000000000000004	6	2	4.199999999999998	0.6000000000000001	0	1	0.7	0.30000000000000004	6	2	4.199999999999998	0.6000000000000001	invalid	0.4665601039996545	51200	0	0	1	51200	1	51200	1	51200	1	0.7	51200	purple	turquoise	1	0	ml	2.7.3	lorasick	sub-06_ses-01_task-ml_proj-lorasick_2020-12-04-14-01-39.011958
92	6	1	2	93	stable	1	200	93	sv	turquoise	purple	purple	turquoise	right	left	0.7	0.30000000000000004	6	4	4.199999999999998	1.2000000000000002	1	0	0.30000000000000004	0.7	4	6	1.2000000000000002	4.199999999999998	valid	0.4665675449978153	53248	0	1	1	53248	1	53248	1	53248	1	0.7	53248	purple	turquoise	1	6	ml	2.7.3	lorasick	sub-06_ses-01_task-ml_proj-lorasick_2020-12-04-14-01-39.011958
93	6	1	2	94	stable	1	200	94	sv	turquoise	purple	purple	turquoise	right	left	0.7	0.30000000000000004	4	2	2.8	0.6000000000000001	1	0	0.30000000000000004	0.7	2	4	0.6000000000000001	2.8	valid	0.4832301060014288	53248	0	1	1	53248	1	53248	1	53248	1	0.7	53248	purple	turquoise	1	4	ml	2.7.3	lorasick	sub-06_ses-01_task-ml_proj-lorasick_2020-12-04-14-01-39.011958
94	6	1	2	95	stable	1	200	95	sv	purple	turquoise	purple	turquoise	left	right	0.7	0.30000000000000004	10	2	7.0	0.6000000000000001	1	0	0.7	0.30000000000000004	10	2	7.0	0.6000000000000001	valid	0.4332428640009312	51200	0	0	1	51200	1	51200	1	51200	1	0.7	51200	purple	turquoise	1	10	ml	2.7.3	lorasick	sub-06_ses-01_task-ml_proj-lorasick_2020-12-04-14-01-39.011958
95	6	1	2	96	stable	1	200	96	sv	turquoise	purple	purple	turquoise	right	left	0.7	0.30000000000000004	2	2	1.4	0.6000000000000001	1	0	0.30000000000000004	0.7	2	2	0.6000000000000001	1.4	valid	0.44990823400075897	53248	0	1	1	53248	1	53248	1	53248	1	0.7	53248	purple	turquoise	0	2	ml	2.7.3	lorasick	sub-06_ses-01_task-ml_proj-lorasick_2020-12-04-14-01-39.011958
96	6	1	2	97	stable	1	200	97	sv	turquoise	purple	purple	turquoise	right	left	0.7	0.30000000000000004	6	4	4.199999999999998	1.2000000000000002	1	0	0.30000000000000004	0.7	4	6	1.2000000000000002	4.199999999999998	valid	0.3665959790014313	53248	0	1	1	53248	1	53248	1	53248	1	0.7	53248	purple	turquoise	1	6	ml	2.7.3	lorasick	sub-06_ses-01_task-ml_proj-lorasick_2020-12-04-14-01-39.011958
97	6	1	2	98	stable	1	200	98	sv	purple	turquoise	purple	turquoise	left	right	0.7	0.30000000000000004	2	10	1.4	3.0000000000000004	1	0	0.7	0.30000000000000004	2	10	1.4	3.0000000000000004	valid	0.8164653480016568	53248	0	1	2	53248	1	51200	0	53248	1	0.7	51200	purple	turquoise	0	0	ml	2.7.3	lorasick	sub-06_ses-01_task-ml_proj-lorasick_2020-12-04-14-01-39.011958
98	6	1	2	99	stable	1	200	99	sv	turquoise	purple	purple	turquoise	right	left	0.7	0.30000000000000004	6	2	4.199999999999998	0.6000000000000001	1	0	0.30000000000000004	0.7	2	6	0.6000000000000001	4.199999999999998	valid	0.5332140299979073	53248	0	1	1	53248	1	53248	1	53248	1	0.7	53248	purple	turquoise	1	6	ml	2.7.3	lorasick	sub-06_ses-01_task-ml_proj-lorasick_2020-12-04-14-01-39.011958
99	6	1	2	100	stable	1	200	100	sv	purple	turquoise	purple	turquoise	left	right	0.7	0.30000000000000004	6	2	4.199999999999998	0.6000000000000001	0	1	0.7	0.30000000000000004	6	2	4.199999999999998	0.6000000000000001	invalid	0.3832491599969217	51200	0	0	1	51200	1	51200	1	51200	1	0.7	51200	purple	turquoise	1	0	ml	2.7.3	lorasick	sub-06_ses-01_task-ml_proj-lorasick_2020-12-04-14-01-39.011958
100	6	1	3	101	stable	1	200	101	sv	purple	turquoise	purple	turquoise	left	right	0.7	0.30000000000000004	4	2	2.8	0.6000000000000001	1	0	0.7	0.30000000000000004	4	2	2.8	0.6000000000000001	valid	0.5998577610007487	51200	0	0	1	51200	1	51200	1	51200	1	0.7	51200	purple	turquoise	1	4	ml	2.7.3	lorasick	sub-06_ses-01_task-ml_proj-lorasick_2020-12-04-14-01-39.011958
101	6	1	3	102	stable	1	200	102	sv	purple	turquoise	purple	turquoise	left	right	0.7	0.30000000000000004	10	2	7.0	0.6000000000000001	1	0	0.7	0.30000000000000004	10	2	7.0	0.6000000000000001	valid	0.3999192910014244	51200	0	0	1	51200	1	51200	1	51200	1	0.7	51200	purple	turquoise	1	10	ml	2.7.3	lorasick	sub-06_ses-01_task-ml_proj-lorasick_2020-12-04-14-01-39.011958
102	6	1	3	103	stable	1	200	103	sv	turquoise	purple	purple	turquoise	right	left	0.7	0.30000000000000004	6	4	4.199999999999998	1.2000000000000002	1	0	0.30000000000000004	0.7	4	6	1.2000000000000002	4.199999999999998	valid	0.3832615930004977	53248	0	1	1	53248	1	53248	1	53248	1	0.7	53248	purple	turquoise	1	6	ml	2.7.3	lorasick	sub-06_ses-01_task-ml_proj-lorasick_2020-12-04-14-01-39.011958
103	6	1	3	104	stable	1	200	104	sv	turquoise	purple	purple	turquoise	right	left	0.7	0.30000000000000004	10	2	7.0	0.6000000000000001	1	0	0.30000000000000004	0.7	2	10	0.6000000000000001	7.0	valid	0.5498781589994906	53248	0	1	1	53248	1	53248	1	53248	1	0.7	53248	purple	turquoise	1	10	ml	2.7.3	lorasick	sub-06_ses-01_task-ml_proj-lorasick_2020-12-04-14-01-39.011958
104	6	1	3	105	stable	1	200	105	sv	turquoise	purple	purple	turquoise	right	left	0.7	0.30000000000000004	6	4	4.199999999999998	1.2000000000000002	0	1	0.30000000000000004	0.7	4	6	1.2000000000000002	4.199999999999998	invalid	0.41658236399962334	53248	0	1	1	53248	1	53248	1	53248	1	0.7	53248	purple	turquoise	1	0	ml	2.7.3	lorasick	sub-06_ses-01_task-ml_proj-lorasick_2020-12-04-14-01-39.011958
105	6	1	3	106	stable	1	200	106	sv	turquoise	purple	purple	turquoise	right	left	0.7	0.30000000000000004	6	6	4.199999999999998	1.8000000000000005	1	0	0.30000000000000004	0.7	6	6	1.8000000000000005	4.199999999999998	valid	0.5998684519981907	53248	0	1	1	53248	1	53248	1	53248	1	0.7	53248	purple	turquoise	0	6	ml	2.7.3	lorasick	sub-06_ses-01_task-ml_proj-lorasick_2020-12-04-14-01-39.011958
106	6	1	3	107	stable	1	200	107	sv	purple	turquoise	purple	turquoise	left	right	0.7	0.30000000000000004	6	2	4.199999999999998	0.6000000000000001	0	1	0.7	0.30000000000000004	6	2	4.199999999999998	0.6000000000000001	invalid	0.549860434999573	51200	0	0	1	51200	1	51200	1	51200	1	0.7	51200	purple	turquoise	1	0	ml	2.7.3	lorasick	sub-06_ses-01_task-ml_proj-lorasick_2020-12-04-14-01-39.011958
107	6	1	3	108	stable	1	200	108	sv	purple	turquoise	purple	turquoise	left	right	0.7	0.30000000000000004	2	10	1.4	3.0000000000000004	0	1	0.7	0.30000000000000004	2	10	1.4	3.0000000000000004	invalid	0.5665464640005666	53248	0	1	2	53248	1	51200	0	53248	1	0.7	51200	purple	turquoise	0	10	ml	2.7.3	lorasick	sub-06_ses-01_task-ml_proj-lorasick_2020-12-04-14-01-39.011958
108	6	1	3	109	stable	1	200	109	sv	purple	turquoise	purple	turquoise	left	right	0.7	0.30000000000000004	2	6	1.4	1.8000000000000005	1	0	0.7	0.30000000000000004	2	6	1.4	1.8000000000000005	valid	0.5498733789972903	53248	0	1	2	53248	1	51200	0	53248	1	0.7	51200	purple	turquoise	0	0	ml	2.7.3	lorasick	sub-06_ses-01_task-ml_proj-lorasick_2020-12-04-14-01-39.011958
109	6	1	3	110	stable	1	200	110	sv	turquoise	purple	purple	turquoise	right	left	0.7	0.30000000000000004	2	2	1.4	0.6000000000000001	1	0	0.30000000000000004	0.7	2	2	0.6000000000000001	1.4	valid	0.6331870989997697	53248	0	1	1	53248	1	53248	1	53248	1	0.7	53248	purple	turquoise	0	2	ml	2.7.3	lorasick	sub-06_ses-01_task-ml_proj-lorasick_2020-12-04-14-01-39.011958
110	6	1	3	111	stable	1	200	111	sv	turquoise	purple	purple	turquoise	right	left	0.7	0.30000000000000004	2	6	1.4	1.8000000000000005	0	1	0.30000000000000004	0.7	6	2	1.8000000000000005	1.4	invalid	0.7164794900018023	51200	0	0	2	51200	1	53248	0	51200	1	0.7	53248	purple	turquoise	0	6	ml	2.7.3	lorasick	sub-06_ses-01_task-ml_proj-lorasick_2020-12-04-14-01-39.011958
111	6	1	3	112	stable	1	200	112	sv	purple	turquoise	purple	turquoise	left	right	0.7	0.30000000000000004	4	2	2.8	0.6000000000000001	0	1	0.7	0.30000000000000004	4	2	2.8	0.6000000000000001	invalid	0.5998530539982312	51200	0	0	1	51200	1	51200	1	51200	1	0.7	51200	purple	turquoise	1	0	ml	2.7.3	lorasick	sub-06_ses-01_task-ml_proj-lorasick_2020-12-04-14-01-39.011958
112	6	1	3	113	stable	1	200	113	sv	turquoise	purple	purple	turquoise	right	left	0.7	0.30000000000000004	6	2	4.199999999999998	0.6000000000000001	0	1	0.30000000000000004	0.7	2	6	0.6000000000000001	4.199999999999998	invalid	0.5332182650017785	53248	0	1	1	53248	1	53248	1	53248	1	0.7	53248	purple	turquoise	1	0	ml	2.7.3	lorasick	sub-06_ses-01_task-ml_proj-lorasick_2020-12-04-14-01-39.011958
113	6	1	3	114	stable	1	200	114	sv	turquoise	purple	purple	turquoise	right	left	0.7	0.30000000000000004	2	6	1.4	1.8000000000000005	1	0	0.30000000000000004	0.7	6	2	1.8000000000000005	1.4	valid	0.966412648002006	51200	0	0	2	51200	1	53248	0	51200	1	0.7	53248	purple	turquoise	0	0	ml	2.7.3	lorasick	sub-06_ses-01_task-ml_proj-lorasick_2020-12-04-14-01-39.011958
114	6	1	3	115	stable	1	200	115	sv	purple	turquoise	purple	turquoise	left	right	0.7	0.30000000000000004	2	10	1.4	3.0000000000000004	1	0	0.7	0.30000000000000004	2	10	1.4	3.0000000000000004	valid	0.5165541099995608	53248	0	1	2	53248	1	51200	0	53248	1	0.7	51200	purple	turquoise	0	0	ml	2.7.3	lorasick	sub-06_ses-01_task-ml_proj-lorasick_2020-12-04-14-01-39.011958
115	6	1	3	116	stable	1	200	116	sv	purple	turquoise	purple	turquoise	left	right	0.7	0.30000000000000004	6	6	4.199999999999998	1.8000000000000005	1	0	0.7	0.30000000000000004	6	6	4.199999999999998	1.8000000000000005	valid	0.4665570659999503	51200	0	0	1	51200	1	51200	1	53248	0	0.7	51200	purple	turquoise	1	6	ml	2.7.3	lorasick	sub-06_ses-01_task-ml_proj-lorasick_2020-12-04-14-01-39.011958
116	6	1	3	117	stable	1	200	117	sv	purple	turquoise	purple	turquoise	left	right	0.7	0.30000000000000004	10	2	7.0	0.6000000000000001	1	0	0.7	0.30000000000000004	10	2	7.0	0.6000000000000001	valid	0.4665551359976234	51200	0	0	1	51200	1	51200	1	51200	1	0.7	51200	purple	turquoise	1	10	ml	2.7.3	lorasick	sub-06_ses-01_task-ml_proj-lorasick_2020-12-04-14-01-39.011958
117	6	1	3	118	stable	1	200	118	sv	purple	turquoise	purple	turquoise	left	right	0.7	0.30000000000000004	4	6	2.8	1.8000000000000005	1	0	0.7	0.30000000000000004	4	6	2.8	1.8000000000000005	valid	0.41657035800017184	51200	0	0	1	51200	1	51200	1	53248	0	0.7	51200	purple	turquoise	0	4	ml	2.7.3	lorasick	sub-06_ses-01_task-ml_proj-lorasick_2020-12-04-14-01-39.011958
118	6	1	3	119	stable	1	200	119	sv	purple	turquoise	purple	turquoise	left	right	0.7	0.30000000000000004	6	6	4.199999999999998	1.8000000000000005	0	1	0.7	0.30000000000000004	6	6	4.199999999999998	1.8000000000000005	invalid	0.3999083620001329	51200	0	0	1	51200	1	51200	1	53248	0	0.7	51200	purple	turquoise	1	0	ml	2.7.3	lorasick	sub-06_ses-01_task-ml_proj-lorasick_2020-12-04-14-01-39.011958
119	6	1	3	120	stable	1	200	120	sv	turquoise	purple	purple	turquoise	right	left	0.7	0.30000000000000004	2	6	1.4	1.8000000000000005	0	1	0.30000000000000004	0.7	6	2	1.8000000000000005	1.4	invalid	0.4832294349980657	53248	0	1	1	51200	0	53248	1	51200	0	0.7	53248	purple	turquoise	0	0	ml	2.7.3	lorasick	sub-06_ses-01_task-ml_proj-lorasick_2020-12-04-14-01-39.011958
120	6	1	3	121	stable	1	200	121	sv	turquoise	purple	purple	turquoise	right	left	0.7	0.30000000000000004	6	6	4.199999999999998	1.8000000000000005	0	1	0.30000000000000004	0.7	6	6	1.8000000000000005	4.199999999999998	invalid	0.4998905499996909	53248	0	1	1	53248	1	53248	1	53248	1	0.7	53248	purple	turquoise	0	0	ml	2.7.3	lorasick	sub-06_ses-01_task-ml_proj-lorasick_2020-12-04-14-01-39.011958
121	6	1	3	122	stable	1	200	122	sv	turquoise	purple	purple	turquoise	right	left	0.7	0.30000000000000004	6	4	4.199999999999998	1.2000000000000002	1	0	0.30000000000000004	0.7	4	6	1.2000000000000002	4.199999999999998	valid	0.4998780269997951	51200	0	0	2	53248	0	53248	0	53248	0	0.7	53248	purple	turquoise	1	0	ml	2.7.3	lorasick	sub-06_ses-01_task-ml_proj-lorasick_2020-12-04-14-01-39.011958
122	6	1	3	123	stable	1	200	123	sv	turquoise	purple	purple	turquoise	right	left	0.7	0.30000000000000004	6	2	4.199999999999998	0.6000000000000001	1	0	0.30000000000000004	0.7	2	6	0.6000000000000001	4.199999999999998	valid	0.5332151610018627	53248	0	1	1	53248	1	53248	1	53248	1	0.7	53248	purple	turquoise	1	6	ml	2.7.3	lorasick	sub-06_ses-01_task-ml_proj-lorasick_2020-12-04-14-01-39.011958
123	6	1	3	124	stable	1	200	124	sv	purple	turquoise	purple	turquoise	left	right	0.7	0.30000000000000004	4	2	2.8	0.6000000000000001	1	0	0.7	0.30000000000000004	4	2	2.8	0.6000000000000001	valid	0.6165137229982065	51200	0	0	1	51200	1	51200	1	51200	1	0.7	51200	purple	turquoise	1	4	ml	2.7.3	lorasick	sub-06_ses-01_task-ml_proj-lorasick_2020-12-04-14-01-39.011958
124	6	1	3	125	stable	1	200	125	sv	purple	turquoise	purple	turquoise	left	right	0.7	0.30000000000000004	4	6	2.8	1.8000000000000005	0	1	0.7	0.30000000000000004	4	6	2.8	1.8000000000000005	invalid	0.5498758760004421	53248	0	1	2	51200	0	51200	0	53248	1	0.7	51200	purple	turquoise	0	6	ml	2.7.3	lorasick	sub-06_ses-01_task-ml_proj-lorasick_2020-12-04-14-01-39.011958
125	6	1	3	126	stable	1	200	126	sv	purple	turquoise	purple	turquoise	left	right	0.7	0.30000000000000004	4	2	2.8	0.6000000000000001	1	0	0.7	0.30000000000000004	4	2	2.8	0.6000000000000001	valid	0.6498389030020917	51200	0	0	1	51200	1	51200	1	51200	1	0.7	51200	purple	turquoise	1	4	ml	2.7.3	lorasick	sub-06_ses-01_task-ml_proj-lorasick_2020-12-04-14-01-39.011958
126	6	1	3	127	stable	1	200	127	sv	turquoise	purple	purple	turquoise	right	left	0.7	0.30000000000000004	6	2	4.199999999999998	0.6000000000000001	0	1	0.30000000000000004	0.7	2	6	0.6000000000000001	4.199999999999998	invalid	0.5332065920010791	53248	0	1	1	53248	1	53248	1	53248	1	0.7	53248	purple	turquoise	1	0	ml	2.7.3	lorasick	sub-06_ses-01_task-ml_proj-lorasick_2020-12-04-14-01-39.011958
127	6	1	3	128	stable	1	200	128	sv	purple	turquoise	purple	turquoise	left	right	0.7	0.30000000000000004	2	6	1.4	1.8000000000000005	1	0	0.7	0.30000000000000004	2	6	1.4	1.8000000000000005	valid	0.6165229289981653	53248	0	1	2	53248	1	51200	0	53248	1	0.7	51200	purple	turquoise	0	0	ml	2.7.3	lorasick	sub-06_ses-01_task-ml_proj-lorasick_2020-12-04-14-01-39.011958
128	6	1	3	129	stable	1	200	129	sv	purple	turquoise	purple	turquoise	left	right	0.7	0.30000000000000004	2	2	1.4	0.6000000000000001	1	0	0.7	0.30000000000000004	2	2	1.4	0.6000000000000001	valid	0.6998286109992478	51200	0	0	1	51200	1	51200	1	53248	0	0.7	51200	purple	turquoise	1	2	ml	2.7.3	lorasick	sub-06_ses-01_task-ml_proj-lorasick_2020-12-04-14-01-39.011958
129	6	1	3	130	stable	1	200	130	sv	turquoise	purple	purple	turquoise	right	left	0.7	0.30000000000000004	2	6	1.4	1.8000000000000005	1	0	0.30000000000000004	0.7	6	2	1.8000000000000005	1.4	valid	0.7831375659989135	53248	0	1	1	51200	0	53248	1	51200	0	0.7	53248	purple	turquoise	0	2	ml	2.7.3	lorasick	sub-06_ses-01_task-ml_proj-lorasick_2020-12-04-14-01-39.011958
130	6	1	3	131	stable	1	200	131	sv	purple	turquoise	purple	turquoise	left	right	0.7	0.30000000000000004	10	2	7.0	0.6000000000000001	0	1	0.7	0.30000000000000004	10	2	7.0	0.6000000000000001	invalid	0.4998837589992036	51200	0	0	1	51200	1	51200	1	51200	1	0.7	51200	purple	turquoise	1	0	ml	2.7.3	lorasick	sub-06_ses-01_task-ml_proj-lorasick_2020-12-04-14-01-39.011958
131	6	1	3	132	stable	1	200	132	sv	turquoise	purple	purple	turquoise	right	left	0.7	0.30000000000000004	2	10	1.4	3.0000000000000004	1	0	0.30000000000000004	0.7	10	2	3.0000000000000004	1.4	valid	0.4998867090034764	53248	0	1	1	51200	0	53248	1	51200	0	0.7	53248	purple	turquoise	0	2	ml	2.7.3	lorasick	sub-06_ses-01_task-ml_proj-lorasick_2020-12-04-14-01-39.011958
132	6	1	3	133	stable	1	200	133	sv	turquoise	purple	purple	turquoise	right	left	0.7	0.30000000000000004	2	4	1.4	1.2000000000000002	0	1	0.30000000000000004	0.7	4	2	1.2000000000000002	1.4	invalid	0.4832289149999269	53248	0	1	1	53248	1	53248	1	51200	0	0.7	53248	purple	turquoise	0	0	ml	2.7.3	lorasick	sub-06_ses-01_task-ml_proj-lorasick_2020-12-04-14-01-39.011958
133	6	1	3	134	stable	1	200	134	sv	purple	turquoise	purple	turquoise	left	right	0.7	0.30000000000000004	10	2	7.0	0.6000000000000001	1	0	0.7	0.30000000000000004	10	2	7.0	0.6000000000000001	valid	0.38324741900214576	51200	0	0	1	51200	1	51200	1	51200	1	0.7	51200	purple	turquoise	1	10	ml	2.7.3	lorasick	sub-06_ses-01_task-ml_proj-lorasick_2020-12-04-14-01-39.011958
134	6	1	3	135	stable	1	200	135	sv	purple	turquoise	purple	turquoise	left	right	0.7	0.30000000000000004	6	2	4.199999999999998	0.6000000000000001	1	0	0.7	0.30000000000000004	6	2	4.199999999999998	0.6000000000000001	valid	0.4665557340013038	51200	0	0	1	51200	1	51200	1	51200	1	0.7	51200	purple	turquoise	1	6	ml	2.7.3	lorasick	sub-06_ses-01_task-ml_proj-lorasick_2020-12-04-14-01-39.011958
135	6	1	3	136	stable	1	200	136	sv	purple	turquoise	purple	turquoise	left	right	0.7	0.30000000000000004	6	2	4.199999999999998	0.6000000000000001	1	0	0.7	0.30000000000000004	6	2	4.199999999999998	0.6000000000000001	valid	0.4332332920021145	51200	0	0	1	51200	1	51200	1	51200	1	0.7	51200	purple	turquoise	1	6	ml	2.7.3	lorasick	sub-06_ses-01_task-ml_proj-lorasick_2020-12-04-14-01-39.011958
136	6	1	3	137	stable	1	200	137	sv	turquoise	purple	purple	turquoise	right	left	0.7	0.30000000000000004	6	2	4.199999999999998	0.6000000000000001	1	0	0.30000000000000004	0.7	2	6	0.6000000000000001	4.199999999999998	valid	0.4832319280030788	53248	0	1	1	53248	1	53248	1	53248	1	0.7	53248	purple	turquoise	1	6	ml	2.7.3	lorasick	sub-06_ses-01_task-ml_proj-lorasick_2020-12-04-14-01-39.011958
137	6	1	3	138	stable	1	200	138	sv	turquoise	purple	purple	turquoise	right	left	0.7	0.30000000000000004	4	2	2.8	0.6000000000000001	0	1	0.30000000000000004	0.7	2	4	0.6000000000000001	2.8	invalid	0.4499051640013931	53248	0	1	1	53248	1	53248	1	53248	1	0.7	53248	purple	turquoise	1	0	ml	2.7.3	lorasick	sub-06_ses-01_task-ml_proj-lorasick_2020-12-04-14-01-39.011958
138	6	1	3	139	stable	1	200	139	sv	turquoise	purple	purple	turquoise	right	left	0.7	0.30000000000000004	4	2	2.8	0.6000000000000001	0	1	0.30000000000000004	0.7	2	4	0.6000000000000001	2.8	invalid	0.5332144419990072	53248	0	1	1	53248	1	53248	1	53248	1	0.7	53248	purple	turquoise	1	0	ml	2.7.3	lorasick	sub-06_ses-01_task-ml_proj-lorasick_2020-12-04-14-01-39.011958
139	6	1	3	140	stable	1	200	140	sv	purple	turquoise	purple	turquoise	left	right	0.7	0.30000000000000004	2	4	1.4	1.2000000000000002	0	1	0.7	0.30000000000000004	2	4	1.4	1.2000000000000002	invalid	0.5665339049992326	53248	0	1	2	51200	0	51200	0	53248	1	0.7	51200	purple	turquoise	0	4	ml	2.7.3	lorasick	sub-06_ses-01_task-ml_proj-lorasick_2020-12-04-14-01-39.011958
140	6	1	3	141	stable	1	200	141	sv	turquoise	purple	purple	turquoise	right	left	0.7	0.30000000000000004	2	10	1.4	3.0000000000000004	0	1	0.30000000000000004	0.7	10	2	3.0000000000000004	1.4	invalid	0.3832562870011316	51200	0	0	2	51200	1	53248	0	51200	1	0.7	53248	purple	turquoise	0	10	ml	2.7.3	lorasick	sub-06_ses-01_task-ml_proj-lorasick_2020-12-04-14-01-39.011958
141	6	1	3	142	stable	1	200	142	sv	turquoise	purple	purple	turquoise	right	left	0.7	0.30000000000000004	4	6	2.8	1.8000000000000005	1	0	0.30000000000000004	0.7	6	4	1.8000000000000005	2.8	valid	0.4498967939980503	51200	0	0	2	53248	0	53248	0	51200	1	0.7	53248	purple	turquoise	0	0	ml	2.7.3	lorasick	sub-06_ses-01_task-ml_proj-lorasick_2020-12-04-14-01-39.011958
142	6	1	3	143	stable	1	200	143	sv	purple	turquoise	purple	turquoise	left	right	0.7	0.30000000000000004	2	2	1.4	0.6000000000000001	1	0	0.7	0.30000000000000004	2	2	1.4	0.6000000000000001	valid	0.5665404399987892	53248	0	1	2	51200	0	51200	0	53248	1	0.7	51200	purple	turquoise	1	0	ml	2.7.3	lorasick	sub-06_ses-01_task-ml_proj-lorasick_2020-12-04-14-01-39.011958
143	6	1	3	144	stable	1	200	144	sv	turquoise	purple	purple	turquoise	right	left	0.7	0.30000000000000004	10	2	7.0	0.6000000000000001	1	0	0.30000000000000004	0.7	2	10	0.6000000000000001	7.0	valid	0.5332158099990921	53248	0	1	1	53248	1	53248	1	53248	1	0.7	53248	purple	turquoise	1	10	ml	2.7.3	lorasick	sub-06_ses-01_task-ml_proj-lorasick_2020-12-04-14-01-39.011958
144	6	1	3	145	stable	1	200	145	sv	turquoise	purple	purple	turquoise	right	left	0.7	0.30000000000000004	2	6	1.4	1.8000000000000005	0	1	0.30000000000000004	0.7	6	2	1.8000000000000005	1.4	invalid	0.6331803570028569	51200	0	0	2	51200	1	53248	0	51200	1	0.7	53248	purple	turquoise	0	6	ml	2.7.3	lorasick	sub-06_ses-01_task-ml_proj-lorasick_2020-12-04-14-01-39.011958
145	6	1	3	146	stable	1	200	146	sv	turquoise	purple	purple	turquoise	right	left	0.7	0.30000000000000004	2	2	1.4	0.6000000000000001	1	0	0.30000000000000004	0.7	2	2	0.6000000000000001	1.4	valid	0.6998236330000509	51200	0	0	2	53248	0	53248	0	53248	0	0.7	53248	purple	turquoise	0	0	ml	2.7.3	lorasick	sub-06_ses-01_task-ml_proj-lorasick_2020-12-04-14-01-39.011958
146	6	1	3	147	stable	1	200	147	sv	turquoise	purple	purple	turquoise	right	left	0.7	0.30000000000000004	6	4	4.199999999999998	1.2000000000000002	1	0	0.30000000000000004	0.7	4	6	1.2000000000000002	4.199999999999998	valid	0.5665414930008411	53248	0	1	1	53248	1	53248	1	53248	1	0.7	53248	purple	turquoise	1	6	ml	2.7.3	lorasick	sub-06_ses-01_task-ml_proj-lorasick_2020-12-04-14-01-39.011958
147	6	1	3	148	stable	1	200	148	sv	turquoise	purple	purple	turquoise	right	left	0.7	0.30000000000000004	4	2	2.8	0.6000000000000001	1	0	0.30000000000000004	0.7	2	4	0.6000000000000001	2.8	valid	0.5332209830012289	53248	0	1	1	53248	1	53248	1	53248	1	0.7	53248	purple	turquoise	1	4	ml	2.7.3	lorasick	sub-06_ses-01_task-ml_proj-lorasick_2020-12-04-14-01-39.011958
148	6	1	3	149	stable	1	200	149	sv	purple	turquoise	purple	turquoise	left	right	0.7	0.30000000000000004	10	2	7.0	0.6000000000000001	1	0	0.7	0.30000000000000004	10	2	7.0	0.6000000000000001	valid	0.4165703239996219	51200	0	0	1	51200	1	51200	1	51200	1	0.7	51200	purple	turquoise	1	10	ml	2.7.3	lorasick	sub-06_ses-01_task-ml_proj-lorasick_2020-12-04-14-01-39.011958
149	6	1	3	150	stable	1	200	150	sv	purple	turquoise	purple	turquoise	left	right	0.7	0.30000000000000004	10	2	7.0	0.6000000000000001	1	0	0.7	0.30000000000000004	10	2	7.0	0.6000000000000001	valid	0.4832207670006028	51200	0	0	1	51200	1	51200	1	51200	1	0.7	51200	purple	turquoise	1	10	ml	2.7.3	lorasick	sub-06_ses-01_task-ml_proj-lorasick_2020-12-04-14-01-39.011958
150	6	1	4	151	stable	1	200	151	sv	turquoise	purple	purple	turquoise	right	left	0.7	0.30000000000000004	6	2	4.199999999999998	0.6000000000000001	1	0	0.30000000000000004	0.7	2	6	0.6000000000000001	4.199999999999998	valid	0.6331922270001087	53248	0	1	1	53248	1	53248	1	53248	1	0.7	53248	purple	turquoise	1	6	ml	2.7.3	lorasick	sub-06_ses-01_task-ml_proj-lorasick_2020-12-04-14-01-39.011958
151	6	1	4	152	stable	1	200	152	sv	purple	turquoise	purple	turquoise	left	right	0.7	0.30000000000000004	6	4	4.199999999999998	1.2000000000000002	1	0	0.7	0.30000000000000004	6	4	4.199999999999998	1.2000000000000002	valid	0.5165365699976974	51200	0	0	1	51200	1	51200	1	51200	1	0.7	51200	purple	turquoise	1	6	ml	2.7.3	lorasick	sub-06_ses-01_task-ml_proj-lorasick_2020-12-04-14-01-39.011958
152	6	1	4	153	stable	1	200	153	sv	turquoise	purple	purple	turquoise	right	left	0.7	0.30000000000000004	6	4	4.199999999999998	1.2000000000000002	1	0	0.30000000000000004	0.7	4	6	1.2000000000000002	4.199999999999998	valid	0.4998914250027156	53248	0	1	1	53248	1	53248	1	53248	1	0.7	53248	purple	turquoise	1	6	ml	2.7.3	lorasick	sub-06_ses-01_task-ml_proj-lorasick_2020-12-04-14-01-39.011958
153	6	1	4	154	stable	1	200	154	sv	turquoise	purple	purple	turquoise	right	left	0.7	0.30000000000000004	6	2	4.199999999999998	0.6000000000000001	1	0	0.30000000000000004	0.7	2	6	0.6000000000000001	4.199999999999998	valid	0.4332449209978222	53248	0	1	1	53248	1	53248	1	53248	1	0.7	53248	purple	turquoise	1	6	ml	2.7.3	lorasick	sub-06_ses-01_task-ml_proj-lorasick_2020-12-04-14-01-39.011958
154	6	1	4	155	stable	1	200	155	sv	purple	turquoise	purple	turquoise	left	right	0.7	0.30000000000000004	2	4	1.4	1.2000000000000002	1	0	0.7	0.30000000000000004	2	4	1.4	1.2000000000000002	valid	0.7998030939997989	53248	0	1	2	51200	0	51200	0	53248	1	0.7	51200	purple	turquoise	0	0	ml	2.7.3	lorasick	sub-06_ses-01_task-ml_proj-lorasick_2020-12-04-14-01-39.011958
155	6	1	4	156	stable	1	200	156	sv	purple	turquoise	purple	turquoise	left	right	0.7	0.30000000000000004	4	2	2.8	0.6000000000000001	1	0	0.7	0.30000000000000004	4	2	2.8	0.6000000000000001	valid	0.4998809259996051	51200	0	0	1	51200	1	51200	1	51200	1	0.7	51200	purple	turquoise	1	4	ml	2.7.3	lorasick	sub-06_ses-01_task-ml_proj-lorasick_2020-12-04-14-01-39.011958
156	6	1	4	157	stable	1	200	157	sv	purple	turquoise	purple	turquoise	left	right	0.7	0.30000000000000004	6	6	4.199999999999998	1.8000000000000005	1	0	0.7	0.30000000000000004	6	6	4.199999999999998	1.8000000000000005	valid	0.54986140300025	51200	0	0	1	51200	1	51200	1	53248	0	0.7	51200	purple	turquoise	1	6	ml	2.7.3	lorasick	sub-06_ses-01_task-ml_proj-lorasick_2020-12-04-14-01-39.011958
157	6	1	4	158	stable	1	200	158	sv	purple	turquoise	purple	turquoise	left	right	0.7	0.30000000000000004	2	4	1.4	1.2000000000000002	0	1	0.7	0.30000000000000004	2	4	1.4	1.2000000000000002	invalid	0.8164551129993924	51200	0	0	1	51200	1	51200	1	53248	0	0.7	51200	purple	turquoise	0	0	ml	2.7.3	lorasick	sub-06_ses-01_task-ml_proj-lorasick_2020-12-04-14-01-39.011958
158	6	1	4	159	stable	1	200	159	sv	purple	turquoise	purple	turquoise	left	right	0.7	0.30000000000000004	4	6	2.8	1.8000000000000005	1	0	0.7	0.30000000000000004	4	6	2.8	1.8000000000000005	valid	0.6165124869985448	51200	0	0	1	51200	1	51200	1	53248	0	0.7	51200	purple	turquoise	0	4	ml	2.7.3	lorasick	sub-06_ses-01_task-ml_proj-lorasick_2020-12-04-14-01-39.011958
159	6	1	4	160	stable	1	200	160	sv	purple	turquoise	purple	turquoise	left	right	0.7	0.30000000000000004	2	2	1.4	0.6000000000000001	1	0	0.7	0.30000000000000004	2	2	1.4	0.6000000000000001	valid	0.6331738720000429	51200	0	0	1	51200	1	51200	1	53248	0	0.7	51200	purple	turquoise	1	2	ml	2.7.3	lorasick	sub-06_ses-01_task-ml_proj-lorasick_2020-12-04-14-01-39.011958
160	6	1	4	161	stable	1	200	161	sv	turquoise	purple	purple	turquoise	right	left	0.7	0.30000000000000004	10	2	7.0	0.6000000000000001	1	0	0.30000000000000004	0.7	2	10	0.6000000000000001	7.0	valid	0.5332157689990709	53248	0	1	1	53248	1	53248	1	53248	1	0.7	53248	purple	turquoise	1	10	ml	2.7.3	lorasick	sub-06_ses-01_task-ml_proj-lorasick_2020-12-04-14-01-39.011958
161	6	1	4	162	stable	1	200	162	sv	turquoise	purple	purple	turquoise	right	left	0.7	0.30000000000000004	6	6	4.199999999999998	1.8000000000000005	0	1	0.30000000000000004	0.7	6	6	1.8000000000000005	4.199999999999998	invalid	0.49989921400265297	53248	0	1	1	53248	1	53248	1	53248	1	0.7	53248	purple	turquoise	0	0	ml	2.7.3	lorasick	sub-06_ses-01_task-ml_proj-lorasick_2020-12-04-14-01-39.011958
162	6	1	4	163	stable	1	200	163	sv	purple	turquoise	purple	turquoise	left	right	0.7	0.30000000000000004	6	4	4.199999999999998	1.2000000000000002	1	0	0.7	0.30000000000000004	6	4	4.199999999999998	1.2000000000000002	valid	0.4499061630012875	51200	0	0	1	51200	1	51200	1	51200	1	0.7	51200	purple	turquoise	1	6	ml	2.7.3	lorasick	sub-06_ses-01_task-ml_proj-lorasick_2020-12-04-14-01-39.011958
163	6	1	4	164	stable	1	200	164	sv	purple	turquoise	purple	turquoise	left	right	0.7	0.30000000000000004	6	6	4.199999999999998	1.8000000000000005	1	0	0.7	0.30000000000000004	6	6	4.199999999999998	1.8000000000000005	valid	0.5498659599979874	51200	0	0	1	51200	1	51200	1	53248	0	0.7	51200	purple	turquoise	1	6	ml	2.7.3	lorasick	sub-06_ses-01_task-ml_proj-lorasick_2020-12-04-14-01-39.011958
164	6	1	4	165	stable	1	200	165	sv	purple	turquoise	purple	turquoise	left	right	0.7	0.30000000000000004	2	2	1.4	0.6000000000000001	1	0	0.7	0.30000000000000004	2	2	1.4	0.6000000000000001	valid	0.8331202219997067	51200	0	0	1	51200	1	51200	1	53248	0	0.7	51200	purple	turquoise	1	2	ml	2.7.3	lorasick	sub-06_ses-01_task-ml_proj-lorasick_2020-12-04-14-01-39.011958
165	6	1	4	166	stable	1	200	166	sv	turquoise	purple	purple	turquoise	right	left	0.7	0.30000000000000004	4	6	2.8	1.8000000000000005	1	0	0.30000000000000004	0.7	6	4	1.8000000000000005	2.8	valid	0.7164945250005985	53248	0	1	1	53248	1	53248	1	51200	0	0.7	53248	purple	turquoise	0	4	ml	2.7.3	lorasick	sub-06_ses-01_task-ml_proj-lorasick_2020-12-04-14-01-39.011958
166	6	1	4	167	stable	1	200	167	sv	turquoise	purple	purple	turquoise	right	left	0.7	0.30000000000000004	10	2	7.0	0.6000000000000001	1	0	0.30000000000000004	0.7	2	10	0.6000000000000001	7.0	valid	0.3999229479995847	53248	0	1	1	53248	1	53248	1	53248	1	0.7	53248	purple	turquoise	1	10	ml	2.7.3	lorasick	sub-06_ses-01_task-ml_proj-lorasick_2020-12-04-14-01-39.011958
167	6	1	4	168	stable	1	200	168	sv	purple	turquoise	purple	turquoise	left	right	0.7	0.30000000000000004	2	10	1.4	3.0000000000000004	1	0	0.7	0.30000000000000004	2	10	1.4	3.0000000000000004	valid	0.633173087000614	51200	0	0	1	53248	0	51200	1	53248	0	0.7	51200	purple	turquoise	0	2	ml	2.7.3	lorasick	sub-06_ses-01_task-ml_proj-lorasick_2020-12-04-14-01-39.011958
168	6	1	4	169	stable	1	200	169	sv	turquoise	purple	purple	turquoise	right	left	0.7	0.30000000000000004	4	2	2.8	0.6000000000000001	1	0	0.30000000000000004	0.7	2	4	0.6000000000000001	2.8	valid	0.5498803379996389	53248	0	1	1	53248	1	53248	1	53248	1	0.7	53248	purple	turquoise	1	4	ml	2.7.3	lorasick	sub-06_ses-01_task-ml_proj-lorasick_2020-12-04-14-01-39.011958
169	6	1	4	170	stable	1	200	170	sv	turquoise	purple	purple	turquoise	right	left	0.7	0.30000000000000004	2	10	1.4	3.0000000000000004	1	0	0.30000000000000004	0.7	10	2	3.0000000000000004	1.4	valid	0.5165486240002792	53248	0	1	1	51200	0	53248	1	51200	0	0.7	53248	purple	turquoise	0	2	ml	2.7.3	lorasick	sub-06_ses-01_task-ml_proj-lorasick_2020-12-04-14-01-39.011958
170	6	1	4	171	stable	1	200	171	sv	purple	turquoise	purple	turquoise	left	right	0.7	0.30000000000000004	6	2	4.199999999999998	0.6000000000000001	1	0	0.7	0.30000000000000004	6	2	4.199999999999998	0.6000000000000001	valid	0.36658828600047855	51200	0	0	1	51200	1	51200	1	51200	1	0.7	51200	purple	turquoise	1	6	ml	2.7.3	lorasick	sub-06_ses-01_task-ml_proj-lorasick_2020-12-04-14-01-39.011958
171	6	1	4	172	stable	1	200	172	sv	purple	turquoise	purple	turquoise	left	right	0.7	0.30000000000000004	6	4	4.199999999999998	1.2000000000000002	1	0	0.7	0.30000000000000004	6	4	4.199999999999998	1.2000000000000002	valid	0.36658684000212816	51200	0	0	1	51200	1	51200	1	51200	1	0.7	51200	purple	turquoise	1	6	ml	2.7.3	lorasick	sub-06_ses-01_task-ml_proj-lorasick_2020-12-04-14-01-39.011958
172	6	1	4	173	stable	1	200	173	sv	turquoise	purple	purple	turquoise	right	left	0.7	0.30000000000000004	10	2	7.0	0.6000000000000001	1	0	0.30000000000000004	0.7	2	10	0.6000000000000001	7.0	valid	0.3666019519987458	53248	0	1	1	53248	1	53248	1	53248	1	0.7	53248	purple	turquoise	1	10	ml	2.7.3	lorasick	sub-06_ses-01_task-ml_proj-lorasick_2020-12-04-14-01-39.011958
173	6	1	4	174	stable	1	200	174	sv	turquoise	purple	purple	turquoise	right	left	0.7	0.30000000000000004	4	2	2.8	0.6000000000000001	1	0	0.30000000000000004	0.7	2	4	0.6000000000000001	2.8	valid	0.4499134469988349	53248	0	1	1	53248	1	53248	1	53248	1	0.7	53248	purple	turquoise	1	4	ml	2.7.3	lorasick	sub-06_ses-01_task-ml_proj-lorasick_2020-12-04-14-01-39.011958
174	6	1	4	175	stable	1	200	175	sv	purple	turquoise	purple	turquoise	left	right	0.7	0.30000000000000004	4	2	2.8	0.6000000000000001	0	1	0.7	0.30000000000000004	4	2	2.8	0.6000000000000001	invalid	0.3665846800031432	51200	0	0	1	51200	1	51200	1	51200	1	0.7	51200	purple	turquoise	1	0	ml	2.7.3	lorasick	sub-06_ses-01_task-ml_proj-lorasick_2020-12-04-14-01-39.011958
175	6	1	4	176	stable	1	200	176	sv	purple	turquoise	purple	turquoise	left	right	0.7	0.30000000000000004	2	10	1.4	3.0000000000000004	1	0	0.7	0.30000000000000004	2	10	1.4	3.0000000000000004	valid	0.5332076880004024	51200	0	0	1	53248	0	51200	1	53248	0	0.7	51200	purple	turquoise	0	2	ml	2.7.3	lorasick	sub-06_ses-01_task-ml_proj-lorasick_2020-12-04-14-01-39.011958
176	6	1	4	177	stable	1	200	177	sv	purple	turquoise	purple	turquoise	left	right	0.7	0.30000000000000004	2	2	1.4	0.6000000000000001	1	0	0.7	0.30000000000000004	2	2	1.4	0.6000000000000001	valid	0.4998803090020374	51200	0	0	1	51200	1	51200	1	53248	0	0.7	51200	purple	turquoise	1	2	ml	2.7.3	lorasick	sub-06_ses-01_task-ml_proj-lorasick_2020-12-04-14-01-39.011958
177	6	1	4	178	stable	1	200	178	sv	turquoise	purple	purple	turquoise	right	left	0.7	0.30000000000000004	6	6	4.199999999999998	1.8000000000000005	1	0	0.30000000000000004	0.7	6	6	1.8000000000000005	4.199999999999998	valid	0.5165520759983337	53248	0	1	1	53248	1	53248	1	53248	1	0.7	53248	purple	turquoise	0	6	ml	2.7.3	lorasick	sub-06_ses-01_task-ml_proj-lorasick_2020-12-04-14-01-39.011958
178	6	1	4	179	stable	1	200	179	sv	turquoise	purple	purple	turquoise	right	left	0.7	0.30000000000000004	2	10	1.4	3.0000000000000004	1	0	0.30000000000000004	0.7	10	2	3.0000000000000004	1.4	valid	0.6165209630016761	53248	0	1	1	51200	0	53248	1	51200	0	0.7	53248	purple	turquoise	0	2	ml	2.7.3	lorasick	sub-06_ses-01_task-ml_proj-lorasick_2020-12-04-14-01-39.011958
179	6	1	4	180	stable	1	200	180	sv	turquoise	purple	purple	turquoise	right	left	0.7	0.30000000000000004	4	6	2.8	1.8000000000000005	1	0	0.30000000000000004	0.7	6	4	1.8000000000000005	2.8	valid	0.4832311019999906	53248	0	1	1	53248	1	53248	1	51200	0	0.7	53248	purple	turquoise	0	4	ml	2.7.3	lorasick	sub-06_ses-01_task-ml_proj-lorasick_2020-12-04-14-01-39.011958
180	6	1	4	181	stable	1	200	181	sv	purple	turquoise	purple	turquoise	left	right	0.7	0.30000000000000004	2	10	1.4	3.0000000000000004	0	1	0.7	0.30000000000000004	2	10	1.4	3.0000000000000004	invalid	0.9997401070031628	53248	0	1	2	53248	1	51200	0	53248	1	0.7	51200	purple	turquoise	0	10	ml	2.7.3	lorasick	sub-06_ses-01_task-ml_proj-lorasick_2020-12-04-14-01-39.011958
181	6	1	4	182	stable	1	200	182	sv	turquoise	purple	purple	turquoise	right	left	0.7	0.30000000000000004	2	6	1.4	1.8000000000000005	1	0	0.30000000000000004	0.7	6	2	1.8000000000000005	1.4	valid	0.5165824969990354	53248	0	1	1	51200	0	53248	1	51200	0	0.7	53248	purple	turquoise	0	2	ml	2.7.3	lorasick	sub-06_ses-01_task-ml_proj-lorasick_2020-12-04-14-01-39.011958
182	6	1	4	183	stable	1	200	183	sv	purple	turquoise	purple	turquoise	left	right	0.7	0.30000000000000004	2	6	1.4	1.8000000000000005	1	0	0.7	0.30000000000000004	2	6	1.4	1.8000000000000005	valid	0.9164284500002396	51200	0	0	1	53248	0	51200	1	53248	0	0.7	51200	purple	turquoise	0	2	ml	2.7.3	lorasick	sub-06_ses-01_task-ml_proj-lorasick_2020-12-04-14-01-39.011958
183	6	1	4	184	stable	1	200	184	sv	purple	turquoise	purple	turquoise	left	right	0.7	0.30000000000000004	6	6	4.199999999999998	1.8000000000000005	1	0	0.7	0.30000000000000004	6	6	4.199999999999998	1.8000000000000005	valid	0.6831651050015353	51200	0	0	1	51200	1	51200	1	53248	0	0.7	51200	purple	turquoise	1	6	ml	2.7.3	lorasick	sub-06_ses-01_task-ml_proj-lorasick_2020-12-04-14-01-39.011958
184	6	1	4	185	stable	1	200	185	sv	purple	turquoise	purple	turquoise	left	right	0.7	0.30000000000000004	4	6	2.8	1.8000000000000005	1	0	0.7	0.30000000000000004	4	6	2.8	1.8000000000000005	valid	0.7498197969980538	53248	0	1	2	51200	0	51200	0	53248	1	0.7	51200	purple	turquoise	0	0	ml	2.7.3	lorasick	sub-06_ses-01_task-ml_proj-lorasick_2020-12-04-14-01-39.011958
185	6	1	4	186	stable	1	200	186	sv	turquoise	purple	purple	turquoise	right	left	0.7	0.30000000000000004	2	6	1.4	1.8000000000000005	1	0	0.30000000000000004	0.7	6	2	1.8000000000000005	1.4	valid	0.4832296390013653	53248	0	1	1	51200	0	53248	1	51200	0	0.7	53248	purple	turquoise	0	2	ml	2.7.3	lorasick	sub-06_ses-01_task-ml_proj-lorasick_2020-12-04-14-01-39.011958
186	6	1	4	187	stable	1	200	187	sv	turquoise	purple	purple	turquoise	right	left	0.7	0.30000000000000004	2	2	1.4	0.6000000000000001	0	1	0.30000000000000004	0.7	2	2	0.6000000000000001	1.4	invalid	0.5665386079999735	53248	0	1	1	53248	1	53248	1	53248	1	0.7	53248	purple	turquoise	0	0	ml	2.7.3	lorasick	sub-06_ses-01_task-ml_proj-lorasick_2020-12-04-14-01-39.011958
187	6	1	4	188	stable	1	200	188	sv	purple	turquoise	purple	turquoise	left	right	0.7	0.30000000000000004	4	2	2.8	0.6000000000000001	0	1	0.7	0.30000000000000004	4	2	2.8	0.6000000000000001	invalid	0.4832115099998191	51200	0	0	1	51200	1	51200	1	51200	1	0.7	51200	purple	turquoise	1	0	ml	2.7.3	lorasick	sub-06_ses-01_task-ml_proj-lorasick_2020-12-04-14-01-39.011958
188	6	1	4	189	stable	1	200	189	sv	turquoise	purple	purple	turquoise	right	left	0.7	0.30000000000000004	2	6	1.4	1.8000000000000005	1	0	0.30000000000000004	0.7	6	2	1.8000000000000005	1.4	valid	0.3999107010022272	51200	0	0	2	51200	1	53248	0	51200	1	0.7	53248	purple	turquoise	0	0	ml	2.7.3	lorasick	sub-06_ses-01_task-ml_proj-lorasick_2020-12-04-14-01-39.011958
189	6	1	4	190	stable	1	200	190	sv	purple	turquoise	purple	turquoise	left	right	0.7	0.30000000000000004	2	10	1.4	3.0000000000000004	1	0	0.7	0.30000000000000004	2	10	1.4	3.0000000000000004	valid	0.39992765200076974	53248	0	1	2	53248	1	51200	0	53248	1	0.7	51200	purple	turquoise	0	0	ml	2.7.3	lorasick	sub-06_ses-01_task-ml_proj-lorasick_2020-12-04-14-01-39.011958
190	6	1	4	191	stable	1	200	191	sv	purple	turquoise	purple	turquoise	left	right	0.7	0.30000000000000004	2	2	1.4	0.6000000000000001	0	1	0.7	0.30000000000000004	2	2	1.4	0.6000000000000001	invalid	0.6831646620012181	51200	0	0	1	51200	1	51200	1	53248	0	0.7	51200	purple	turquoise	1	0	ml	2.7.3	lorasick	sub-06_ses-01_task-ml_proj-lorasick_2020-12-04-14-01-39.011958
191	6	1	4	192	stable	1	200	192	sv	turquoise	purple	purple	turquoise	right	left	0.7	0.30000000000000004	10	2	7.0	0.6000000000000001	1	0	0.30000000000000004	0.7	2	10	0.6000000000000001	7.0	valid	0.5165482689990313	53248	0	1	1	53248	1	53248	1	53248	1	0.7	53248	purple	turquoise	1	10	ml	2.7.3	lorasick	sub-06_ses-01_task-ml_proj-lorasick_2020-12-04-14-01-39.011958
192	6	1	4	193	stable	1	200	193	sv	turquoise	purple	purple	turquoise	right	left	0.7	0.30000000000000004	4	2	2.8	0.6000000000000001	0	1	0.30000000000000004	0.7	2	4	0.6000000000000001	2.8	invalid	0.7164969639998162	53248	0	1	1	53248	1	53248	1	53248	1	0.7	53248	purple	turquoise	1	0	ml	2.7.3	lorasick	sub-06_ses-01_task-ml_proj-lorasick_2020-12-04-14-01-39.011958
193	6	1	4	194	stable	1	200	194	sv	turquoise	purple	purple	turquoise	right	left	0.7	0.30000000000000004	2	4	1.4	1.2000000000000002	0	1	0.30000000000000004	0.7	4	2	1.2000000000000002	1.4	invalid	0.5332065860020521	51200	0	0	2	53248	0	53248	0	51200	1	0.7	53248	purple	turquoise	0	4	ml	2.7.3	lorasick	sub-06_ses-01_task-ml_proj-lorasick_2020-12-04-14-01-39.011958
194	6	1	4	195	stable	1	200	195	sv	turquoise	purple	purple	turquoise	right	left	0.7	0.30000000000000004	2	4	1.4	1.2000000000000002	1	0	0.30000000000000004	0.7	4	2	1.2000000000000002	1.4	valid	0.4499011609987065	51200	0	0	2	53248	0	53248	0	51200	1	0.7	53248	purple	turquoise	0	0	ml	2.7.3	lorasick	sub-06_ses-01_task-ml_proj-lorasick_2020-12-04-14-01-39.011958
195	6	1	4	196	stable	1	200	196	sv	purple	turquoise	purple	turquoise	left	right	0.7	0.30000000000000004	2	4	1.4	1.2000000000000002	0	1	0.7	0.30000000000000004	2	4	1.4	1.2000000000000002	invalid	0.4165842160000466	53248	0	1	2	51200	0	51200	0	53248	1	0.7	51200	purple	turquoise	0	4	ml	2.7.3	lorasick	sub-06_ses-01_task-ml_proj-lorasick_2020-12-04-14-01-39.011958
196	6	1	4	197	stable	1	200	197	sv	purple	turquoise	purple	turquoise	left	right	0.7	0.30000000000000004	2	2	1.4	0.6000000000000001	0	1	0.7	0.30000000000000004	2	2	1.4	0.6000000000000001	invalid	0.4832382630011125	53248	0	1	2	51200	0	51200	0	53248	1	0.7	51200	purple	turquoise	1	2	ml	2.7.3	lorasick	sub-06_ses-01_task-ml_proj-lorasick_2020-12-04-14-01-39.011958
197	6	1	4	198	stable	1	200	198	sv	purple	turquoise	purple	turquoise	left	right	0.7	0.30000000000000004	6	6	4.199999999999998	1.8000000000000005	1	0	0.7	0.30000000000000004	6	6	4.199999999999998	1.8000000000000005	valid	0.4332440670004871	53248	0	1	2	51200	0	51200	0	53248	1	0.7	51200	purple	turquoise	1	0	ml	2.7.3	lorasick	sub-06_ses-01_task-ml_proj-lorasick_2020-12-04-14-01-39.011958
198	6	1	4	199	stable	1	200	199	sv	turquoise	purple	purple	turquoise	right	left	0.7	0.30000000000000004	6	2	4.199999999999998	0.6000000000000001	1	0	0.30000000000000004	0.7	2	6	0.6000000000000001	4.199999999999998	valid	0.6831565630018304	51200	0	0	2	53248	0	53248	0	53248	0	0.7	53248	purple	turquoise	1	0	ml	2.7.3	lorasick	sub-06_ses-01_task-ml_proj-lorasick_2020-12-04-14-01-39.011958
199	6	1	4	200	stable	1	200	200	sv	turquoise	purple	purple	turquoise	right	left	0.7	0.30000000000000004	4	6	2.8	1.8000000000000005	1	0	0.30000000000000004	0.7	6	4	1.8000000000000005	2.8	valid	0.5498821740002313	53248	0	1	1	53248	1	53248	1	51200	0	0.7	53248	purple	turquoise	0	4	ml	2.7.3	lorasick	sub-06_ses-01_task-ml_proj-lorasick_2020-12-04-14-01-39.011958
200	6	1	5	201	volatile	2	20	1	sv	purple	turquoise	purple	turquoise	left	right	0.30000000000000004	0.7	10	2	3.0000000000000004	1.4	0	1	0.30000000000000004	0.7	10	2	3.0000000000000004	1.4	valid	0.6498417629991309	51200	0	0	1	51200	1	53248	0	51200	1	0.7	53248	turquoise	purple	0	0	ml	2.7.3	lorasick	sub-06_ses-01_task-ml_proj-lorasick_2020-12-04-14-01-39.011958
201	6	1	5	202	volatile	2	20	2	sv	turquoise	purple	purple	turquoise	right	left	0.30000000000000004	0.7	6	6	1.8000000000000005	4.199999999999998	0	1	0.7	0.30000000000000004	6	6	4.199999999999998	1.8000000000000005	valid	0.4832165539992274	51200	0	0	2	51200	1	51200	1	53248	0	0.7	51200	turquoise	purple	1	6	ml	2.7.3	lorasick	sub-06_ses-01_task-ml_proj-lorasick_2020-12-04-14-01-39.011958
202	6	1	5	203	volatile	2	20	3	sv	purple	turquoise	purple	turquoise	left	right	0.30000000000000004	0.7	4	2	1.2000000000000002	1.4	0	1	0.30000000000000004	0.7	4	2	1.2000000000000002	1.4	valid	0.4832296640015557	53248	0	1	2	53248	1	53248	1	51200	0	0.7	53248	turquoise	purple	0	2	ml	2.7.3	lorasick	sub-06_ses-01_task-ml_proj-lorasick_2020-12-04-14-01-39.011958
203	6	1	5	204	volatile	2	20	4	sv	turquoise	purple	purple	turquoise	right	left	0.30000000000000004	0.7	4	2	1.2000000000000002	1.4	1	0	0.7	0.30000000000000004	2	4	1.4	1.2000000000000002	invalid	0.4832226380021893	51200	0	0	2	51200	1	51200	1	53248	0	0.7	51200	turquoise	purple	0	0	ml	2.7.3	lorasick	sub-06_ses-01_task-ml_proj-lorasick_2020-12-04-14-01-39.011958
204	6	1	5	205	volatile	2	20	5	sv	purple	turquoise	purple	turquoise	left	right	0.30000000000000004	0.7	4	6	1.2000000000000002	4.199999999999998	0	1	0.30000000000000004	0.7	4	6	1.2000000000000002	4.199999999999998	valid	0.4332411350005714	53248	0	1	2	53248	1	53248	1	53248	1	0.7	53248	turquoise	purple	1	6	ml	2.7.3	lorasick	sub-06_ses-01_task-ml_proj-lorasick_2020-12-04-14-01-39.011958
205	6	1	5	206	volatile	2	20	6	sv	turquoise	purple	purple	turquoise	right	left	0.30000000000000004	0.7	2	2	0.6000000000000001	1.4	0	1	0.7	0.30000000000000004	2	2	1.4	0.6000000000000001	valid	0.5332066789997043	51200	0	0	2	51200	1	51200	1	53248	0	0.7	51200	turquoise	purple	1	2	ml	2.7.3	lorasick	sub-06_ses-01_task-ml_proj-lorasick_2020-12-04-14-01-39.011958
206	6	1	5	207	volatile	2	20	7	sv	purple	turquoise	purple	turquoise	left	right	0.30000000000000004	0.7	2	4	0.6000000000000001	2.8	1	0	0.30000000000000004	0.7	2	4	0.6000000000000001	2.8	invalid	0.3999271579996275	53248	0	1	2	53248	1	53248	1	53248	1	0.7	53248	turquoise	purple	1	0	ml	2.7.3	lorasick	sub-06_ses-01_task-ml_proj-lorasick_2020-12-04-14-01-39.011958
207	6	1	5	208	volatile	2	20	8	sv	turquoise	purple	purple	turquoise	right	left	0.30000000000000004	0.7	2	10	0.6000000000000001	7.0	0	1	0.7	0.30000000000000004	10	2	7.0	0.6000000000000001	valid	0.3499261100005242	51200	0	0	2	51200	1	51200	1	51200	1	0.7	51200	turquoise	purple	1	10	ml	2.7.3	lorasick	sub-06_ses-01_task-ml_proj-lorasick_2020-12-04-14-01-39.011958
208	6	1	5	209	volatile	2	20	9	sv	purple	turquoise	purple	turquoise	left	right	0.30000000000000004	0.7	2	6	0.6000000000000001	4.199999999999998	0	1	0.30000000000000004	0.7	2	6	0.6000000000000001	4.199999999999998	valid	0.39992394399814657	53248	0	1	2	53248	1	53248	1	53248	1	0.7	53248	turquoise	purple	1	6	ml	2.7.3	lorasick	sub-06_ses-01_task-ml_proj-lorasick_2020-12-04-14-01-39.011958
209	6	1	5	210	volatile	2	20	10	sv	turquoise	purple	purple	turquoise	right	left	0.30000000000000004	0.7	4	6	1.2000000000000002	4.199999999999998	0	1	0.7	0.30000000000000004	6	4	4.199999999999998	1.2000000000000002	valid	0.38324548499804223	51200	0	0	2	51200	1	51200	1	51200	1	0.7	51200	turquoise	purple	1	6	ml	2.7.3	lorasick	sub-06_ses-01_task-ml_proj-lorasick_2020-12-04-14-01-39.011958
210	6	1	5	211	volatile	2	20	11	sv	turquoise	purple	purple	turquoise	right	left	0.30000000000000004	0.7	4	6	1.2000000000000002	4.199999999999998	0	1	0.7	0.30000000000000004	6	4	4.199999999999998	1.2000000000000002	valid	0.4665515269989555	51200	0	0	2	51200	1	51200	1	51200	1	0.7	51200	turquoise	purple	1	6	ml	2.7.3	lorasick	sub-06_ses-01_task-ml_proj-lorasick_2020-12-04-14-01-39.011958
211	6	1	5	212	volatile	2	20	12	sv	turquoise	purple	purple	turquoise	right	left	0.30000000000000004	0.7	6	6	1.8000000000000005	4.199999999999998	0	1	0.7	0.30000000000000004	6	6	4.199999999999998	1.8000000000000005	valid	0.4832192399990163	51200	0	0	2	51200	1	51200	1	53248	0	0.7	51200	turquoise	purple	1	6	ml	2.7.3	lorasick	sub-06_ses-01_task-ml_proj-lorasick_2020-12-04-14-01-39.011958
212	6	1	5	213	volatile	2	20	13	sv	purple	turquoise	purple	turquoise	left	right	0.30000000000000004	0.7	6	2	1.8000000000000005	1.4	1	0	0.30000000000000004	0.7	6	2	1.8000000000000005	1.4	invalid	0.7831346249986382	53248	0	1	2	51200	0	53248	1	51200	0	0.7	53248	turquoise	purple	0	0	ml	2.7.3	lorasick	sub-06_ses-01_task-ml_proj-lorasick_2020-12-04-14-01-39.011958
213	6	1	5	214	volatile	2	20	14	sv	turquoise	purple	purple	turquoise	right	left	0.30000000000000004	0.7	10	2	3.0000000000000004	1.4	1	0	0.7	0.30000000000000004	2	10	1.4	3.0000000000000004	invalid	0.5498738009991939	53248	0	1	1	53248	1	51200	0	53248	1	0.7	51200	turquoise	purple	0	10	ml	2.7.3	lorasick	sub-06_ses-01_task-ml_proj-lorasick_2020-12-04-14-01-39.011958
214	6	1	5	215	volatile	2	20	15	sv	turquoise	purple	purple	turquoise	right	left	0.30000000000000004	0.7	2	2	0.6000000000000001	1.4	1	0	0.7	0.30000000000000004	2	2	1.4	0.6000000000000001	invalid	0.4832310659985524	53248	0	1	1	51200	0	51200	0	53248	1	0.7	51200	turquoise	purple	1	2	ml	2.7.3	lorasick	sub-06_ses-01_task-ml_proj-lorasick_2020-12-04-14-01-39.011958
215	6	1	5	216	volatile	2	20	16	sv	purple	turquoise	purple	turquoise	left	right	0.30000000000000004	0.7	6	2	1.8000000000000005	1.4	1	0	0.30000000000000004	0.7	6	2	1.8000000000000005	1.4	invalid	0.4832180309967953	51200	0	0	1	51200	1	53248	0	51200	1	0.7	53248	turquoise	purple	0	6	ml	2.7.3	lorasick	sub-06_ses-01_task-ml_proj-lorasick_2020-12-04-14-01-39.011958
216	6	1	5	217	volatile	2	20	17	sv	purple	turquoise	purple	turquoise	left	right	0.30000000000000004	0.7	2	10	0.6000000000000001	7.0	0	1	0.30000000000000004	0.7	2	10	0.6000000000000001	7.0	valid	0.4998931269983586	53248	0	1	2	53248	1	53248	1	53248	1	0.7	53248	turquoise	purple	1	10	ml	2.7.3	lorasick	sub-06_ses-01_task-ml_proj-lorasick_2020-12-04-14-01-39.011958
217	6	1	5	218	volatile	2	20	18	sv	purple	turquoise	purple	turquoise	left	right	0.30000000000000004	0.7	4	2	1.2000000000000002	1.4	0	1	0.30000000000000004	0.7	4	2	1.2000000000000002	1.4	valid	0.41657079300057376	51200	0	0	1	53248	0	53248	0	51200	1	0.7	53248	turquoise	purple	0	0	ml	2.7.3	lorasick	sub-06_ses-01_task-ml_proj-lorasick_2020-12-04-14-01-39.011958
218	6	1	5	219	volatile	2	20	19	sv	turquoise	purple	purple	turquoise	right	left	0.30000000000000004	0.7	6	4	1.8000000000000005	2.8	0	1	0.7	0.30000000000000004	4	6	2.8	1.8000000000000005	valid	0.8997865689998434	53248	0	1	1	51200	0	51200	0	53248	1	0.7	51200	turquoise	purple	0	0	ml	2.7.3	lorasick	sub-06_ses-01_task-ml_proj-lorasick_2020-12-04-14-01-39.011958
219	6	1	5	220	volatile	2	20	20	sv	purple	turquoise	purple	turquoise	left	right	0.30000000000000004	0.7	2	6	0.6000000000000001	4.199999999999998	0	1	0.30000000000000004	0.7	2	6	0.6000000000000001	4.199999999999998	valid	0.4332442689992604	53248	0	1	2	53248	1	53248	1	53248	1	0.7	53248	turquoise	purple	1	6	ml	2.7.3	lorasick	sub-06_ses-01_task-ml_proj-lorasick_2020-12-04-14-01-39.011958
220	6	1	5	221	volatile	3	40	1	sv	purple	turquoise	purple	turquoise	left	right	0.7	0.30000000000000004	10	2	7.0	0.6000000000000001	1	0	0.7	0.30000000000000004	10	2	7.0	0.6000000000000001	valid	0.4332365539994498	51200	0	0	1	51200	1	51200	1	51200	1	0.7	51200	purple	turquoise	1	10	ml	2.7.3	lorasick	sub-06_ses-01_task-ml_proj-lorasick_2020-12-04-14-01-39.011958
221	6	1	5	222	volatile	3	40	2	sv	purple	turquoise	purple	turquoise	left	right	0.7	0.30000000000000004	2	2	1.4	0.6000000000000001	0	1	0.7	0.30000000000000004	2	2	1.4	0.6000000000000001	invalid	0.5332163729981403	53248	0	1	2	51200	0	51200	0	53248	1	0.7	51200	purple	turquoise	1	2	ml	2.7.3	lorasick	sub-06_ses-01_task-ml_proj-lorasick_2020-12-04-14-01-39.011958
222	6	1	5	223	volatile	3	40	3	sv	purple	turquoise	purple	turquoise	left	right	0.7	0.30000000000000004	2	4	1.4	1.2000000000000002	1	0	0.7	0.30000000000000004	2	4	1.4	1.2000000000000002	valid	0.5498790669989829	53248	0	1	2	51200	0	51200	0	53248	1	0.7	51200	purple	turquoise	0	0	ml	2.7.3	lorasick	sub-06_ses-01_task-ml_proj-lorasick_2020-12-04-14-01-39.011958
223	6	1	5	224	volatile	3	40	4	sv	purple	turquoise	purple	turquoise	left	right	0.7	0.30000000000000004	2	6	1.4	1.8000000000000005	1	0	0.7	0.30000000000000004	2	6	1.4	1.8000000000000005	valid	0.5498784199990041	53248	0	1	2	53248	1	51200	0	53248	1	0.7	51200	purple	turquoise	0	0	ml	2.7.3	lorasick	sub-06_ses-01_task-ml_proj-lorasick_2020-12-04-14-01-39.011958
224	6	1	5	225	volatile	3	40	5	sv	turquoise	purple	purple	turquoise	right	left	0.7	0.30000000000000004	6	6	4.199999999999998	1.8000000000000005	1	0	0.30000000000000004	0.7	6	6	1.8000000000000005	4.199999999999998	valid	0.89977488400109	53248	0	1	1	53248	1	53248	1	53248	1	0.7	53248	purple	turquoise	0	6	ml	2.7.3	lorasick	sub-06_ses-01_task-ml_proj-lorasick_2020-12-04-14-01-39.011958
225	6	1	5	226	volatile	3	40	6	sv	turquoise	purple	purple	turquoise	right	left	0.7	0.30000000000000004	2	2	1.4	0.6000000000000001	1	0	0.30000000000000004	0.7	2	2	0.6000000000000001	1.4	valid	0.8664498350008216	53248	0	1	1	53248	1	53248	1	53248	1	0.7	53248	purple	turquoise	0	2	ml	2.7.3	lorasick	sub-06_ses-01_task-ml_proj-lorasick_2020-12-04-14-01-39.011958
226	6	1	5	227	volatile	3	40	7	sv	purple	turquoise	purple	turquoise	left	right	0.7	0.30000000000000004	2	10	1.4	3.0000000000000004	1	0	0.7	0.30000000000000004	2	10	1.4	3.0000000000000004	valid	0.7498146790021565	53248	0	1	2	53248	1	51200	0	53248	1	0.7	51200	purple	turquoise	0	0	ml	2.7.3	lorasick	sub-06_ses-01_task-ml_proj-lorasick_2020-12-04-14-01-39.011958
227	6	1	5	228	volatile	3	40	8	sv	turquoise	purple	purple	turquoise	right	left	0.7	0.30000000000000004	2	10	1.4	3.0000000000000004	1	0	0.30000000000000004	0.7	10	2	3.0000000000000004	1.4	valid	0.64984757899947	53248	0	1	1	51200	0	53248	1	51200	0	0.7	53248	purple	turquoise	0	2	ml	2.7.3	lorasick	sub-06_ses-01_task-ml_proj-lorasick_2020-12-04-14-01-39.011958
228	6	1	5	229	volatile	3	40	9	sv	turquoise	purple	purple	turquoise	right	left	0.7	0.30000000000000004	2	6	1.4	1.8000000000000005	0	1	0.30000000000000004	0.7	6	2	1.8000000000000005	1.4	invalid	0.4998920510006428	53248	0	1	1	51200	0	53248	1	51200	0	0.7	53248	purple	turquoise	0	0	ml	2.7.3	lorasick	sub-06_ses-01_task-ml_proj-lorasick_2020-12-04-14-01-39.011958
229	6	1	5	230	volatile	3	40	10	sv	purple	turquoise	purple	turquoise	left	right	0.7	0.30000000000000004	2	2	1.4	0.6000000000000001	1	0	0.7	0.30000000000000004	2	2	1.4	0.6000000000000001	valid	0.5498650209992775	51200	0	0	1	51200	1	51200	1	53248	0	0.7	51200	purple	turquoise	1	2	ml	2.7.3	lorasick	sub-06_ses-01_task-ml_proj-lorasick_2020-12-04-14-01-39.011958
230	6	1	5	231	volatile	3	40	11	sv	purple	turquoise	purple	turquoise	left	right	0.7	0.30000000000000004	6	4	4.199999999999998	1.2000000000000002	1	0	0.7	0.30000000000000004	6	4	4.199999999999998	1.2000000000000002	valid	0.4498945649975212	51200	0	0	1	51200	1	51200	1	51200	1	0.7	51200	purple	turquoise	1	6	ml	2.7.3	lorasick	sub-06_ses-01_task-ml_proj-lorasick_2020-12-04-14-01-39.011958
231	6	1	5	232	volatile	3	40	12	sv	purple	turquoise	purple	turquoise	left	right	0.7	0.30000000000000004	4	6	2.8	1.8000000000000005	1	0	0.7	0.30000000000000004	4	6	2.8	1.8000000000000005	valid	0.5498736830013513	51200	0	0	1	51200	1	51200	1	53248	0	0.7	51200	purple	turquoise	0	4	ml	2.7.3	lorasick	sub-06_ses-01_task-ml_proj-lorasick_2020-12-04-14-01-39.011958
232	6	1	5	233	volatile	3	40	13	sv	purple	turquoise	purple	turquoise	left	right	0.7	0.30000000000000004	4	2	2.8	0.6000000000000001	1	0	0.7	0.30000000000000004	4	2	2.8	0.6000000000000001	valid	0.549867350000568	51200	0	0	1	51200	1	51200	1	51200	1	0.7	51200	purple	turquoise	1	4	ml	2.7.3	lorasick	sub-06_ses-01_task-ml_proj-lorasick_2020-12-04-14-01-39.011958
233	6	1	5	234	volatile	3	40	14	sv	purple	turquoise	purple	turquoise	left	right	0.7	0.30000000000000004	10	2	7.0	0.6000000000000001	0	1	0.7	0.30000000000000004	10	2	7.0	0.6000000000000001	invalid	0.3832469340013631	51200	0	0	1	51200	1	51200	1	51200	1	0.7	51200	purple	turquoise	1	0	ml	2.7.3	lorasick	sub-06_ses-01_task-ml_proj-lorasick_2020-12-04-14-01-39.011958
234	6	1	5	235	volatile	3	40	15	sv	turquoise	purple	purple	turquoise	right	left	0.7	0.30000000000000004	2	4	1.4	1.2000000000000002	1	0	0.30000000000000004	0.7	4	2	1.2000000000000002	1.4	valid	0.4832361930020852	53248	0	1	1	53248	1	53248	1	51200	0	0.7	53248	purple	turquoise	0	2	ml	2.7.3	lorasick	sub-06_ses-01_task-ml_proj-lorasick_2020-12-04-14-01-39.011958
235	6	1	5	236	volatile	3	40	16	sv	turquoise	purple	purple	turquoise	right	left	0.7	0.30000000000000004	2	6	1.4	1.8000000000000005	0	1	0.30000000000000004	0.7	6	2	1.8000000000000005	1.4	invalid	0.5998571480013197	53248	0	1	1	51200	0	53248	1	51200	0	0.7	53248	purple	turquoise	0	0	ml	2.7.3	lorasick	sub-06_ses-01_task-ml_proj-lorasick_2020-12-04-14-01-39.011958
236	6	1	5	237	volatile	3	40	17	sv	turquoise	purple	purple	turquoise	right	left	0.7	0.30000000000000004	10	2	7.0	0.6000000000000001	1	0	0.30000000000000004	0.7	2	10	0.6000000000000001	7.0	valid	0.5498773069994058	53248	0	1	1	53248	1	53248	1	53248	1	0.7	53248	purple	turquoise	1	10	ml	2.7.3	lorasick	sub-06_ses-01_task-ml_proj-lorasick_2020-12-04-14-01-39.011958
237	6	1	5	238	volatile	3	40	18	sv	purple	turquoise	purple	turquoise	left	right	0.7	0.30000000000000004	6	2	4.199999999999998	0.6000000000000001	0	1	0.7	0.30000000000000004	6	2	4.199999999999998	0.6000000000000001	invalid	0.449900447998516	51200	0	0	1	51200	1	51200	1	51200	1	0.7	51200	purple	turquoise	1	0	ml	2.7.3	lorasick	sub-06_ses-01_task-ml_proj-lorasick_2020-12-04-14-01-39.011958
238	6	1	5	239	volatile	3	40	19	sv	purple	turquoise	purple	turquoise	left	right	0.7	0.30000000000000004	6	6	4.199999999999998	1.8000000000000005	0	1	0.7	0.30000000000000004	6	6	4.199999999999998	1.8000000000000005	invalid	0.7498190070000419	53248	0	1	2	51200	0	51200	0	53248	1	0.7	51200	purple	turquoise	1	6	ml	2.7.3	lorasick	sub-06_ses-01_task-ml_proj-lorasick_2020-12-04-14-01-39.011958
239	6	1	5	240	volatile	3	40	20	sv	turquoise	purple	purple	turquoise	right	left	0.7	0.30000000000000004	10	2	7.0	0.6000000000000001	1	0	0.30000000000000004	0.7	2	10	0.6000000000000001	7.0	valid	0.5832061830005841	53248	0	1	1	53248	1	53248	1	53248	1	0.7	53248	purple	turquoise	1	10	ml	2.7.3	lorasick	sub-06_ses-01_task-ml_proj-lorasick_2020-12-04-14-01-39.011958
240	6	1	5	241	volatile	3	40	21	sv	turquoise	purple	purple	turquoise	right	left	0.7	0.30000000000000004	6	2	4.199999999999998	0.6000000000000001	1	0	0.30000000000000004	0.7	2	6	0.6000000000000001	4.199999999999998	valid	0.5332222080032807	53248	0	1	1	53248	1	53248	1	53248	1	0.7	53248	purple	turquoise	1	6	ml	2.7.3	lorasick	sub-06_ses-01_task-ml_proj-lorasick_2020-12-04-14-01-39.011958
241	6	1	5	242	volatile	3	40	22	sv	turquoise	purple	purple	turquoise	right	left	0.7	0.30000000000000004	4	2	2.8	0.6000000000000001	1	0	0.30000000000000004	0.7	2	4	0.6000000000000001	2.8	valid	0.6165302520021214	53248	0	1	1	53248	1	53248	1	53248	1	0.7	53248	purple	turquoise	1	4	ml	2.7.3	lorasick	sub-06_ses-01_task-ml_proj-lorasick_2020-12-04-14-01-39.011958
242	6	1	5	243	volatile	3	40	23	sv	purple	turquoise	purple	turquoise	left	right	0.7	0.30000000000000004	10	2	7.0	0.6000000000000001	1	0	0.7	0.30000000000000004	10	2	7.0	0.6000000000000001	valid	0.4498987789993407	51200	0	0	1	51200	1	51200	1	51200	1	0.7	51200	purple	turquoise	1	10	ml	2.7.3	lorasick	sub-06_ses-01_task-ml_proj-lorasick_2020-12-04-14-01-39.011958
243	6	1	5	244	volatile	3	40	24	sv	purple	turquoise	purple	turquoise	left	right	0.7	0.30000000000000004	2	10	1.4	3.0000000000000004	1	0	0.7	0.30000000000000004	2	10	1.4	3.0000000000000004	valid	0.4832290049998846	53248	0	1	2	53248	1	51200	0	53248	1	0.7	51200	purple	turquoise	0	0	ml	2.7.3	lorasick	sub-06_ses-01_task-ml_proj-lorasick_2020-12-04-14-01-39.011958
244	6	1	5	245	volatile	3	40	25	sv	turquoise	purple	purple	turquoise	right	left	0.7	0.30000000000000004	4	2	2.8	0.6000000000000001	0	1	0.30000000000000004	0.7	2	4	0.6000000000000001	2.8	invalid	0.4998908079978719	53248	0	1	1	53248	1	53248	1	53248	1	0.7	53248	purple	turquoise	1	0	ml	2.7.3	lorasick	sub-06_ses-01_task-ml_proj-lorasick_2020-12-04-14-01-39.011958
245	6	1	5	246	volatile	3	40	26	sv	turquoise	purple	purple	turquoise	right	left	0.7	0.30000000000000004	2	4	1.4	1.2000000000000002	1	0	0.30000000000000004	0.7	4	2	1.2000000000000002	1.4	valid	0.5665181660006056	51200	0	0	2	53248	0	53248	0	51200	1	0.7	53248	purple	turquoise	0	0	ml	2.7.3	lorasick	sub-06_ses-01_task-ml_proj-lorasick_2020-12-04-14-01-39.011958
246	6	1	5	247	volatile	3	40	27	sv	turquoise	purple	purple	turquoise	right	left	0.7	0.30000000000000004	6	2	4.199999999999998	0.6000000000000001	1	0	0.30000000000000004	0.7	2	6	0.6000000000000001	4.199999999999998	valid	0.43323809200228425	53248	0	1	1	53248	1	53248	1	53248	1	0.7	53248	purple	turquoise	1	6	ml	2.7.3	lorasick	sub-06_ses-01_task-ml_proj-lorasick_2020-12-04-14-01-39.011958
247	6	1	5	248	volatile	3	40	28	sv	turquoise	purple	purple	turquoise	right	left	0.7	0.30000000000000004	2	2	1.4	0.6000000000000001	1	0	0.30000000000000004	0.7	2	2	0.6000000000000001	1.4	valid	0.5332164130013552	53248	0	1	1	53248	1	53248	1	53248	1	0.7	53248	purple	turquoise	0	2	ml	2.7.3	lorasick	sub-06_ses-01_task-ml_proj-lorasick_2020-12-04-14-01-39.011958
248	6	1	5	249	volatile	3	40	29	sv	turquoise	purple	purple	turquoise	right	left	0.7	0.30000000000000004	6	4	4.199999999999998	1.2000000000000002	0	1	0.30000000000000004	0.7	4	6	1.2000000000000002	4.199999999999998	invalid	0.3999214559989923	53248	0	1	1	53248	1	53248	1	53248	1	0.7	53248	purple	turquoise	1	0	ml	2.7.3	lorasick	sub-06_ses-01_task-ml_proj-lorasick_2020-12-04-14-01-39.011958
249	6	1	5	250	volatile	3	40	30	sv	turquoise	purple	purple	turquoise	right	left	0.7	0.30000000000000004	4	2	2.8	0.6000000000000001	1	0	0.30000000000000004	0.7	2	4	0.6000000000000001	2.8	valid	0.483231344998785	53248	0	1	1	53248	1	53248	1	53248	1	0.7	53248	purple	turquoise	1	4	ml	2.7.3	lorasick	sub-06_ses-01_task-ml_proj-lorasick_2020-12-04-14-01-39.011958
250	6	1	6	251	volatile	3	40	31	sv	purple	turquoise	purple	turquoise	left	right	0.7	0.30000000000000004	6	2	4.199999999999998	0.6000000000000001	1	0	0.7	0.30000000000000004	6	2	4.199999999999998	0.6000000000000001	valid	0.8331128320023709	51200	0	0	1	51200	1	51200	1	51200	1	0.7	51200	purple	turquoise	1	6	ml	2.7.3	lorasick	sub-06_ses-01_task-ml_proj-lorasick_2020-12-04-14-01-39.011958
251	6	1	6	252	volatile	3	40	32	sv	purple	turquoise	purple	turquoise	left	right	0.7	0.30000000000000004	6	6	4.199999999999998	1.8000000000000005	0	1	0.7	0.30000000000000004	6	6	4.199999999999998	1.8000000000000005	invalid	0.6831583439998212	51200	0	0	1	51200	1	51200	1	53248	0	0.7	51200	purple	turquoise	1	0	ml	2.7.3	lorasick	sub-06_ses-01_task-ml_proj-lorasick_2020-12-04-14-01-39.011958
252	6	1	6	253	volatile	3	40	33	sv	purple	turquoise	purple	turquoise	left	right	0.7	0.30000000000000004	4	2	2.8	0.6000000000000001	0	1	0.7	0.30000000000000004	4	2	2.8	0.6000000000000001	invalid	0.5498656349991506	51200	0	0	1	51200	1	51200	1	51200	1	0.7	51200	purple	turquoise	1	0	ml	2.7.3	lorasick	sub-06_ses-01_task-ml_proj-lorasick_2020-12-04-14-01-39.011958
253	6	1	6	254	volatile	3	40	34	sv	purple	turquoise	purple	turquoise	left	right	0.7	0.30000000000000004	6	6	4.199999999999998	1.8000000000000005	1	0	0.7	0.30000000000000004	6	6	4.199999999999998	1.8000000000000005	valid	0.7164957340028195	53248	0	1	2	51200	0	51200	0	53248	1	0.7	51200	purple	turquoise	1	0	ml	2.7.3	lorasick	sub-06_ses-01_task-ml_proj-lorasick_2020-12-04-14-01-39.011958
254	6	1	6	255	volatile	3	40	35	sv	purple	turquoise	purple	turquoise	left	right	0.7	0.30000000000000004	4	6	2.8	1.8000000000000005	1	0	0.7	0.30000000000000004	4	6	2.8	1.8000000000000005	valid	0.6498420059979253	51200	0	0	1	51200	1	51200	1	53248	0	0.7	51200	purple	turquoise	0	4	ml	2.7.3	lorasick	sub-06_ses-01_task-ml_proj-lorasick_2020-12-04-14-01-39.011958
255	6	1	6	256	volatile	3	40	36	sv	turquoise	purple	purple	turquoise	right	left	0.7	0.30000000000000004	4	6	2.8	1.8000000000000005	1	0	0.30000000000000004	0.7	6	4	1.8000000000000005	2.8	valid	0.5165543660004914	53248	0	1	1	53248	1	53248	1	51200	0	0.7	53248	purple	turquoise	0	4	ml	2.7.3	lorasick	sub-06_ses-01_task-ml_proj-lorasick_2020-12-04-14-01-39.011958
256	6	1	6	257	volatile	3	40	37	sv	turquoise	purple	purple	turquoise	right	left	0.7	0.30000000000000004	4	6	2.8	1.8000000000000005	1	0	0.30000000000000004	0.7	6	4	1.8000000000000005	2.8	valid	0.4665748010011157	53248	0	1	1	53248	1	53248	1	51200	0	0.7	53248	purple	turquoise	0	4	ml	2.7.3	lorasick	sub-06_ses-01_task-ml_proj-lorasick_2020-12-04-14-01-39.011958
257	6	1	6	258	volatile	3	40	38	sv	turquoise	purple	purple	turquoise	right	left	0.7	0.30000000000000004	6	4	4.199999999999998	1.2000000000000002	0	1	0.30000000000000004	0.7	4	6	1.2000000000000002	4.199999999999998	invalid	0.566545366000355	53248	0	1	1	53248	1	53248	1	53248	1	0.7	53248	purple	turquoise	1	0	ml	2.7.3	lorasick	sub-06_ses-01_task-ml_proj-lorasick_2020-12-04-14-01-39.011958
258	6	1	6	259	volatile	3	40	39	sv	purple	turquoise	purple	turquoise	left	right	0.7	0.30000000000000004	6	4	4.199999999999998	1.2000000000000002	1	0	0.7	0.30000000000000004	6	4	4.199999999999998	1.2000000000000002	valid	0.3832488230000308	51200	0	0	1	51200	1	51200	1	51200	1	0.7	51200	purple	turquoise	1	6	ml	2.7.3	lorasick	sub-06_ses-01_task-ml_proj-lorasick_2020-12-04-14-01-39.011958
259	6	1	6	260	volatile	3	40	40	sv	turquoise	purple	purple	turquoise	right	left	0.7	0.30000000000000004	6	2	4.199999999999998	0.6000000000000001	0	1	0.30000000000000004	0.7	2	6	0.6000000000000001	4.199999999999998	invalid	0.38325811700269696	53248	0	1	1	53248	1	53248	1	53248	1	0.7	53248	purple	turquoise	1	0	ml	2.7.3	lorasick	sub-06_ses-01_task-ml_proj-lorasick_2020-12-04-14-01-39.011958
260	6	1	6	261	volatile	4	20	1	sv	turquoise	purple	purple	turquoise	right	left	0.30000000000000004	0.7	4	2	1.2000000000000002	1.4	0	1	0.7	0.30000000000000004	2	4	1.4	1.2000000000000002	valid	0.4499069949997647	53248	0	1	1	51200	0	51200	0	53248	1	0.7	51200	turquoise	purple	0	0	ml	2.7.3	lorasick	sub-06_ses-01_task-ml_proj-lorasick_2020-12-04-14-01-39.011958
261	6	1	6	262	volatile	4	20	2	sv	purple	turquoise	purple	turquoise	left	right	0.30000000000000004	0.7	4	2	1.2000000000000002	1.4	0	1	0.30000000000000004	0.7	4	2	1.2000000000000002	1.4	valid	0.7498085429979255	51200	0	0	1	53248	0	53248	0	51200	1	0.7	53248	turquoise	purple	0	0	ml	2.7.3	lorasick	sub-06_ses-01_task-ml_proj-lorasick_2020-12-04-14-01-39.011958
262	6	1	6	263	volatile	4	20	3	sv	turquoise	purple	purple	turquoise	right	left	0.30000000000000004	0.7	6	4	1.8000000000000005	2.8	1	0	0.7	0.30000000000000004	4	6	2.8	1.8000000000000005	invalid	0.4665557760017691	51200	0	0	2	51200	1	51200	1	53248	0	0.7	51200	turquoise	purple	0	0	ml	2.7.3	lorasick	sub-06_ses-01_task-ml_proj-lorasick_2020-12-04-14-01-39.011958
263	6	1	6	264	volatile	4	20	4	sv	purple	turquoise	purple	turquoise	left	right	0.30000000000000004	0.7	6	2	1.8000000000000005	1.4	0	1	0.30000000000000004	0.7	6	2	1.8000000000000005	1.4	valid	0.43323734200021136	51200	0	0	1	51200	1	53248	0	51200	1	0.7	53248	turquoise	purple	0	0	ml	2.7.3	lorasick	sub-06_ses-01_task-ml_proj-lorasick_2020-12-04-14-01-39.011958
264	6	1	6	265	volatile	4	20	5	sv	turquoise	purple	purple	turquoise	right	left	0.30000000000000004	0.7	10	2	3.0000000000000004	1.4	0	1	0.7	0.30000000000000004	2	10	1.4	3.0000000000000004	valid	0.8164680640002189	53248	0	1	1	53248	1	51200	0	53248	1	0.7	51200	turquoise	purple	0	0	ml	2.7.3	lorasick	sub-06_ses-01_task-ml_proj-lorasick_2020-12-04-14-01-39.011958
265	6	1	6	266	volatile	4	20	6	sv	turquoise	purple	purple	turquoise	right	left	0.30000000000000004	0.7	6	2	1.8000000000000005	1.4	0	1	0.7	0.30000000000000004	2	6	1.4	1.8000000000000005	valid	0.5332040150024113	51200	0	0	2	53248	0	51200	1	53248	0	0.7	51200	turquoise	purple	0	2	ml	2.7.3	lorasick	sub-06_ses-01_task-ml_proj-lorasick_2020-12-04-14-01-39.011958
266	6	1	6	267	volatile	4	20	7	sv	turquoise	purple	purple	turquoise	right	left	0.30000000000000004	0.7	4	2	1.2000000000000002	1.4	1	0	0.7	0.30000000000000004	2	4	1.4	1.2000000000000002	invalid	0.4998790070021642	51200	0	0	2	51200	1	51200	1	53248	0	0.7	51200	turquoise	purple	0	0	ml	2.7.3	lorasick	sub-06_ses-01_task-ml_proj-lorasick_2020-12-04-14-01-39.011958
267	6	1	6	268	volatile	4	20	8	sv	turquoise	purple	purple	turquoise	right	left	0.30000000000000004	0.7	4	6	1.2000000000000002	4.199999999999998	0	1	0.7	0.30000000000000004	6	4	4.199999999999998	1.2000000000000002	valid	0.48320677700030495	51200	0	0	2	51200	1	51200	1	51200	1	0.7	51200	turquoise	purple	1	6	ml	2.7.3	lorasick	sub-06_ses-01_task-ml_proj-lorasick_2020-12-04-14-01-39.011958
268	6	1	6	269	volatile	4	20	9	sv	turquoise	purple	purple	turquoise	right	left	0.30000000000000004	0.7	2	10	0.6000000000000001	7.0	1	0	0.7	0.30000000000000004	10	2	7.0	0.6000000000000001	invalid	0.3999140969972359	51200	0	0	2	51200	1	51200	1	51200	1	0.7	51200	turquoise	purple	1	0	ml	2.7.3	lorasick	sub-06_ses-01_task-ml_proj-lorasick_2020-12-04-14-01-39.011958
269	6	1	6	270	volatile	4	20	10	sv	purple	turquoise	purple	turquoise	left	right	0.30000000000000004	0.7	4	6	1.2000000000000002	4.199999999999998	1	0	0.30000000000000004	0.7	4	6	1.2000000000000002	4.199999999999998	invalid	0.43324394700175617	53248	0	1	2	53248	1	53248	1	53248	1	0.7	53248	turquoise	purple	1	0	ml	2.7.3	lorasick	sub-06_ses-01_task-ml_proj-lorasick_2020-12-04-14-01-39.011958
270	6	1	6	271	volatile	4	20	11	sv	purple	turquoise	purple	turquoise	left	right	0.30000000000000004	0.7	6	6	1.8000000000000005	4.199999999999998	0	1	0.30000000000000004	0.7	6	6	1.8000000000000005	4.199999999999998	valid	0.4832182950012793	51200	0	0	1	53248	0	53248	0	53248	0	0.7	53248	turquoise	purple	0	0	ml	2.7.3	lorasick	sub-06_ses-01_task-ml_proj-lorasick_2020-12-04-14-01-39.011958
