Unnamed: 0	sub_id	ses_id	block_no	trial_no	phase_type	phase_no	phase_length	trialInPhase_no	phase_type_order	color_left	color_right	color1	color2	position1	position2	prob1	prob2	mag1	mag2	ev1	ev2	outcome1	outcome2	prob_left	prob_right	mag_left	mag_right	ev_left	ev_right	reward_validity	resp_time	resp_key	timeout	choice_side	choice	ev_corr_resp	ev_correct	prob_corr_resp	prob_correct	mag_corr_resp	mag_correct	high_prob	high_prob_side	high_prob_color	low_prob_color	no_brain	reward	name	version	proj_id	logFileID
0	13	1	1	1	volatile	1	20	1	vs	red	blue	blue	red	right	left	0.7	0.30000000000000004	2	2	1.4	0.6000000000000001	0	1	0.30000000000000004	0.7	2	2	0.6000000000000001	1.4	invalid	0.9664116130006732	51200	0	0	2	53248	0	53248	0	53248	0	0.7	53248	blue	red	0	2	ml	2.7.3	bip	sub-13_ses-01_task-ml_proj-bip_2021-01-13-10-33-01.715389
1	13	1	1	2	volatile	1	20	2	vs	blue	red	blue	red	left	right	0.7	0.30000000000000004	2	6	1.4	1.8000000000000005	1	0	0.7	0.30000000000000004	2	6	1.4	1.8000000000000005	valid	0.6498501990008663	53248	0	1	2	53248	1	51200	0	53248	1	0.7	51200	blue	red	0	0	ml	2.7.3	bip	sub-13_ses-01_task-ml_proj-bip_2021-01-13-10-33-01.715389
2	13	1	1	3	volatile	1	20	3	vs	blue	red	blue	red	left	right	0.7	0.30000000000000004	10	2	7.0	0.6000000000000001	1	0	0.7	0.30000000000000004	10	2	7.0	0.6000000000000001	valid	0.5332062800007407	51200	0	0	1	51200	1	51200	1	51200	1	0.7	51200	blue	red	1	10	ml	2.7.3	bip	sub-13_ses-01_task-ml_proj-bip_2021-01-13-10-33-01.715389
3	13	1	1	4	volatile	1	20	4	vs	blue	red	blue	red	left	right	0.7	0.30000000000000004	10	2	7.0	0.6000000000000001	0	1	0.7	0.30000000000000004	10	2	7.0	0.6000000000000001	invalid	0.4665504379991034	51200	0	0	1	51200	1	51200	1	51200	1	0.7	51200	blue	red	1	0	ml	2.7.3	bip	sub-13_ses-01_task-ml_proj-bip_2021-01-13-10-33-01.715389
4	13	1	1	5	volatile	1	20	5	vs	red	blue	blue	red	right	left	0.7	0.30000000000000004	2	4	1.4	1.2000000000000002	1	0	0.30000000000000004	0.7	4	2	1.2000000000000002	1.4	valid	0.9497515330003808	51200	0	0	2	53248	0	53248	0	51200	1	0.7	53248	blue	red	0	0	ml	2.7.3	bip	sub-13_ses-01_task-ml_proj-bip_2021-01-13-10-33-01.715389
5	13	1	1	6	volatile	1	20	6	vs	blue	red	blue	red	left	right	0.7	0.30000000000000004	2	4	1.4	1.2000000000000002	1	0	0.7	0.30000000000000004	2	4	1.4	1.2000000000000002	valid	0.5665454469999531	53248	0	1	2	51200	0	51200	0	53248	1	0.7	51200	blue	red	0	0	ml	2.7.3	bip	sub-13_ses-01_task-ml_proj-bip_2021-01-13-10-33-01.715389
6	13	1	1	7	volatile	1	20	7	vs	red	blue	blue	red	right	left	0.7	0.30000000000000004	4	6	2.8	1.8000000000000005	1	0	0.30000000000000004	0.7	6	4	1.8000000000000005	2.8	valid	0.5165466569997079	51200	0	0	2	53248	0	53248	0	51200	1	0.7	53248	blue	red	0	0	ml	2.7.3	bip	sub-13_ses-01_task-ml_proj-bip_2021-01-13-10-33-01.715389
7	13	1	1	8	volatile	1	20	8	vs	red	blue	blue	red	right	left	0.7	0.30000000000000004	6	2	4.199999999999998	0.6000000000000001	0	1	0.30000000000000004	0.7	2	6	0.6000000000000001	4.199999999999998	invalid	0.5332208180007001	53248	0	1	1	53248	1	53248	1	53248	1	0.7	53248	blue	red	1	0	ml	2.7.3	bip	sub-13_ses-01_task-ml_proj-bip_2021-01-13-10-33-01.715389
8	13	1	1	9	volatile	1	20	9	vs	blue	red	blue	red	left	right	0.7	0.30000000000000004	4	6	2.8	1.8000000000000005	0	1	0.7	0.30000000000000004	4	6	2.8	1.8000000000000005	invalid	0.4499045829998067	53248	0	1	2	51200	0	51200	0	53248	1	0.7	51200	blue	red	0	6	ml	2.7.3	bip	sub-13_ses-01_task-ml_proj-bip_2021-01-13-10-33-01.715389
9	13	1	1	10	volatile	1	20	10	vs	red	blue	blue	red	right	left	0.7	0.30000000000000004	10	2	7.0	0.6000000000000001	1	0	0.30000000000000004	0.7	2	10	0.6000000000000001	7.0	valid	0.6831717759996536	53248	0	1	1	53248	1	53248	1	53248	1	0.7	53248	blue	red	1	10	ml	2.7.3	bip	sub-13_ses-01_task-ml_proj-bip_2021-01-13-10-33-01.715389
10	13	1	1	11	volatile	1	20	11	vs	blue	red	blue	red	left	right	0.7	0.30000000000000004	2	10	1.4	3.0000000000000004	1	0	0.7	0.30000000000000004	2	10	1.4	3.0000000000000004	valid	0.6998305470006017	53248	0	1	2	53248	1	51200	0	53248	1	0.7	51200	blue	red	0	0	ml	2.7.3	bip	sub-13_ses-01_task-ml_proj-bip_2021-01-13-10-33-01.715389
11	13	1	1	12	volatile	1	20	12	vs	blue	red	blue	red	left	right	0.7	0.30000000000000004	4	6	2.8	1.8000000000000005	0	1	0.7	0.30000000000000004	4	6	2.8	1.8000000000000005	invalid	0.849788126999556	53248	0	1	2	51200	0	51200	0	53248	1	0.7	51200	blue	red	0	6	ml	2.7.3	bip	sub-13_ses-01_task-ml_proj-bip_2021-01-13-10-33-01.715389
12	13	1	1	13	volatile	1	20	13	vs	red	blue	blue	red	right	left	0.7	0.30000000000000004	2	2	1.4	0.6000000000000001	1	0	0.30000000000000004	0.7	2	2	0.6000000000000001	1.4	valid	0.6165169530013372	51200	0	0	2	53248	0	53248	0	53248	0	0.7	53248	blue	red	0	0	ml	2.7.3	bip	sub-13_ses-01_task-ml_proj-bip_2021-01-13-10-33-01.715389
13	13	1	1	14	volatile	1	20	14	vs	red	blue	blue	red	right	left	0.7	0.30000000000000004	2	6	1.4	1.8000000000000005	1	0	0.30000000000000004	0.7	6	2	1.8000000000000005	1.4	valid	0.4832301330006885	51200	0	0	2	51200	1	53248	0	51200	1	0.7	53248	blue	red	0	0	ml	2.7.3	bip	sub-13_ses-01_task-ml_proj-bip_2021-01-13-10-33-01.715389
14	13	1	1	15	volatile	1	20	15	vs	blue	red	blue	red	left	right	0.7	0.30000000000000004	6	6	4.199999999999998	1.8000000000000005	1	0	0.7	0.30000000000000004	6	6	4.199999999999998	1.8000000000000005	valid	0.7998030689996085	51200	0	0	1	51200	1	51200	1	53248	0	0.7	51200	blue	red	1	6	ml	2.7.3	bip	sub-13_ses-01_task-ml_proj-bip_2021-01-13-10-33-01.715389
15	13	1	1	16	volatile	1	20	16	vs	blue	red	blue	red	left	right	0.7	0.30000000000000004	2	4	1.4	1.2000000000000002	1	0	0.7	0.30000000000000004	2	4	1.4	1.2000000000000002	valid	0.6498390259985172	51200	0	0	1	51200	1	51200	1	53248	0	0.7	51200	blue	red	0	2	ml	2.7.3	bip	sub-13_ses-01_task-ml_proj-bip_2021-01-13-10-33-01.715389
16	13	1	1	17	volatile	1	20	17	vs	blue	red	blue	red	left	right	0.7	0.30000000000000004	6	4	4.199999999999998	1.2000000000000002	1	0	0.7	0.30000000000000004	6	4	4.199999999999998	1.2000000000000002	valid	0.4499203129998932	51200	0	0	1	51200	1	51200	1	51200	1	0.7	51200	blue	red	1	6	ml	2.7.3	bip	sub-13_ses-01_task-ml_proj-bip_2021-01-13-10-33-01.715389
17	13	1	1	18	volatile	1	20	18	vs	red	blue	blue	red	right	left	0.7	0.30000000000000004	2	6	1.4	1.8000000000000005	0	1	0.30000000000000004	0.7	6	2	1.8000000000000005	1.4	invalid	0.7331649539992213	53248	0	1	1	51200	0	53248	1	51200	0	0.7	53248	blue	red	0	0	ml	2.7.3	bip	sub-13_ses-01_task-ml_proj-bip_2021-01-13-10-33-01.715389
18	13	1	1	19	volatile	1	20	19	vs	red	blue	blue	red	right	left	0.7	0.30000000000000004	2	4	1.4	1.2000000000000002	1	0	0.30000000000000004	0.7	4	2	1.2000000000000002	1.4	valid	0.6331757429998106	51200	0	0	2	53248	0	53248	0	51200	1	0.7	53248	blue	red	0	0	ml	2.7.3	bip	sub-13_ses-01_task-ml_proj-bip_2021-01-13-10-33-01.715389
19	13	1	1	20	volatile	1	20	20	vs	red	blue	blue	red	right	left	0.7	0.30000000000000004	6	6	4.199999999999998	1.8000000000000005	1	0	0.30000000000000004	0.7	6	6	1.8000000000000005	4.199999999999998	valid	0.5832014970001183	53248	0	1	1	53248	1	53248	1	53248	1	0.7	53248	blue	red	0	6	ml	2.7.3	bip	sub-13_ses-01_task-ml_proj-bip_2021-01-13-10-33-01.715389
20	13	1	1	21	volatile	2	20	1	vs	red	blue	blue	red	right	left	0.30000000000000004	0.7	2	6	0.6000000000000001	4.199999999999998	0	1	0.7	0.30000000000000004	6	2	4.199999999999998	0.6000000000000001	valid	0.6998334370000521	53248	0	1	1	51200	0	51200	0	51200	0	0.7	51200	red	blue	1	0	ml	2.7.3	bip	sub-13_ses-01_task-ml_proj-bip_2021-01-13-10-33-01.715389
21	13	1	1	22	volatile	2	20	2	vs	blue	red	blue	red	left	right	0.30000000000000004	0.7	2	4	0.6000000000000001	2.8	0	1	0.30000000000000004	0.7	2	4	0.6000000000000001	2.8	valid	0.6498503860002529	53248	0	1	2	53248	1	53248	1	53248	1	0.7	53248	red	blue	1	4	ml	2.7.3	bip	sub-13_ses-01_task-ml_proj-bip_2021-01-13-10-33-01.715389
22	13	1	1	23	volatile	2	20	3	vs	blue	red	blue	red	left	right	0.30000000000000004	0.7	6	2	1.8000000000000005	1.4	0	1	0.30000000000000004	0.7	6	2	1.8000000000000005	1.4	valid	0.5332054080008675	51200	0	0	1	51200	1	53248	0	51200	1	0.7	53248	red	blue	0	0	ml	2.7.3	bip	sub-13_ses-01_task-ml_proj-bip_2021-01-13-10-33-01.715389
23	13	1	1	24	volatile	2	20	4	vs	red	blue	blue	red	right	left	0.30000000000000004	0.7	4	6	1.2000000000000002	4.199999999999998	0	1	0.7	0.30000000000000004	6	4	4.199999999999998	1.2000000000000002	valid	0.5165488769998774	51200	0	0	2	51200	1	51200	1	51200	1	0.7	51200	red	blue	1	6	ml	2.7.3	bip	sub-13_ses-01_task-ml_proj-bip_2021-01-13-10-33-01.715389
24	13	1	1	25	volatile	2	20	5	vs	red	blue	blue	red	right	left	0.30000000000000004	0.7	6	4	1.8000000000000005	2.8	0	1	0.7	0.30000000000000004	4	6	2.8	1.8000000000000005	valid	0.566540473000714	53248	0	1	1	51200	0	51200	0	53248	1	0.7	51200	red	blue	0	0	ml	2.7.3	bip	sub-13_ses-01_task-ml_proj-bip_2021-01-13-10-33-01.715389
25	13	1	1	26	volatile	2	20	6	vs	blue	red	blue	red	left	right	0.30000000000000004	0.7	2	2	0.6000000000000001	1.4	0	1	0.30000000000000004	0.7	2	2	0.6000000000000001	1.4	valid	0.7664844310002081	53248	0	1	2	53248	1	53248	1	53248	1	0.7	53248	red	blue	0	2	ml	2.7.3	bip	sub-13_ses-01_task-ml_proj-bip_2021-01-13-10-33-01.715389
26	13	1	1	27	volatile	2	20	7	vs	blue	red	blue	red	left	right	0.30000000000000004	0.7	10	2	3.0000000000000004	1.4	0	1	0.30000000000000004	0.7	10	2	3.0000000000000004	1.4	valid	0.7997939750002843	51200	0	0	1	51200	1	53248	0	51200	1	0.7	53248	red	blue	0	0	ml	2.7.3	bip	sub-13_ses-01_task-ml_proj-bip_2021-01-13-10-33-01.715389
27	13	1	1	28	volatile	2	20	8	vs	red	blue	blue	red	right	left	0.30000000000000004	0.7	6	2	1.8000000000000005	1.4	0	1	0.7	0.30000000000000004	2	6	1.4	1.8000000000000005	valid	0.5998640350007918	53248	0	1	1	53248	1	51200	0	53248	1	0.7	51200	red	blue	0	0	ml	2.7.3	bip	sub-13_ses-01_task-ml_proj-bip_2021-01-13-10-33-01.715389
28	13	1	1	29	volatile	2	20	9	vs	blue	red	blue	red	left	right	0.30000000000000004	0.7	6	4	1.8000000000000005	2.8	0	1	0.30000000000000004	0.7	6	4	1.8000000000000005	2.8	valid	0.6498500369998511	53248	0	1	2	53248	1	53248	1	51200	0	0.7	53248	red	blue	0	4	ml	2.7.3	bip	sub-13_ses-01_task-ml_proj-bip_2021-01-13-10-33-01.715389
29	13	1	1	30	volatile	2	20	10	vs	blue	red	blue	red	left	right	0.30000000000000004	0.7	6	6	1.8000000000000005	4.199999999999998	0	1	0.30000000000000004	0.7	6	6	1.8000000000000005	4.199999999999998	valid	0.5332156760014186	53248	0	1	2	53248	1	53248	1	53248	1	0.7	53248	red	blue	0	6	ml	2.7.3	bip	sub-13_ses-01_task-ml_proj-bip_2021-01-13-10-33-01.715389
30	13	1	1	31	volatile	2	20	11	vs	red	blue	blue	red	right	left	0.30000000000000004	0.7	6	4	1.8000000000000005	2.8	0	1	0.7	0.30000000000000004	4	6	2.8	1.8000000000000005	valid	0.5332045569994079	51200	0	0	2	51200	1	51200	1	53248	0	0.7	51200	red	blue	0	4	ml	2.7.3	bip	sub-13_ses-01_task-ml_proj-bip_2021-01-13-10-33-01.715389
31	13	1	1	32	volatile	2	20	12	vs	red	blue	blue	red	right	left	0.30000000000000004	0.7	6	6	1.8000000000000005	4.199999999999998	0	1	0.7	0.30000000000000004	6	6	4.199999999999998	1.8000000000000005	valid	0.4832184759998199	51200	0	0	2	51200	1	51200	1	53248	0	0.7	51200	red	blue	1	6	ml	2.7.3	bip	sub-13_ses-01_task-ml_proj-bip_2021-01-13-10-33-01.715389
32	13	1	1	33	volatile	2	20	13	vs	red	blue	blue	red	right	left	0.30000000000000004	0.7	2	2	0.6000000000000001	1.4	1	0	0.7	0.30000000000000004	2	2	1.4	0.6000000000000001	invalid	0.5998460220016568	51200	0	0	2	51200	1	51200	1	53248	0	0.7	51200	red	blue	1	0	ml	2.7.3	bip	sub-13_ses-01_task-ml_proj-bip_2021-01-13-10-33-01.715389
33	13	1	1	34	volatile	2	20	14	vs	red	blue	blue	red	right	left	0.30000000000000004	0.7	2	4	0.6000000000000001	2.8	1	0	0.7	0.30000000000000004	4	2	2.8	0.6000000000000001	invalid	0.7331568420013355	53248	0	1	1	51200	0	51200	0	51200	0	0.7	51200	red	blue	1	2	ml	2.7.3	bip	sub-13_ses-01_task-ml_proj-bip_2021-01-13-10-33-01.715389
34	13	1	1	35	volatile	2	20	15	vs	red	blue	blue	red	right	left	0.30000000000000004	0.7	10	2	3.0000000000000004	1.4	1	0	0.7	0.30000000000000004	2	10	1.4	3.0000000000000004	invalid	0.4665639380000357	53248	0	1	1	53248	1	51200	0	53248	1	0.7	51200	red	blue	0	10	ml	2.7.3	bip	sub-13_ses-01_task-ml_proj-bip_2021-01-13-10-33-01.715389
35	13	1	1	36	volatile	2	20	16	vs	blue	red	blue	red	left	right	0.30000000000000004	0.7	2	6	0.6000000000000001	4.199999999999998	1	0	0.30000000000000004	0.7	2	6	0.6000000000000001	4.199999999999998	invalid	0.6665034519992332	51200	0	0	1	53248	0	53248	0	53248	0	0.7	53248	red	blue	1	2	ml	2.7.3	bip	sub-13_ses-01_task-ml_proj-bip_2021-01-13-10-33-01.715389
36	13	1	1	37	volatile	2	20	17	vs	blue	red	blue	red	left	right	0.30000000000000004	0.7	10	2	3.0000000000000004	1.4	0	1	0.30000000000000004	0.7	10	2	3.0000000000000004	1.4	valid	0.5498659989989392	51200	0	0	1	51200	1	53248	0	51200	1	0.7	53248	red	blue	0	0	ml	2.7.3	bip	sub-13_ses-01_task-ml_proj-bip_2021-01-13-10-33-01.715389
37	13	1	1	38	volatile	2	20	18	vs	red	blue	blue	red	right	left	0.30000000000000004	0.7	4	2	1.2000000000000002	1.4	0	1	0.7	0.30000000000000004	2	4	1.4	1.2000000000000002	valid	0.5332120610000857	53248	0	1	1	51200	0	51200	0	53248	1	0.7	51200	red	blue	0	0	ml	2.7.3	bip	sub-13_ses-01_task-ml_proj-bip_2021-01-13-10-33-01.715389
38	13	1	1	39	volatile	2	20	19	vs	blue	red	blue	red	left	right	0.30000000000000004	0.7	4	2	1.2000000000000002	1.4	1	0	0.30000000000000004	0.7	4	2	1.2000000000000002	1.4	invalid	0.6498482990009506	53248	0	1	2	53248	1	53248	1	51200	0	0.7	53248	red	blue	0	0	ml	2.7.3	bip	sub-13_ses-01_task-ml_proj-bip_2021-01-13-10-33-01.715389
39	13	1	1	40	volatile	2	20	20	vs	blue	red	blue	red	left	right	0.30000000000000004	0.7	2	10	0.6000000000000001	7.0	1	0	0.30000000000000004	0.7	2	10	0.6000000000000001	7.0	invalid	0.44991234299959615	53248	0	1	2	53248	1	53248	1	53248	1	0.7	53248	red	blue	1	0	ml	2.7.3	bip	sub-13_ses-01_task-ml_proj-bip_2021-01-13-10-33-01.715389
40	13	1	1	41	volatile	3	40	1	vs	blue	red	blue	red	left	right	0.7	0.30000000000000004	2	2	1.4	0.6000000000000001	0	1	0.7	0.30000000000000004	2	2	1.4	0.6000000000000001	invalid	0.5332153859999379	53248	0	1	2	51200	0	51200	0	53248	1	0.7	51200	blue	red	1	2	ml	2.7.3	bip	sub-13_ses-01_task-ml_proj-bip_2021-01-13-10-33-01.715389
41	13	1	1	42	volatile	3	40	2	vs	red	blue	blue	red	right	left	0.7	0.30000000000000004	2	6	1.4	1.8000000000000005	0	1	0.30000000000000004	0.7	6	2	1.8000000000000005	1.4	invalid	0.4165646340006788	51200	0	0	2	51200	1	53248	0	51200	1	0.7	53248	blue	red	0	6	ml	2.7.3	bip	sub-13_ses-01_task-ml_proj-bip_2021-01-13-10-33-01.715389
42	13	1	1	43	volatile	3	40	3	vs	red	blue	blue	red	right	left	0.7	0.30000000000000004	6	4	4.199999999999998	1.2000000000000002	1	0	0.30000000000000004	0.7	4	6	1.2000000000000002	4.199999999999998	valid	0.7165007809999224	53248	0	1	1	53248	1	53248	1	53248	1	0.7	53248	blue	red	1	6	ml	2.7.3	bip	sub-13_ses-01_task-ml_proj-bip_2021-01-13-10-33-01.715389
43	13	1	1	44	volatile	3	40	4	vs	blue	red	blue	red	left	right	0.7	0.30000000000000004	10	2	7.0	0.6000000000000001	1	0	0.7	0.30000000000000004	10	2	7.0	0.6000000000000001	valid	0.5165425489994959	51200	0	0	1	51200	1	51200	1	51200	1	0.7	51200	blue	red	1	10	ml	2.7.3	bip	sub-13_ses-01_task-ml_proj-bip_2021-01-13-10-33-01.715389
44	13	1	1	45	volatile	3	40	5	vs	blue	red	blue	red	left	right	0.7	0.30000000000000004	10	2	7.0	0.6000000000000001	1	0	0.7	0.30000000000000004	10	2	7.0	0.6000000000000001	valid	0.3999128790001123	51200	0	0	1	51200	1	51200	1	51200	1	0.7	51200	blue	red	1	10	ml	2.7.3	bip	sub-13_ses-01_task-ml_proj-bip_2021-01-13-10-33-01.715389
45	13	1	1	46	volatile	3	40	6	vs	blue	red	blue	red	left	right	0.7	0.30000000000000004	6	4	4.199999999999998	1.2000000000000002	0	1	0.7	0.30000000000000004	6	4	4.199999999999998	1.2000000000000002	invalid	0.4165723420010181	51200	0	0	1	51200	1	51200	1	51200	1	0.7	51200	blue	red	1	0	ml	2.7.3	bip	sub-13_ses-01_task-ml_proj-bip_2021-01-13-10-33-01.715389
46	13	1	1	47	volatile	3	40	7	vs	blue	red	blue	red	left	right	0.7	0.30000000000000004	10	2	7.0	0.6000000000000001	1	0	0.7	0.30000000000000004	10	2	7.0	0.6000000000000001	valid	0.4332355739988998	51200	0	0	1	51200	1	51200	1	51200	1	0.7	51200	blue	red	1	10	ml	2.7.3	bip	sub-13_ses-01_task-ml_proj-bip_2021-01-13-10-33-01.715389
47	13	1	1	48	volatile	3	40	8	vs	red	blue	blue	red	right	left	0.7	0.30000000000000004	2	4	1.4	1.2000000000000002	1	0	0.30000000000000004	0.7	4	2	1.2000000000000002	1.4	valid	0.4832301149999694	53248	0	1	1	53248	1	53248	1	51200	0	0.7	53248	blue	red	0	2	ml	2.7.3	bip	sub-13_ses-01_task-ml_proj-bip_2021-01-13-10-33-01.715389
48	13	1	1	49	volatile	3	40	9	vs	red	blue	blue	red	right	left	0.7	0.30000000000000004	2	2	1.4	0.6000000000000001	1	0	0.30000000000000004	0.7	2	2	0.6000000000000001	1.4	valid	0.5332163639995997	53248	0	1	1	53248	1	53248	1	53248	1	0.7	53248	blue	red	0	2	ml	2.7.3	bip	sub-13_ses-01_task-ml_proj-bip_2021-01-13-10-33-01.715389
49	13	1	1	50	volatile	3	40	10	vs	blue	red	blue	red	left	right	0.7	0.30000000000000004	6	6	4.199999999999998	1.8000000000000005	1	0	0.7	0.30000000000000004	6	6	4.199999999999998	1.8000000000000005	valid	0.3999107109993929	51200	0	0	1	51200	1	51200	1	53248	0	0.7	51200	blue	red	1	6	ml	2.7.3	bip	sub-13_ses-01_task-ml_proj-bip_2021-01-13-10-33-01.715389
50	13	1	2	51	volatile	3	40	11	vs	red	blue	blue	red	right	left	0.7	0.30000000000000004	6	6	4.199999999999998	1.8000000000000005	1	0	0.30000000000000004	0.7	6	6	1.8000000000000005	4.199999999999998	valid	0.9497594530002972	51200	0	0	2	53248	0	53248	0	53248	0	0.7	53248	blue	red	0	0	ml	2.7.3	bip	sub-13_ses-01_task-ml_proj-bip_2021-01-13-10-33-01.715389
51	13	1	2	52	volatile	3	40	12	vs	blue	red	blue	red	left	right	0.7	0.30000000000000004	4	2	2.8	0.6000000000000001	1	0	0.7	0.30000000000000004	4	2	2.8	0.6000000000000001	valid	0.8331292559996655	53248	0	1	2	51200	0	51200	0	51200	0	0.7	51200	blue	red	1	0	ml	2.7.3	bip	sub-13_ses-01_task-ml_proj-bip_2021-01-13-10-33-01.715389
52	13	1	2	53	volatile	3	40	13	vs	blue	red	blue	red	left	right	0.7	0.30000000000000004	2	4	1.4	1.2000000000000002	0	1	0.7	0.30000000000000004	2	4	1.4	1.2000000000000002	invalid	0.6498360599998705	51200	0	0	1	51200	1	51200	1	53248	0	0.7	51200	blue	red	0	0	ml	2.7.3	bip	sub-13_ses-01_task-ml_proj-bip_2021-01-13-10-33-01.715389
53	13	1	2	54	volatile	3	40	14	vs	red	blue	blue	red	right	left	0.7	0.30000000000000004	10	2	7.0	0.6000000000000001	0	1	0.30000000000000004	0.7	2	10	0.6000000000000001	7.0	invalid	0.4332392220003385	53248	0	1	1	53248	1	53248	1	53248	1	0.7	53248	blue	red	1	0	ml	2.7.3	bip	sub-13_ses-01_task-ml_proj-bip_2021-01-13-10-33-01.715389
54	13	1	2	55	volatile	3	40	15	vs	red	blue	blue	red	right	left	0.7	0.30000000000000004	2	4	1.4	1.2000000000000002	1	0	0.30000000000000004	0.7	4	2	1.2000000000000002	1.4	valid	0.8331146780001291	51200	0	0	2	53248	0	53248	0	51200	1	0.7	53248	blue	red	0	0	ml	2.7.3	bip	sub-13_ses-01_task-ml_proj-bip_2021-01-13-10-33-01.715389
55	13	1	2	56	volatile	3	40	16	vs	red	blue	blue	red	right	left	0.7	0.30000000000000004	6	2	4.199999999999998	0.6000000000000001	0	1	0.30000000000000004	0.7	2	6	0.6000000000000001	4.199999999999998	invalid	0.4499073299994052	53248	0	1	1	53248	1	53248	1	53248	1	0.7	53248	blue	red	1	0	ml	2.7.3	bip	sub-13_ses-01_task-ml_proj-bip_2021-01-13-10-33-01.715389
56	13	1	2	57	volatile	3	40	17	vs	blue	red	blue	red	left	right	0.7	0.30000000000000004	6	4	4.199999999999998	1.2000000000000002	1	0	0.7	0.30000000000000004	6	4	4.199999999999998	1.2000000000000002	valid	0.39991066600123293	51200	0	0	1	51200	1	51200	1	51200	1	0.7	51200	blue	red	1	6	ml	2.7.3	bip	sub-13_ses-01_task-ml_proj-bip_2021-01-13-10-33-01.715389
57	13	1	2	58	volatile	3	40	18	vs	red	blue	blue	red	right	left	0.7	0.30000000000000004	4	6	2.8	1.8000000000000005	1	0	0.30000000000000004	0.7	6	4	1.8000000000000005	2.8	valid	0.5165420190005534	51200	0	0	2	53248	0	53248	0	51200	1	0.7	53248	blue	red	0	0	ml	2.7.3	bip	sub-13_ses-01_task-ml_proj-bip_2021-01-13-10-33-01.715389
58	13	1	2	59	volatile	3	40	19	vs	blue	red	blue	red	left	right	0.7	0.30000000000000004	10	2	7.0	0.6000000000000001	0	1	0.7	0.30000000000000004	10	2	7.0	0.6000000000000001	invalid	0.43323124299968185	51200	0	0	1	51200	1	51200	1	51200	1	0.7	51200	blue	red	1	0	ml	2.7.3	bip	sub-13_ses-01_task-ml_proj-bip_2021-01-13-10-33-01.715389
59	13	1	2	60	volatile	3	40	20	vs	blue	red	blue	red	left	right	0.7	0.30000000000000004	2	10	1.4	3.0000000000000004	1	0	0.7	0.30000000000000004	2	10	1.4	3.0000000000000004	valid	0.4998939729994163	53248	0	1	2	53248	1	51200	0	53248	1	0.7	51200	blue	red	0	0	ml	2.7.3	bip	sub-13_ses-01_task-ml_proj-bip_2021-01-13-10-33-01.715389
60	13	1	2	61	volatile	3	40	21	vs	blue	red	blue	red	left	right	0.7	0.30000000000000004	2	2	1.4	0.6000000000000001	1	0	0.7	0.30000000000000004	2	2	1.4	0.6000000000000001	valid	0.7164964160001546	53248	0	1	2	51200	0	51200	0	53248	1	0.7	51200	blue	red	1	0	ml	2.7.3	bip	sub-13_ses-01_task-ml_proj-bip_2021-01-13-10-33-01.715389
61	13	1	2	62	volatile	3	40	22	vs	red	blue	blue	red	right	left	0.7	0.30000000000000004	2	4	1.4	1.2000000000000002	1	0	0.30000000000000004	0.7	4	2	1.2000000000000002	1.4	valid	0.6831662690001394	53248	0	1	1	53248	1	53248	1	51200	0	0.7	53248	blue	red	0	2	ml	2.7.3	bip	sub-13_ses-01_task-ml_proj-bip_2021-01-13-10-33-01.715389
62	13	1	2	63	volatile	3	40	23	vs	red	blue	blue	red	right	left	0.7	0.30000000000000004	2	6	1.4	1.8000000000000005	1	0	0.30000000000000004	0.7	6	2	1.8000000000000005	1.4	valid	0.4832402960000763	53248	0	1	1	51200	0	53248	1	51200	0	0.7	53248	blue	red	0	2	ml	2.7.3	bip	sub-13_ses-01_task-ml_proj-bip_2021-01-13-10-33-01.715389
63	13	1	2	64	volatile	3	40	24	vs	blue	red	blue	red	left	right	0.7	0.30000000000000004	6	2	4.199999999999998	0.6000000000000001	0	1	0.7	0.30000000000000004	6	2	4.199999999999998	0.6000000000000001	invalid	0.4332348340012686	51200	0	0	1	51200	1	51200	1	51200	1	0.7	51200	blue	red	1	0	ml	2.7.3	bip	sub-13_ses-01_task-ml_proj-bip_2021-01-13-10-33-01.715389
64	13	1	2	65	volatile	3	40	25	vs	red	blue	blue	red	right	left	0.7	0.30000000000000004	6	4	4.199999999999998	1.2000000000000002	0	1	0.30000000000000004	0.7	4	6	1.2000000000000002	4.199999999999998	invalid	0.5165534900006605	53248	0	1	1	53248	1	53248	1	53248	1	0.7	53248	blue	red	1	0	ml	2.7.3	bip	sub-13_ses-01_task-ml_proj-bip_2021-01-13-10-33-01.715389
65	13	1	2	66	volatile	3	40	26	vs	red	blue	blue	red	right	left	0.7	0.30000000000000004	6	4	4.199999999999998	1.2000000000000002	0	1	0.30000000000000004	0.7	4	6	1.2000000000000002	4.199999999999998	invalid	0.8164556430001539	51200	0	0	2	53248	0	53248	0	53248	0	0.7	53248	blue	red	1	4	ml	2.7.3	bip	sub-13_ses-01_task-ml_proj-bip_2021-01-13-10-33-01.715389
66	13	1	2	67	volatile	3	40	27	vs	red	blue	blue	red	right	left	0.7	0.30000000000000004	6	6	4.199999999999998	1.8000000000000005	1	0	0.30000000000000004	0.7	6	6	1.8000000000000005	4.199999999999998	valid	0.41657188499993936	51200	0	0	2	53248	0	53248	0	53248	0	0.7	53248	blue	red	0	0	ml	2.7.3	bip	sub-13_ses-01_task-ml_proj-bip_2021-01-13-10-33-01.715389
67	13	1	2	68	volatile	3	40	28	vs	red	blue	blue	red	right	left	0.7	0.30000000000000004	6	2	4.199999999999998	0.6000000000000001	1	0	0.30000000000000004	0.7	2	6	0.6000000000000001	4.199999999999998	valid	0.4832330890003505	53248	0	1	1	53248	1	53248	1	53248	1	0.7	53248	blue	red	1	6	ml	2.7.3	bip	sub-13_ses-01_task-ml_proj-bip_2021-01-13-10-33-01.715389
68	13	1	2	69	volatile	3	40	29	vs	blue	red	blue	red	left	right	0.7	0.30000000000000004	6	4	4.199999999999998	1.2000000000000002	1	0	0.7	0.30000000000000004	6	4	4.199999999999998	1.2000000000000002	valid	0.44989085099950893	51200	0	0	1	51200	1	51200	1	51200	1	0.7	51200	blue	red	1	6	ml	2.7.3	bip	sub-13_ses-01_task-ml_proj-bip_2021-01-13-10-33-01.715389
69	13	1	2	70	volatile	3	40	30	vs	blue	red	blue	red	left	right	0.7	0.30000000000000004	6	6	4.199999999999998	1.8000000000000005	1	0	0.7	0.30000000000000004	6	6	4.199999999999998	1.8000000000000005	valid	0.6831632550001814	51200	0	0	1	51200	1	51200	1	53248	0	0.7	51200	blue	red	1	6	ml	2.7.3	bip	sub-13_ses-01_task-ml_proj-bip_2021-01-13-10-33-01.715389
70	13	1	2	71	volatile	3	40	31	vs	red	blue	blue	red	right	left	0.7	0.30000000000000004	6	2	4.199999999999998	0.6000000000000001	1	0	0.30000000000000004	0.7	2	6	0.6000000000000001	4.199999999999998	valid	0.4165829890007444	53248	0	1	1	53248	1	53248	1	53248	1	0.7	53248	blue	red	1	6	ml	2.7.3	bip	sub-13_ses-01_task-ml_proj-bip_2021-01-13-10-33-01.715389
71	13	1	2	72	volatile	3	40	32	vs	red	blue	blue	red	right	left	0.7	0.30000000000000004	10	2	7.0	0.6000000000000001	1	0	0.30000000000000004	0.7	2	10	0.6000000000000001	7.0	valid	0.4499008549992141	53248	0	1	1	53248	1	53248	1	53248	1	0.7	53248	blue	red	1	10	ml	2.7.3	bip	sub-13_ses-01_task-ml_proj-bip_2021-01-13-10-33-01.715389
72	13	1	2	73	volatile	3	40	33	vs	red	blue	blue	red	right	left	0.7	0.30000000000000004	10	2	7.0	0.6000000000000001	1	0	0.30000000000000004	0.7	2	10	0.6000000000000001	7.0	valid	0.4165837409982487	53248	0	1	1	53248	1	53248	1	53248	1	0.7	53248	blue	red	1	10	ml	2.7.3	bip	sub-13_ses-01_task-ml_proj-bip_2021-01-13-10-33-01.715389
73	13	1	2	74	volatile	3	40	34	vs	blue	red	blue	red	left	right	0.7	0.30000000000000004	2	6	1.4	1.8000000000000005	0	1	0.7	0.30000000000000004	2	6	1.4	1.8000000000000005	invalid	0.549866714000018	51200	0	0	1	53248	0	51200	1	53248	0	0.7	51200	blue	red	0	0	ml	2.7.3	bip	sub-13_ses-01_task-ml_proj-bip_2021-01-13-10-33-01.715389
74	13	1	2	75	volatile	3	40	35	vs	red	blue	blue	red	right	left	0.7	0.30000000000000004	4	2	2.8	0.6000000000000001	0	1	0.30000000000000004	0.7	2	4	0.6000000000000001	2.8	invalid	0.683177210001304	53248	0	1	1	53248	1	53248	1	53248	1	0.7	53248	blue	red	1	0	ml	2.7.3	bip	sub-13_ses-01_task-ml_proj-bip_2021-01-13-10-33-01.715389
75	13	1	2	76	volatile	3	40	36	vs	blue	red	blue	red	left	right	0.7	0.30000000000000004	2	4	1.4	1.2000000000000002	1	0	0.7	0.30000000000000004	2	4	1.4	1.2000000000000002	valid	0.3832713949996105	53248	0	1	2	51200	0	51200	0	53248	1	0.7	51200	blue	red	0	0	ml	2.7.3	bip	sub-13_ses-01_task-ml_proj-bip_2021-01-13-10-33-01.715389
76	13	1	2	77	volatile	3	40	37	vs	blue	red	blue	red	left	right	0.7	0.30000000000000004	2	4	1.4	1.2000000000000002	1	0	0.7	0.30000000000000004	2	4	1.4	1.2000000000000002	valid	0.566535838001073	53248	0	1	2	51200	0	51200	0	53248	1	0.7	51200	blue	red	0	0	ml	2.7.3	bip	sub-13_ses-01_task-ml_proj-bip_2021-01-13-10-33-01.715389
77	13	1	2	78	volatile	3	40	38	vs	red	blue	blue	red	right	left	0.7	0.30000000000000004	6	4	4.199999999999998	1.2000000000000002	1	0	0.30000000000000004	0.7	4	6	1.2000000000000002	4.199999999999998	valid	0.4499046229993837	53248	0	1	1	53248	1	53248	1	53248	1	0.7	53248	blue	red	1	6	ml	2.7.3	bip	sub-13_ses-01_task-ml_proj-bip_2021-01-13-10-33-01.715389
78	13	1	2	79	volatile	3	40	39	vs	blue	red	blue	red	left	right	0.7	0.30000000000000004	2	2	1.4	0.6000000000000001	1	0	0.7	0.30000000000000004	2	2	1.4	0.6000000000000001	valid	0.7498110090000409	51200	0	0	1	51200	1	51200	1	53248	0	0.7	51200	blue	red	1	2	ml	2.7.3	bip	sub-13_ses-01_task-ml_proj-bip_2021-01-13-10-33-01.715389
79	13	1	2	80	volatile	3	40	40	vs	blue	red	blue	red	left	right	0.7	0.30000000000000004	6	2	4.199999999999998	0.6000000000000001	1	0	0.7	0.30000000000000004	6	2	4.199999999999998	0.6000000000000001	valid	0.3999072759997944	51200	0	0	1	51200	1	51200	1	51200	1	0.7	51200	blue	red	1	6	ml	2.7.3	bip	sub-13_ses-01_task-ml_proj-bip_2021-01-13-10-33-01.715389
80	13	1	2	81	volatile	4	40	1	vs	red	blue	blue	red	right	left	0.30000000000000004	0.7	10	2	3.0000000000000004	1.4	1	0	0.7	0.30000000000000004	2	10	1.4	3.0000000000000004	invalid	0.4499009869996371	53248	0	1	1	53248	1	51200	0	53248	1	0.7	51200	red	blue	0	10	ml	2.7.3	bip	sub-13_ses-01_task-ml_proj-bip_2021-01-13-10-33-01.715389
81	13	1	2	82	volatile	4	40	2	vs	red	blue	blue	red	right	left	0.30000000000000004	0.7	2	4	0.6000000000000001	2.8	0	1	0.7	0.30000000000000004	4	2	2.8	0.6000000000000001	valid	0.6665073490003124	53248	0	1	1	51200	0	51200	0	51200	0	0.7	51200	red	blue	1	0	ml	2.7.3	bip	sub-13_ses-01_task-ml_proj-bip_2021-01-13-10-33-01.715389
82	13	1	2	83	volatile	4	40	3	vs	red	blue	blue	red	right	left	0.30000000000000004	0.7	2	4	0.6000000000000001	2.8	0	1	0.7	0.30000000000000004	4	2	2.8	0.6000000000000001	valid	0.4998722159998578	51200	0	0	2	51200	1	51200	1	51200	1	0.7	51200	red	blue	1	4	ml	2.7.3	bip	sub-13_ses-01_task-ml_proj-bip_2021-01-13-10-33-01.715389
83	13	1	2	84	volatile	4	40	4	vs	blue	red	blue	red	left	right	0.30000000000000004	0.7	2	6	0.6000000000000001	4.199999999999998	0	1	0.30000000000000004	0.7	2	6	0.6000000000000001	4.199999999999998	valid	0.4998961460005376	53248	0	1	2	53248	1	53248	1	53248	1	0.7	53248	red	blue	1	6	ml	2.7.3	bip	sub-13_ses-01_task-ml_proj-bip_2021-01-13-10-33-01.715389
84	13	1	2	85	volatile	4	40	5	vs	blue	red	blue	red	left	right	0.30000000000000004	0.7	6	4	1.8000000000000005	2.8	0	1	0.30000000000000004	0.7	6	4	1.8000000000000005	2.8	valid	0.8997762140006671	53248	0	1	2	53248	1	53248	1	51200	0	0.7	53248	red	blue	0	4	ml	2.7.3	bip	sub-13_ses-01_task-ml_proj-bip_2021-01-13-10-33-01.715389
85	13	1	2	86	volatile	4	40	6	vs	blue	red	blue	red	left	right	0.30000000000000004	0.7	2	4	0.6000000000000001	2.8	0	1	0.30000000000000004	0.7	2	4	0.6000000000000001	2.8	valid	0.4998920479993103	53248	0	1	2	53248	1	53248	1	53248	1	0.7	53248	red	blue	1	4	ml	2.7.3	bip	sub-13_ses-01_task-ml_proj-bip_2021-01-13-10-33-01.715389
86	13	1	2	87	volatile	4	40	7	vs	red	blue	blue	red	right	left	0.30000000000000004	0.7	2	6	0.6000000000000001	4.199999999999998	1	0	0.7	0.30000000000000004	6	2	4.199999999999998	0.6000000000000001	invalid	0.5498671089990239	51200	0	0	2	51200	1	51200	1	51200	1	0.7	51200	red	blue	1	0	ml	2.7.3	bip	sub-13_ses-01_task-ml_proj-bip_2021-01-13-10-33-01.715389
87	13	1	2	88	volatile	4	40	8	vs	blue	red	blue	red	left	right	0.30000000000000004	0.7	2	6	0.6000000000000001	4.199999999999998	1	0	0.30000000000000004	0.7	2	6	0.6000000000000001	4.199999999999998	invalid	0.34993734900126583	53248	0	1	2	53248	1	53248	1	53248	1	0.7	53248	red	blue	1	0	ml	2.7.3	bip	sub-13_ses-01_task-ml_proj-bip_2021-01-13-10-33-01.715389
88	13	1	2	89	volatile	4	40	9	vs	blue	red	blue	red	left	right	0.30000000000000004	0.7	2	2	0.6000000000000001	1.4	0	1	0.30000000000000004	0.7	2	2	0.6000000000000001	1.4	valid	0.3999100969995197	51200	0	0	1	53248	0	53248	0	53248	0	0.7	53248	red	blue	0	0	ml	2.7.3	bip	sub-13_ses-01_task-ml_proj-bip_2021-01-13-10-33-01.715389
89	13	1	2	90	volatile	4	40	10	vs	blue	red	blue	red	left	right	0.30000000000000004	0.7	10	2	3.0000000000000004	1.4	0	1	0.30000000000000004	0.7	10	2	3.0000000000000004	1.4	valid	0.5165481849999196	51200	0	0	1	51200	1	53248	0	51200	1	0.7	53248	red	blue	0	0	ml	2.7.3	bip	sub-13_ses-01_task-ml_proj-bip_2021-01-13-10-33-01.715389
90	13	1	2	91	volatile	4	40	11	vs	blue	red	blue	red	left	right	0.30000000000000004	0.7	6	4	1.8000000000000005	2.8	0	1	0.30000000000000004	0.7	6	4	1.8000000000000005	2.8	valid	0.5165527560002374	53248	0	1	2	53248	1	53248	1	51200	0	0.7	53248	red	blue	0	4	ml	2.7.3	bip	sub-13_ses-01_task-ml_proj-bip_2021-01-13-10-33-01.715389
91	13	1	2	92	volatile	4	40	12	vs	blue	red	blue	red	left	right	0.30000000000000004	0.7	2	6	0.6000000000000001	4.199999999999998	0	1	0.30000000000000004	0.7	2	6	0.6000000000000001	4.199999999999998	valid	0.4165810680005961	53248	0	1	2	53248	1	53248	1	53248	1	0.7	53248	red	blue	1	6	ml	2.7.3	bip	sub-13_ses-01_task-ml_proj-bip_2021-01-13-10-33-01.715389
92	13	1	2	93	volatile	4	40	13	vs	red	blue	blue	red	right	left	0.30000000000000004	0.7	2	2	0.6000000000000001	1.4	0	1	0.7	0.30000000000000004	2	2	1.4	0.6000000000000001	valid	0.6498374109996803	51200	0	0	2	51200	1	51200	1	53248	0	0.7	51200	red	blue	1	2	ml	2.7.3	bip	sub-13_ses-01_task-ml_proj-bip_2021-01-13-10-33-01.715389
93	13	1	2	94	volatile	4	40	14	vs	red	blue	blue	red	right	left	0.30000000000000004	0.7	2	4	0.6000000000000001	2.8	0	1	0.7	0.30000000000000004	4	2	2.8	0.6000000000000001	valid	0.4998790339996049	51200	0	0	2	51200	1	51200	1	51200	1	0.7	51200	red	blue	1	4	ml	2.7.3	bip	sub-13_ses-01_task-ml_proj-bip_2021-01-13-10-33-01.715389
94	13	1	2	95	volatile	4	40	15	vs	red	blue	blue	red	right	left	0.30000000000000004	0.7	6	4	1.8000000000000005	2.8	1	0	0.7	0.30000000000000004	4	6	2.8	1.8000000000000005	invalid	0.6498456810004427	53248	0	1	1	51200	0	51200	0	53248	1	0.7	51200	red	blue	0	6	ml	2.7.3	bip	sub-13_ses-01_task-ml_proj-bip_2021-01-13-10-33-01.715389
95	13	1	2	96	volatile	4	40	16	vs	red	blue	blue	red	right	left	0.30000000000000004	0.7	2	4	0.6000000000000001	2.8	0	1	0.7	0.30000000000000004	4	2	2.8	0.6000000000000001	valid	0.633176519000699	51200	0	0	2	51200	1	51200	1	51200	1	0.7	51200	red	blue	1	4	ml	2.7.3	bip	sub-13_ses-01_task-ml_proj-bip_2021-01-13-10-33-01.715389
96	13	1	2	97	volatile	4	40	17	vs	blue	red	blue	red	left	right	0.30000000000000004	0.7	4	6	1.2000000000000002	4.199999999999998	0	1	0.30000000000000004	0.7	4	6	1.2000000000000002	4.199999999999998	valid	0.6831736710009864	53248	0	1	2	53248	1	53248	1	53248	1	0.7	53248	red	blue	1	6	ml	2.7.3	bip	sub-13_ses-01_task-ml_proj-bip_2021-01-13-10-33-01.715389
97	13	1	2	98	volatile	4	40	18	vs	red	blue	blue	red	right	left	0.30000000000000004	0.7	4	2	1.2000000000000002	1.4	0	1	0.7	0.30000000000000004	2	4	1.4	1.2000000000000002	valid	0.6998257230006857	51200	0	0	2	51200	1	51200	1	53248	0	0.7	51200	red	blue	0	2	ml	2.7.3	bip	sub-13_ses-01_task-ml_proj-bip_2021-01-13-10-33-01.715389
98	13	1	2	99	volatile	4	40	19	vs	blue	red	blue	red	left	right	0.30000000000000004	0.7	10	2	3.0000000000000004	1.4	0	1	0.30000000000000004	0.7	10	2	3.0000000000000004	1.4	valid	0.533204711999133	51200	0	0	1	51200	1	53248	0	51200	1	0.7	53248	red	blue	0	0	ml	2.7.3	bip	sub-13_ses-01_task-ml_proj-bip_2021-01-13-10-33-01.715389
99	13	1	2	100	volatile	4	40	20	vs	red	blue	blue	red	right	left	0.30000000000000004	0.7	4	6	1.2000000000000002	4.199999999999998	0	1	0.7	0.30000000000000004	6	4	4.199999999999998	1.2000000000000002	valid	0.6331772529993032	51200	0	0	2	51200	1	51200	1	51200	1	0.7	51200	red	blue	1	6	ml	2.7.3	bip	sub-13_ses-01_task-ml_proj-bip_2021-01-13-10-33-01.715389
100	13	1	3	101	volatile	4	40	21	vs	blue	red	blue	red	left	right	0.30000000000000004	0.7	6	6	1.8000000000000005	4.199999999999998	1	0	0.30000000000000004	0.7	6	6	1.8000000000000005	4.199999999999998	invalid	0.6165185919999203	53248	0	1	2	53248	1	53248	1	53248	1	0.7	53248	red	blue	0	0	ml	2.7.3	bip	sub-13_ses-01_task-ml_proj-bip_2021-01-13-10-33-01.715389
101	13	1	3	102	volatile	4	40	22	vs	blue	red	blue	red	left	right	0.30000000000000004	0.7	2	4	0.6000000000000001	2.8	1	0	0.30000000000000004	0.7	2	4	0.6000000000000001	2.8	invalid	0.849765002998538	51200	0	0	1	53248	0	53248	0	53248	0	0.7	53248	red	blue	1	2	ml	2.7.3	bip	sub-13_ses-01_task-ml_proj-bip_2021-01-13-10-33-01.715389
102	13	1	3	103	volatile	4	40	23	vs	red	blue	blue	red	right	left	0.30000000000000004	0.7	6	4	1.8000000000000005	2.8	0	1	0.7	0.30000000000000004	4	6	2.8	1.8000000000000005	valid	0.4665675739997823	53248	0	1	1	51200	0	51200	0	53248	1	0.7	51200	red	blue	0	0	ml	2.7.3	bip	sub-13_ses-01_task-ml_proj-bip_2021-01-13-10-33-01.715389
103	13	1	3	104	volatile	4	40	24	vs	red	blue	blue	red	right	left	0.30000000000000004	0.7	2	6	0.6000000000000001	4.199999999999998	1	0	0.7	0.30000000000000004	6	2	4.199999999999998	0.6000000000000001	invalid	0.43323278299976653	51200	0	0	2	51200	1	51200	1	51200	1	0.7	51200	red	blue	1	0	ml	2.7.3	bip	sub-13_ses-01_task-ml_proj-bip_2021-01-13-10-33-01.715389
104	13	1	3	105	volatile	4	40	25	vs	blue	red	blue	red	left	right	0.30000000000000004	0.7	2	10	0.6000000000000001	7.0	0	1	0.30000000000000004	0.7	2	10	0.6000000000000001	7.0	valid	0.6165246309992654	53248	0	1	2	53248	1	53248	1	53248	1	0.7	53248	red	blue	1	10	ml	2.7.3	bip	sub-13_ses-01_task-ml_proj-bip_2021-01-13-10-33-01.715389
105	13	1	3	106	volatile	4	40	26	vs	red	blue	blue	red	right	left	0.30000000000000004	0.7	4	6	1.2000000000000002	4.199999999999998	0	1	0.7	0.30000000000000004	6	4	4.199999999999998	1.2000000000000002	valid	0.4498959580014344	51200	0	0	2	51200	1	51200	1	51200	1	0.7	51200	red	blue	1	6	ml	2.7.3	bip	sub-13_ses-01_task-ml_proj-bip_2021-01-13-10-33-01.715389
106	13	1	3	107	volatile	4	40	27	vs	red	blue	blue	red	right	left	0.30000000000000004	0.7	6	2	1.8000000000000005	1.4	0	1	0.7	0.30000000000000004	2	6	1.4	1.8000000000000005	valid	0.6331862940005522	53248	0	1	1	53248	1	51200	0	53248	1	0.7	51200	red	blue	0	0	ml	2.7.3	bip	sub-13_ses-01_task-ml_proj-bip_2021-01-13-10-33-01.715389
107	13	1	3	108	volatile	4	40	28	vs	red	blue	blue	red	right	left	0.30000000000000004	0.7	10	2	3.0000000000000004	1.4	1	0	0.7	0.30000000000000004	2	10	1.4	3.0000000000000004	invalid	0.4998901979997754	53248	0	1	1	53248	1	51200	0	53248	1	0.7	51200	red	blue	0	10	ml	2.7.3	bip	sub-13_ses-01_task-ml_proj-bip_2021-01-13-10-33-01.715389
108	13	1	3	109	volatile	4	40	29	vs	blue	red	blue	red	left	right	0.30000000000000004	0.7	6	6	1.8000000000000005	4.199999999999998	1	0	0.30000000000000004	0.7	6	6	1.8000000000000005	4.199999999999998	invalid	0.6498363980008435	51200	0	0	1	53248	0	53248	0	53248	0	0.7	53248	red	blue	0	6	ml	2.7.3	bip	sub-13_ses-01_task-ml_proj-bip_2021-01-13-10-33-01.715389
109	13	1	3	110	volatile	4	40	30	vs	blue	red	blue	red	left	right	0.30000000000000004	0.7	6	6	1.8000000000000005	4.199999999999998	0	1	0.30000000000000004	0.7	6	6	1.8000000000000005	4.199999999999998	valid	0.4165718459989876	51200	0	0	1	53248	0	53248	0	53248	0	0.7	53248	red	blue	0	0	ml	2.7.3	bip	sub-13_ses-01_task-ml_proj-bip_2021-01-13-10-33-01.715389
110	13	1	3	111	volatile	4	40	31	vs	blue	red	blue	red	left	right	0.30000000000000004	0.7	2	10	0.6000000000000001	7.0	1	0	0.30000000000000004	0.7	2	10	0.6000000000000001	7.0	invalid	0.6831730720004998	53248	0	1	2	53248	1	53248	1	53248	1	0.7	53248	red	blue	1	0	ml	2.7.3	bip	sub-13_ses-01_task-ml_proj-bip_2021-01-13-10-33-01.715389
111	13	1	3	112	volatile	4	40	32	vs	red	blue	blue	red	right	left	0.30000000000000004	0.7	2	2	0.6000000000000001	1.4	0	1	0.7	0.30000000000000004	2	2	1.4	0.6000000000000001	valid	0.9664131769986852	51200	0	0	2	51200	1	51200	1	53248	0	0.7	51200	red	blue	1	2	ml	2.7.3	bip	sub-13_ses-01_task-ml_proj-bip_2021-01-13-10-33-01.715389
112	13	1	3	113	volatile	4	40	33	vs	blue	red	blue	red	left	right	0.30000000000000004	0.7	6	6	1.8000000000000005	4.199999999999998	0	1	0.30000000000000004	0.7	6	6	1.8000000000000005	4.199999999999998	valid	0.4332446690004872	53248	0	1	2	53248	1	53248	1	53248	1	0.7	53248	red	blue	0	6	ml	2.7.3	bip	sub-13_ses-01_task-ml_proj-bip_2021-01-13-10-33-01.715389
113	13	1	3	114	volatile	4	40	34	vs	blue	red	blue	red	left	right	0.30000000000000004	0.7	10	2	3.0000000000000004	1.4	0	1	0.30000000000000004	0.7	10	2	3.0000000000000004	1.4	valid	0.6664990579993173	51200	0	0	1	51200	1	53248	0	51200	1	0.7	53248	red	blue	0	0	ml	2.7.3	bip	sub-13_ses-01_task-ml_proj-bip_2021-01-13-10-33-01.715389
114	13	1	3	115	volatile	4	40	35	vs	blue	red	blue	red	left	right	0.30000000000000004	0.7	2	4	0.6000000000000001	2.8	0	1	0.30000000000000004	0.7	2	4	0.6000000000000001	2.8	valid	0.4832281510007306	53248	0	1	2	53248	1	53248	1	53248	1	0.7	53248	red	blue	1	4	ml	2.7.3	bip	sub-13_ses-01_task-ml_proj-bip_2021-01-13-10-33-01.715389
115	13	1	3	116	volatile	4	40	36	vs	blue	red	blue	red	left	right	0.30000000000000004	0.7	10	2	3.0000000000000004	1.4	1	0	0.30000000000000004	0.7	10	2	3.0000000000000004	1.4	invalid	0.6664994699985982	51200	0	0	1	51200	1	53248	0	51200	1	0.7	53248	red	blue	0	10	ml	2.7.3	bip	sub-13_ses-01_task-ml_proj-bip_2021-01-13-10-33-01.715389
116	13	1	3	117	volatile	4	40	37	vs	red	blue	blue	red	right	left	0.30000000000000004	0.7	2	2	0.6000000000000001	1.4	1	0	0.7	0.30000000000000004	2	2	1.4	0.6000000000000001	invalid	0.7831257050002023	51200	0	0	2	51200	1	51200	1	53248	0	0.7	51200	red	blue	1	0	ml	2.7.3	bip	sub-13_ses-01_task-ml_proj-bip_2021-01-13-10-33-01.715389
117	13	1	3	118	volatile	4	40	38	vs	red	blue	blue	red	right	left	0.30000000000000004	0.7	2	6	0.6000000000000001	4.199999999999998	0	1	0.7	0.30000000000000004	6	2	4.199999999999998	0.6000000000000001	valid	0.6165276090014231	53248	0	1	1	51200	0	51200	0	51200	0	0.7	51200	red	blue	1	0	ml	2.7.3	bip	sub-13_ses-01_task-ml_proj-bip_2021-01-13-10-33-01.715389
118	13	1	3	119	volatile	4	40	39	vs	red	blue	blue	red	right	left	0.30000000000000004	0.7	6	4	1.8000000000000005	2.8	0	1	0.7	0.30000000000000004	4	6	2.8	1.8000000000000005	valid	0.4832325389998005	53248	0	1	1	51200	0	51200	0	53248	1	0.7	51200	red	blue	0	0	ml	2.7.3	bip	sub-13_ses-01_task-ml_proj-bip_2021-01-13-10-33-01.715389
119	13	1	3	120	volatile	4	40	40	vs	red	blue	blue	red	right	left	0.30000000000000004	0.7	2	6	0.6000000000000001	4.199999999999998	0	1	0.7	0.30000000000000004	6	2	4.199999999999998	0.6000000000000001	valid	0.4332379740008037	51200	0	0	2	51200	1	51200	1	51200	1	0.7	51200	red	blue	1	6	ml	2.7.3	bip	sub-13_ses-01_task-ml_proj-bip_2021-01-13-10-33-01.715389
120	13	1	3	121	volatile	5	20	1	vs	red	blue	blue	red	right	left	0.7	0.30000000000000004	2	10	1.4	3.0000000000000004	0	1	0.30000000000000004	0.7	10	2	3.0000000000000004	1.4	invalid	0.4165762669999822	51200	0	0	2	51200	1	53248	0	51200	1	0.7	53248	blue	red	0	10	ml	2.7.3	bip	sub-13_ses-01_task-ml_proj-bip_2021-01-13-10-33-01.715389
121	13	1	3	122	volatile	5	20	2	vs	blue	red	blue	red	left	right	0.7	0.30000000000000004	6	4	4.199999999999998	1.2000000000000002	1	0	0.7	0.30000000000000004	6	4	4.199999999999998	1.2000000000000002	valid	0.9497650339999382	53248	0	1	2	51200	0	51200	0	51200	0	0.7	51200	blue	red	1	0	ml	2.7.3	bip	sub-13_ses-01_task-ml_proj-bip_2021-01-13-10-33-01.715389
122	13	1	3	123	volatile	5	20	3	vs	red	blue	blue	red	right	left	0.7	0.30000000000000004	10	2	7.0	0.6000000000000001	0	1	0.30000000000000004	0.7	2	10	0.6000000000000001	7.0	invalid	0.4665689730009035	53248	0	1	1	53248	1	53248	1	53248	1	0.7	53248	blue	red	1	0	ml	2.7.3	bip	sub-13_ses-01_task-ml_proj-bip_2021-01-13-10-33-01.715389
123	13	1	3	124	volatile	5	20	4	vs	red	blue	blue	red	right	left	0.7	0.30000000000000004	6	4	4.199999999999998	1.2000000000000002	1	0	0.30000000000000004	0.7	4	6	1.2000000000000002	4.199999999999998	valid	0.6665123179991497	53248	0	1	1	53248	1	53248	1	53248	1	0.7	53248	blue	red	1	6	ml	2.7.3	bip	sub-13_ses-01_task-ml_proj-bip_2021-01-13-10-33-01.715389
124	13	1	3	125	volatile	5	20	5	vs	blue	red	blue	red	left	right	0.7	0.30000000000000004	6	4	4.199999999999998	1.2000000000000002	1	0	0.7	0.30000000000000004	6	4	4.199999999999998	1.2000000000000002	valid	0.5998541460012348	51200	0	0	1	51200	1	51200	1	51200	1	0.7	51200	blue	red	1	6	ml	2.7.3	bip	sub-13_ses-01_task-ml_proj-bip_2021-01-13-10-33-01.715389
125	13	1	3	126	volatile	5	20	6	vs	red	blue	blue	red	right	left	0.7	0.30000000000000004	2	6	1.4	1.8000000000000005	0	1	0.30000000000000004	0.7	6	2	1.8000000000000005	1.4	invalid	0.6665042550012004	51200	0	0	2	51200	1	53248	0	51200	1	0.7	53248	blue	red	0	6	ml	2.7.3	bip	sub-13_ses-01_task-ml_proj-bip_2021-01-13-10-33-01.715389
126	13	1	3	127	volatile	5	20	7	vs	blue	red	blue	red	left	right	0.7	0.30000000000000004	4	2	2.8	0.6000000000000001	1	0	0.7	0.30000000000000004	4	2	2.8	0.6000000000000001	valid	0.5831912049998209	51200	0	0	1	51200	1	51200	1	51200	1	0.7	51200	blue	red	1	4	ml	2.7.3	bip	sub-13_ses-01_task-ml_proj-bip_2021-01-13-10-33-01.715389
127	13	1	3	128	volatile	5	20	8	vs	blue	red	blue	red	left	right	0.7	0.30000000000000004	6	6	4.199999999999998	1.8000000000000005	0	1	0.7	0.30000000000000004	6	6	4.199999999999998	1.8000000000000005	invalid	1.0164107310010877	53248	0	1	2	51200	0	51200	0	53248	1	0.7	51200	blue	red	1	6	ml	2.7.3	bip	sub-13_ses-01_task-ml_proj-bip_2021-01-13-10-33-01.715389
128	13	1	3	129	volatile	5	20	9	vs	red	blue	blue	red	right	left	0.7	0.30000000000000004	4	2	2.8	0.6000000000000001	1	0	0.30000000000000004	0.7	2	4	0.6000000000000001	2.8	valid	0.7664875949994894	53248	0	1	1	53248	1	53248	1	53248	1	0.7	53248	blue	red	1	4	ml	2.7.3	bip	sub-13_ses-01_task-ml_proj-bip_2021-01-13-10-33-01.715389
129	13	1	3	130	volatile	5	20	10	vs	red	blue	blue	red	right	left	0.7	0.30000000000000004	2	6	1.4	1.8000000000000005	1	0	0.30000000000000004	0.7	6	2	1.8000000000000005	1.4	valid	0.4332322929985821	51200	0	0	2	51200	1	53248	0	51200	1	0.7	53248	blue	red	0	0	ml	2.7.3	bip	sub-13_ses-01_task-ml_proj-bip_2021-01-13-10-33-01.715389
130	13	1	3	131	volatile	5	20	11	vs	red	blue	blue	red	right	left	0.7	0.30000000000000004	4	2	2.8	0.6000000000000001	1	0	0.30000000000000004	0.7	2	4	0.6000000000000001	2.8	valid	0.5665396069998678	53248	0	1	1	53248	1	53248	1	53248	1	0.7	53248	blue	red	1	4	ml	2.7.3	bip	sub-13_ses-01_task-ml_proj-bip_2021-01-13-10-33-01.715389
131	13	1	3	132	volatile	5	20	12	vs	red	blue	blue	red	right	left	0.7	0.30000000000000004	6	6	4.199999999999998	1.8000000000000005	1	0	0.30000000000000004	0.7	6	6	1.8000000000000005	4.199999999999998	valid	0.5998533880010655	51200	0	0	2	53248	0	53248	0	53248	0	0.7	53248	blue	red	0	0	ml	2.7.3	bip	sub-13_ses-01_task-ml_proj-bip_2021-01-13-10-33-01.715389
132	13	1	3	133	volatile	5	20	13	vs	blue	red	blue	red	left	right	0.7	0.30000000000000004	4	6	2.8	1.8000000000000005	1	0	0.7	0.30000000000000004	4	6	2.8	1.8000000000000005	valid	0.4665500889987016	51200	0	0	1	51200	1	51200	1	53248	0	0.7	51200	blue	red	0	4	ml	2.7.3	bip	sub-13_ses-01_task-ml_proj-bip_2021-01-13-10-33-01.715389
133	13	1	3	134	volatile	5	20	14	vs	red	blue	blue	red	right	left	0.7	0.30000000000000004	10	2	7.0	0.6000000000000001	1	0	0.30000000000000004	0.7	2	10	0.6000000000000001	7.0	valid	0.4165868889995181	53248	0	1	1	53248	1	53248	1	53248	1	0.7	53248	blue	red	1	10	ml	2.7.3	bip	sub-13_ses-01_task-ml_proj-bip_2021-01-13-10-33-01.715389
134	13	1	3	135	volatile	5	20	15	vs	blue	red	blue	red	left	right	0.7	0.30000000000000004	2	2	1.4	0.6000000000000001	0	1	0.7	0.30000000000000004	2	2	1.4	0.6000000000000001	invalid	0.6831869189991266	51200	0	0	1	51200	1	51200	1	53248	0	0.7	51200	blue	red	1	0	ml	2.7.3	bip	sub-13_ses-01_task-ml_proj-bip_2021-01-13-10-33-01.715389
135	13	1	3	136	volatile	5	20	16	vs	red	blue	blue	red	right	left	0.7	0.30000000000000004	2	10	1.4	3.0000000000000004	1	0	0.30000000000000004	0.7	10	2	3.0000000000000004	1.4	valid	0.4998851149994152	51200	0	0	2	51200	1	53248	0	51200	1	0.7	53248	blue	red	0	0	ml	2.7.3	bip	sub-13_ses-01_task-ml_proj-bip_2021-01-13-10-33-01.715389
136	13	1	3	137	volatile	5	20	17	vs	blue	red	blue	red	left	right	0.7	0.30000000000000004	2	6	1.4	1.8000000000000005	1	0	0.7	0.30000000000000004	2	6	1.4	1.8000000000000005	valid	0.48323796799922997	53248	0	1	2	53248	1	51200	0	53248	1	0.7	51200	blue	red	0	0	ml	2.7.3	bip	sub-13_ses-01_task-ml_proj-bip_2021-01-13-10-33-01.715389
137	13	1	3	138	volatile	5	20	18	vs	blue	red	blue	red	left	right	0.7	0.30000000000000004	4	2	2.8	0.6000000000000001	0	1	0.7	0.30000000000000004	4	2	2.8	0.6000000000000001	invalid	0.38324466999984	51200	0	0	1	51200	1	51200	1	51200	1	0.7	51200	blue	red	1	0	ml	2.7.3	bip	sub-13_ses-01_task-ml_proj-bip_2021-01-13-10-33-01.715389
138	13	1	3	139	volatile	5	20	19	vs	blue	red	blue	red	left	right	0.7	0.30000000000000004	2	2	1.4	0.6000000000000001	1	0	0.7	0.30000000000000004	2	2	1.4	0.6000000000000001	valid	0.4332633009998972	51200	0	0	1	51200	1	51200	1	53248	0	0.7	51200	blue	red	1	2	ml	2.7.3	bip	sub-13_ses-01_task-ml_proj-bip_2021-01-13-10-33-01.715389
139	13	1	3	140	volatile	5	20	20	vs	blue	red	blue	red	left	right	0.7	0.30000000000000004	2	6	1.4	1.8000000000000005	1	0	0.7	0.30000000000000004	2	6	1.4	1.8000000000000005	valid	0.7498142069998721	51200	0	0	1	53248	0	51200	1	53248	0	0.7	51200	blue	red	0	2	ml	2.7.3	bip	sub-13_ses-01_task-ml_proj-bip_2021-01-13-10-33-01.715389
140	13	1	3	141	volatile	6	40	1	vs	blue	red	blue	red	left	right	0.30000000000000004	0.7	6	4	1.8000000000000005	2.8	0	1	0.30000000000000004	0.7	6	4	1.8000000000000005	2.8	valid	0.5998623169998609	53248	0	1	2	53248	1	53248	1	51200	0	0.7	53248	red	blue	0	4	ml	2.7.3	bip	sub-13_ses-01_task-ml_proj-bip_2021-01-13-10-33-01.715389
141	13	1	3	142	volatile	6	40	2	vs	red	blue	blue	red	right	left	0.30000000000000004	0.7	10	2	3.0000000000000004	1.4	0	1	0.7	0.30000000000000004	2	10	1.4	3.0000000000000004	valid	0.5998608009995223	53248	0	1	1	53248	1	51200	0	53248	1	0.7	51200	red	blue	0	0	ml	2.7.3	bip	sub-13_ses-01_task-ml_proj-bip_2021-01-13-10-33-01.715389
142	13	1	3	143	volatile	6	40	3	vs	red	blue	blue	red	right	left	0.30000000000000004	0.7	6	6	1.8000000000000005	4.199999999999998	1	0	0.7	0.30000000000000004	6	6	4.199999999999998	1.8000000000000005	invalid	0.4832179830009409	51200	0	0	2	51200	1	51200	1	53248	0	0.7	51200	red	blue	1	0	ml	2.7.3	bip	sub-13_ses-01_task-ml_proj-bip_2021-01-13-10-33-01.715389
143	13	1	3	144	volatile	6	40	4	vs	red	blue	blue	red	right	left	0.30000000000000004	0.7	6	2	1.8000000000000005	1.4	0	1	0.7	0.30000000000000004	2	6	1.4	1.8000000000000005	valid	0.5832069289990613	53248	0	1	1	53248	1	51200	0	53248	1	0.7	51200	red	blue	0	0	ml	2.7.3	bip	sub-13_ses-01_task-ml_proj-bip_2021-01-13-10-33-01.715389
144	13	1	3	145	volatile	6	40	5	vs	red	blue	blue	red	right	left	0.30000000000000004	0.7	2	6	0.6000000000000001	4.199999999999998	0	1	0.7	0.30000000000000004	6	2	4.199999999999998	0.6000000000000001	valid	0.4165700530011236	51200	0	0	2	51200	1	51200	1	51200	1	0.7	51200	red	blue	1	6	ml	2.7.3	bip	sub-13_ses-01_task-ml_proj-bip_2021-01-13-10-33-01.715389
145	13	1	3	146	volatile	6	40	6	vs	red	blue	blue	red	right	left	0.30000000000000004	0.7	2	10	0.6000000000000001	7.0	0	1	0.7	0.30000000000000004	10	2	7.0	0.6000000000000001	valid	0.3832487330000731	51200	0	0	2	51200	1	51200	1	51200	1	0.7	51200	red	blue	1	10	ml	2.7.3	bip	sub-13_ses-01_task-ml_proj-bip_2021-01-13-10-33-01.715389
146	13	1	3	147	volatile	6	40	7	vs	blue	red	blue	red	left	right	0.30000000000000004	0.7	6	4	1.8000000000000005	2.8	0	1	0.30000000000000004	0.7	6	4	1.8000000000000005	2.8	valid	0.9330994259998988	53248	0	1	2	53248	1	53248	1	51200	0	0.7	53248	red	blue	0	4	ml	2.7.3	bip	sub-13_ses-01_task-ml_proj-bip_2021-01-13-10-33-01.715389
147	13	1	3	148	volatile	6	40	8	vs	red	blue	blue	red	right	left	0.30000000000000004	0.7	6	2	1.8000000000000005	1.4	1	0	0.7	0.30000000000000004	2	6	1.4	1.8000000000000005	invalid	0.4665639210015797	51200	0	0	2	53248	0	51200	1	53248	0	0.7	51200	red	blue	0	0	ml	2.7.3	bip	sub-13_ses-01_task-ml_proj-bip_2021-01-13-10-33-01.715389
148	13	1	3	149	volatile	6	40	9	vs	red	blue	blue	red	right	left	0.30000000000000004	0.7	4	2	1.2000000000000002	1.4	0	1	0.7	0.30000000000000004	2	4	1.4	1.2000000000000002	valid	0.7998264260004362	53248	0	1	1	51200	0	51200	0	53248	1	0.7	51200	red	blue	0	0	ml	2.7.3	bip	sub-13_ses-01_task-ml_proj-bip_2021-01-13-10-33-01.715389
149	13	1	3	150	volatile	6	40	10	vs	red	blue	blue	red	right	left	0.30000000000000004	0.7	2	2	0.6000000000000001	1.4	1	0	0.7	0.30000000000000004	2	2	1.4	0.6000000000000001	invalid	0.6498382919999129	51200	0	0	2	51200	1	51200	1	53248	0	0.7	51200	red	blue	1	0	ml	2.7.3	bip	sub-13_ses-01_task-ml_proj-bip_2021-01-13-10-33-01.715389
150	13	1	4	151	volatile	6	40	11	vs	blue	red	blue	red	left	right	0.30000000000000004	0.7	2	2	0.6000000000000001	1.4	0	1	0.30000000000000004	0.7	2	2	0.6000000000000001	1.4	valid	0.6331871479997062	53248	0	1	2	53248	1	53248	1	53248	1	0.7	53248	red	blue	0	2	ml	2.7.3	bip	sub-13_ses-01_task-ml_proj-bip_2021-01-13-10-33-01.715389
151	13	1	4	152	volatile	6	40	12	vs	blue	red	blue	red	left	right	0.30000000000000004	0.7	2	6	0.6000000000000001	4.199999999999998	1	0	0.30000000000000004	0.7	2	6	0.6000000000000001	4.199999999999998	invalid	0.483233263999864	53248	0	1	2	53248	1	53248	1	53248	1	0.7	53248	red	blue	1	0	ml	2.7.3	bip	sub-13_ses-01_task-ml_proj-bip_2021-01-13-10-33-01.715389
152	13	1	4	153	volatile	6	40	13	vs	blue	red	blue	red	left	right	0.30000000000000004	0.7	2	2	0.6000000000000001	1.4	0	1	0.30000000000000004	0.7	2	2	0.6000000000000001	1.4	valid	0.6664951910006494	53248	0	1	2	53248	1	53248	1	53248	1	0.7	53248	red	blue	0	2	ml	2.7.3	bip	sub-13_ses-01_task-ml_proj-bip_2021-01-13-10-33-01.715389
153	13	1	4	154	volatile	6	40	14	vs	blue	red	blue	red	left	right	0.30000000000000004	0.7	4	2	1.2000000000000002	1.4	0	1	0.30000000000000004	0.7	4	2	1.2000000000000002	1.4	valid	0.5831964139997581	53248	0	1	2	53248	1	53248	1	51200	0	0.7	53248	red	blue	0	2	ml	2.7.3	bip	sub-13_ses-01_task-ml_proj-bip_2021-01-13-10-33-01.715389
154	13	1	4	155	volatile	6	40	15	vs	red	blue	blue	red	right	left	0.30000000000000004	0.7	6	6	1.8000000000000005	4.199999999999998	0	1	0.7	0.30000000000000004	6	6	4.199999999999998	1.8000000000000005	valid	0.5831972209998639	51200	0	0	2	51200	1	51200	1	53248	0	0.7	51200	red	blue	1	6	ml	2.7.3	bip	sub-13_ses-01_task-ml_proj-bip_2021-01-13-10-33-01.715389
155	13	1	4	156	volatile	6	40	16	vs	red	blue	blue	red	right	left	0.30000000000000004	0.7	10	2	3.0000000000000004	1.4	1	0	0.7	0.30000000000000004	2	10	1.4	3.0000000000000004	invalid	0.799806985000032	53248	0	1	1	53248	1	51200	0	53248	1	0.7	51200	red	blue	0	10	ml	2.7.3	bip	sub-13_ses-01_task-ml_proj-bip_2021-01-13-10-33-01.715389
156	13	1	4	157	volatile	6	40	17	vs	blue	red	blue	red	left	right	0.30000000000000004	0.7	4	2	1.2000000000000002	1.4	0	1	0.30000000000000004	0.7	4	2	1.2000000000000002	1.4	valid	0.9164402090009388	53248	0	1	2	53248	1	53248	1	51200	0	0.7	53248	red	blue	0	2	ml	2.7.3	bip	sub-13_ses-01_task-ml_proj-bip_2021-01-13-10-33-01.715389
157	13	1	4	158	volatile	6	40	18	vs	blue	red	blue	red	left	right	0.30000000000000004	0.7	4	6	1.2000000000000002	4.199999999999998	1	0	0.30000000000000004	0.7	4	6	1.2000000000000002	4.199999999999998	invalid	0.5832015329997375	53248	0	1	2	53248	1	53248	1	53248	1	0.7	53248	red	blue	1	0	ml	2.7.3	bip	sub-13_ses-01_task-ml_proj-bip_2021-01-13-10-33-01.715389
158	13	1	4	159	volatile	6	40	19	vs	blue	red	blue	red	left	right	0.30000000000000004	0.7	2	10	0.6000000000000001	7.0	1	0	0.30000000000000004	0.7	2	10	0.6000000000000001	7.0	invalid	0.5998656339997979	53248	0	1	2	53248	1	53248	1	53248	1	0.7	53248	red	blue	1	0	ml	2.7.3	bip	sub-13_ses-01_task-ml_proj-bip_2021-01-13-10-33-01.715389
159	13	1	4	160	volatile	6	40	20	vs	red	blue	blue	red	right	left	0.30000000000000004	0.7	2	4	0.6000000000000001	2.8	0	1	0.7	0.30000000000000004	4	2	2.8	0.6000000000000001	valid	1.1163796440014266	53248	0	1	1	51200	0	51200	0	51200	0	0.7	51200	red	blue	1	0	ml	2.7.3	bip	sub-13_ses-01_task-ml_proj-bip_2021-01-13-10-33-01.715389
160	13	1	4	161	volatile	6	40	21	vs	blue	red	blue	red	left	right	0.30000000000000004	0.7	6	2	1.8000000000000005	1.4	0	1	0.30000000000000004	0.7	6	2	1.8000000000000005	1.4	valid	0.6498389119988133	51200	0	0	1	51200	1	53248	0	51200	1	0.7	53248	red	blue	0	0	ml	2.7.3	bip	sub-13_ses-01_task-ml_proj-bip_2021-01-13-10-33-01.715389
161	13	1	4	162	volatile	6	40	22	vs	blue	red	blue	red	left	right	0.30000000000000004	0.7	10	2	3.0000000000000004	1.4	0	1	0.30000000000000004	0.7	10	2	3.0000000000000004	1.4	valid	0.5165414599996438	51200	0	0	1	51200	1	53248	0	51200	1	0.7	53248	red	blue	0	0	ml	2.7.3	bip	sub-13_ses-01_task-ml_proj-bip_2021-01-13-10-33-01.715389
162	13	1	4	163	volatile	6	40	23	vs	red	blue	blue	red	right	left	0.30000000000000004	0.7	2	4	0.6000000000000001	2.8	1	0	0.7	0.30000000000000004	4	2	2.8	0.6000000000000001	invalid	0.3999096909992659	51200	0	0	2	51200	1	51200	1	51200	1	0.7	51200	red	blue	1	0	ml	2.7.3	bip	sub-13_ses-01_task-ml_proj-bip_2021-01-13-10-33-01.715389
163	13	1	4	164	volatile	6	40	24	vs	blue	red	blue	red	left	right	0.30000000000000004	0.7	6	6	1.8000000000000005	4.199999999999998	1	0	0.30000000000000004	0.7	6	6	1.8000000000000005	4.199999999999998	invalid	0.4499078040007589	53248	0	1	2	53248	1	53248	1	53248	1	0.7	53248	red	blue	0	0	ml	2.7.3	bip	sub-13_ses-01_task-ml_proj-bip_2021-01-13-10-33-01.715389
164	13	1	4	165	volatile	6	40	25	vs	blue	red	blue	red	left	right	0.30000000000000004	0.7	4	6	1.2000000000000002	4.199999999999998	1	0	0.30000000000000004	0.7	4	6	1.2000000000000002	4.199999999999998	invalid	0.3665861139998015	51200	0	0	1	53248	0	53248	0	53248	0	0.7	53248	red	blue	1	4	ml	2.7.3	bip	sub-13_ses-01_task-ml_proj-bip_2021-01-13-10-33-01.715389
165	13	1	4	166	volatile	6	40	26	vs	red	blue	blue	red	right	left	0.30000000000000004	0.7	2	10	0.6000000000000001	7.0	0	1	0.7	0.30000000000000004	10	2	7.0	0.6000000000000001	valid	0.9830751819990836	51200	0	0	2	51200	1	51200	1	51200	1	0.7	51200	red	blue	1	10	ml	2.7.3	bip	sub-13_ses-01_task-ml_proj-bip_2021-01-13-10-33-01.715389
166	13	1	4	167	volatile	6	40	27	vs	blue	red	blue	red	left	right	0.30000000000000004	0.7	6	4	1.8000000000000005	2.8	0	1	0.30000000000000004	0.7	6	4	1.8000000000000005	2.8	valid	0.5665658149991941	51200	0	0	1	53248	0	53248	0	51200	1	0.7	53248	red	blue	0	0	ml	2.7.3	bip	sub-13_ses-01_task-ml_proj-bip_2021-01-13-10-33-01.715389
167	13	1	4	168	volatile	6	40	28	vs	red	blue	blue	red	right	left	0.30000000000000004	0.7	2	10	0.6000000000000001	7.0	0	1	0.7	0.30000000000000004	10	2	7.0	0.6000000000000001	valid	0.4332328439995763	51200	0	0	2	51200	1	51200	1	51200	1	0.7	51200	red	blue	1	10	ml	2.7.3	bip	sub-13_ses-01_task-ml_proj-bip_2021-01-13-10-33-01.715389
168	13	1	4	169	volatile	6	40	29	vs	blue	red	blue	red	left	right	0.30000000000000004	0.7	4	6	1.2000000000000002	4.199999999999998	0	1	0.30000000000000004	0.7	4	6	1.2000000000000002	4.199999999999998	valid	0.7498190009991959	53248	0	1	2	53248	1	53248	1	53248	1	0.7	53248	red	blue	1	6	ml	2.7.3	bip	sub-13_ses-01_task-ml_proj-bip_2021-01-13-10-33-01.715389
169	13	1	4	170	volatile	6	40	30	vs	red	blue	blue	red	right	left	0.30000000000000004	0.7	4	2	1.2000000000000002	1.4	0	1	0.7	0.30000000000000004	2	4	1.4	1.2000000000000002	valid	0.683172803999696	53248	0	1	1	51200	0	51200	0	53248	1	0.7	51200	red	blue	0	0	ml	2.7.3	bip	sub-13_ses-01_task-ml_proj-bip_2021-01-13-10-33-01.715389
170	13	1	4	171	volatile	6	40	31	vs	blue	red	blue	red	left	right	0.30000000000000004	0.7	2	6	0.6000000000000001	4.199999999999998	0	1	0.30000000000000004	0.7	2	6	0.6000000000000001	4.199999999999998	valid	0.4665685799991479	53248	0	1	2	53248	1	53248	1	53248	1	0.7	53248	red	blue	1	6	ml	2.7.3	bip	sub-13_ses-01_task-ml_proj-bip_2021-01-13-10-33-01.715389
171	13	1	4	172	volatile	6	40	32	vs	blue	red	blue	red	left	right	0.30000000000000004	0.7	2	2	0.6000000000000001	1.4	1	0	0.30000000000000004	0.7	2	2	0.6000000000000001	1.4	invalid	0.7664803309999115	53248	0	1	2	53248	1	53248	1	53248	1	0.7	53248	red	blue	0	0	ml	2.7.3	bip	sub-13_ses-01_task-ml_proj-bip_2021-01-13-10-33-01.715389
172	13	1	4	173	volatile	6	40	33	vs	red	blue	blue	red	right	left	0.30000000000000004	0.7	4	2	1.2000000000000002	1.4	1	0	0.7	0.30000000000000004	2	4	1.4	1.2000000000000002	invalid	0.6165245140000479	53248	0	1	1	51200	0	51200	0	53248	1	0.7	51200	red	blue	0	4	ml	2.7.3	bip	sub-13_ses-01_task-ml_proj-bip_2021-01-13-10-33-01.715389
173	13	1	4	174	volatile	6	40	34	vs	red	blue	blue	red	right	left	0.30000000000000004	0.7	2	6	0.6000000000000001	4.199999999999998	0	1	0.7	0.30000000000000004	6	2	4.199999999999998	0.6000000000000001	valid	0.5831894219991227	51200	0	0	2	51200	1	51200	1	51200	1	0.7	51200	red	blue	1	6	ml	2.7.3	bip	sub-13_ses-01_task-ml_proj-bip_2021-01-13-10-33-01.715389
174	13	1	4	175	volatile	6	40	35	vs	blue	red	blue	red	left	right	0.30000000000000004	0.7	6	2	1.8000000000000005	1.4	0	1	0.30000000000000004	0.7	6	2	1.8000000000000005	1.4	valid	0.8831149489997188	53248	0	1	2	51200	0	53248	1	51200	0	0.7	53248	red	blue	0	2	ml	2.7.3	bip	sub-13_ses-01_task-ml_proj-bip_2021-01-13-10-33-01.715389
175	13	1	4	176	volatile	6	40	36	vs	red	blue	blue	red	right	left	0.30000000000000004	0.7	6	4	1.8000000000000005	2.8	0	1	0.7	0.30000000000000004	4	6	2.8	1.8000000000000005	valid	0.599866053000369	53248	0	1	1	51200	0	51200	0	53248	1	0.7	51200	red	blue	0	0	ml	2.7.3	bip	sub-13_ses-01_task-ml_proj-bip_2021-01-13-10-33-01.715389
176	13	1	4	177	volatile	6	40	37	vs	blue	red	blue	red	left	right	0.30000000000000004	0.7	2	10	0.6000000000000001	7.0	0	1	0.30000000000000004	0.7	2	10	0.6000000000000001	7.0	valid	0.5498767750013941	53248	0	1	2	53248	1	53248	1	53248	1	0.7	53248	red	blue	1	10	ml	2.7.3	bip	sub-13_ses-01_task-ml_proj-bip_2021-01-13-10-33-01.715389
177	13	1	4	178	volatile	6	40	38	vs	red	blue	blue	red	right	left	0.30000000000000004	0.7	4	2	1.2000000000000002	1.4	0	1	0.7	0.30000000000000004	2	4	1.4	1.2000000000000002	valid	0.7164859590011474	51200	0	0	2	51200	1	51200	1	53248	0	0.7	51200	red	blue	0	2	ml	2.7.3	bip	sub-13_ses-01_task-ml_proj-bip_2021-01-13-10-33-01.715389
178	13	1	4	179	volatile	6	40	39	vs	blue	red	blue	red	left	right	0.30000000000000004	0.7	6	4	1.8000000000000005	2.8	0	1	0.30000000000000004	0.7	6	4	1.8000000000000005	2.8	valid	0.5498782659997232	53248	0	1	2	53248	1	53248	1	51200	0	0.7	53248	red	blue	0	4	ml	2.7.3	bip	sub-13_ses-01_task-ml_proj-bip_2021-01-13-10-33-01.715389
179	13	1	4	180	volatile	6	40	40	vs	red	blue	blue	red	right	left	0.30000000000000004	0.7	6	6	1.8000000000000005	4.199999999999998	0	1	0.7	0.30000000000000004	6	6	4.199999999999998	1.8000000000000005	valid	0.4832219729996723	51200	0	0	2	51200	1	51200	1	53248	0	0.7	51200	red	blue	1	6	ml	2.7.3	bip	sub-13_ses-01_task-ml_proj-bip_2021-01-13-10-33-01.715389
180	13	1	4	181	volatile	7	20	1	vs	red	blue	blue	red	right	left	0.7	0.30000000000000004	2	10	1.4	3.0000000000000004	0	1	0.30000000000000004	0.7	10	2	3.0000000000000004	1.4	invalid	0.6831674029999704	51200	0	0	2	51200	1	53248	0	51200	1	0.7	53248	blue	red	0	10	ml	2.7.3	bip	sub-13_ses-01_task-ml_proj-bip_2021-01-13-10-33-01.715389
181	13	1	4	182	volatile	7	20	2	vs	red	blue	blue	red	right	left	0.7	0.30000000000000004	10	2	7.0	0.6000000000000001	0	1	0.30000000000000004	0.7	2	10	0.6000000000000001	7.0	invalid	0.5498688829993625	51200	0	0	2	53248	0	53248	0	53248	0	0.7	53248	blue	red	1	2	ml	2.7.3	bip	sub-13_ses-01_task-ml_proj-bip_2021-01-13-10-33-01.715389
182	13	1	4	183	volatile	7	20	3	vs	red	blue	blue	red	right	left	0.7	0.30000000000000004	4	2	2.8	0.6000000000000001	1	0	0.30000000000000004	0.7	2	4	0.6000000000000001	2.8	valid	0.8497803919999569	51200	0	0	2	53248	0	53248	0	53248	0	0.7	53248	blue	red	1	0	ml	2.7.3	bip	sub-13_ses-01_task-ml_proj-bip_2021-01-13-10-33-01.715389
183	13	1	4	184	volatile	7	20	4	vs	red	blue	blue	red	right	left	0.7	0.30000000000000004	2	6	1.4	1.8000000000000005	1	0	0.30000000000000004	0.7	6	2	1.8000000000000005	1.4	valid	0.6998219040015101	51200	0	0	2	51200	1	53248	0	51200	1	0.7	53248	blue	red	0	0	ml	2.7.3	bip	sub-13_ses-01_task-ml_proj-bip_2021-01-13-10-33-01.715389
184	13	1	4	185	volatile	7	20	5	vs	blue	red	blue	red	left	right	0.7	0.30000000000000004	4	6	2.8	1.8000000000000005	0	1	0.7	0.30000000000000004	4	6	2.8	1.8000000000000005	invalid	0.5998525249997329	51200	0	0	1	51200	1	51200	1	53248	0	0.7	51200	blue	red	0	0	ml	2.7.3	bip	sub-13_ses-01_task-ml_proj-bip_2021-01-13-10-33-01.715389
185	13	1	4	186	volatile	7	20	6	vs	blue	red	blue	red	left	right	0.7	0.30000000000000004	6	6	4.199999999999998	1.8000000000000005	0	1	0.7	0.30000000000000004	6	6	4.199999999999998	1.8000000000000005	invalid	0.4998888589998387	51200	0	0	1	51200	1	51200	1	53248	0	0.7	51200	blue	red	1	0	ml	2.7.3	bip	sub-13_ses-01_task-ml_proj-bip_2021-01-13-10-33-01.715389
186	13	1	4	187	volatile	7	20	7	vs	blue	red	blue	red	left	right	0.7	0.30000000000000004	4	2	2.8	0.6000000000000001	1	0	0.7	0.30000000000000004	4	2	2.8	0.6000000000000001	valid	0.6331750549998105	51200	0	0	1	51200	1	51200	1	51200	1	0.7	51200	blue	red	1	4	ml	2.7.3	bip	sub-13_ses-01_task-ml_proj-bip_2021-01-13-10-33-01.715389
187	13	1	4	188	volatile	7	20	8	vs	blue	red	blue	red	left	right	0.7	0.30000000000000004	4	6	2.8	1.8000000000000005	1	0	0.7	0.30000000000000004	4	6	2.8	1.8000000000000005	valid	0.4832190529996296	51200	0	0	1	51200	1	51200	1	53248	0	0.7	51200	blue	red	0	4	ml	2.7.3	bip	sub-13_ses-01_task-ml_proj-bip_2021-01-13-10-33-01.715389
188	13	1	4	189	volatile	7	20	9	vs	blue	red	blue	red	left	right	0.7	0.30000000000000004	10	2	7.0	0.6000000000000001	1	0	0.7	0.30000000000000004	10	2	7.0	0.6000000000000001	valid	0.4998792290007259	51200	0	0	1	51200	1	51200	1	51200	1	0.7	51200	blue	red	1	10	ml	2.7.3	bip	sub-13_ses-01_task-ml_proj-bip_2021-01-13-10-33-01.715389
189	13	1	4	190	volatile	7	20	10	vs	red	blue	blue	red	right	left	0.7	0.30000000000000004	10	2	7.0	0.6000000000000001	1	0	0.30000000000000004	0.7	2	10	0.6000000000000001	7.0	valid	0.6665193740009272	53248	0	1	1	53248	1	53248	1	53248	1	0.7	53248	blue	red	1	10	ml	2.7.3	bip	sub-13_ses-01_task-ml_proj-bip_2021-01-13-10-33-01.715389
190	13	1	4	191	volatile	7	20	11	vs	blue	red	blue	red	left	right	0.7	0.30000000000000004	4	2	2.8	0.6000000000000001	1	0	0.7	0.30000000000000004	4	2	2.8	0.6000000000000001	valid	0.6831604589988274	51200	0	0	1	51200	1	51200	1	51200	1	0.7	51200	blue	red	1	4	ml	2.7.3	bip	sub-13_ses-01_task-ml_proj-bip_2021-01-13-10-33-01.715389
191	13	1	4	192	volatile	7	20	12	vs	red	blue	blue	red	right	left	0.7	0.30000000000000004	6	6	4.199999999999998	1.8000000000000005	1	0	0.30000000000000004	0.7	6	6	1.8000000000000005	4.199999999999998	valid	0.7164961190010217	53248	0	1	1	53248	1	53248	1	53248	1	0.7	53248	blue	red	0	6	ml	2.7.3	bip	sub-13_ses-01_task-ml_proj-bip_2021-01-13-10-33-01.715389
192	13	1	4	193	volatile	7	20	13	vs	red	blue	blue	red	right	left	0.7	0.30000000000000004	2	2	1.4	0.6000000000000001	0	1	0.30000000000000004	0.7	2	2	0.6000000000000001	1.4	invalid	1.2663364420004657	53248	0	1	1	53248	1	53248	1	53248	1	0.7	53248	blue	red	0	0	ml	2.7.3	bip	sub-13_ses-01_task-ml_proj-bip_2021-01-13-10-33-01.715389
193	13	1	4	194	volatile	7	20	14	vs	blue	red	blue	red	left	right	0.7	0.30000000000000004	6	4	4.199999999999998	1.2000000000000002	1	0	0.7	0.30000000000000004	6	4	4.199999999999998	1.2000000000000002	valid	0.549868650999997	51200	0	0	1	51200	1	51200	1	51200	1	0.7	51200	blue	red	1	6	ml	2.7.3	bip	sub-13_ses-01_task-ml_proj-bip_2021-01-13-10-33-01.715389
194	13	1	4	195	volatile	7	20	15	vs	red	blue	blue	red	right	left	0.7	0.30000000000000004	4	2	2.8	0.6000000000000001	1	0	0.30000000000000004	0.7	2	4	0.6000000000000001	2.8	valid	0.5665380699992966	53248	0	1	1	53248	1	53248	1	53248	1	0.7	53248	blue	red	1	4	ml	2.7.3	bip	sub-13_ses-01_task-ml_proj-bip_2021-01-13-10-33-01.715389
195	13	1	4	196	volatile	7	20	16	vs	blue	red	blue	red	left	right	0.7	0.30000000000000004	2	2	1.4	0.6000000000000001	0	1	0.7	0.30000000000000004	2	2	1.4	0.6000000000000001	invalid	0.6165138190008292	51200	0	0	1	51200	1	51200	1	53248	0	0.7	51200	blue	red	1	0	ml	2.7.3	bip	sub-13_ses-01_task-ml_proj-bip_2021-01-13-10-33-01.715389
196	13	1	4	197	volatile	7	20	17	vs	red	blue	blue	red	right	left	0.7	0.30000000000000004	4	6	2.8	1.8000000000000005	1	0	0.30000000000000004	0.7	6	4	1.8000000000000005	2.8	valid	0.3832468319997133	51200	0	0	2	53248	0	53248	0	51200	1	0.7	53248	blue	red	0	0	ml	2.7.3	bip	sub-13_ses-01_task-ml_proj-bip_2021-01-13-10-33-01.715389
197	13	1	4	198	volatile	7	20	18	vs	red	blue	blue	red	right	left	0.7	0.30000000000000004	6	2	4.199999999999998	0.6000000000000001	1	0	0.30000000000000004	0.7	2	6	0.6000000000000001	4.199999999999998	valid	0.5332168509994517	53248	0	1	1	53248	1	53248	1	53248	1	0.7	53248	blue	red	1	6	ml	2.7.3	bip	sub-13_ses-01_task-ml_proj-bip_2021-01-13-10-33-01.715389
198	13	1	4	199	volatile	7	20	19	vs	blue	red	blue	red	left	right	0.7	0.30000000000000004	2	6	1.4	1.8000000000000005	1	0	0.7	0.30000000000000004	2	6	1.4	1.8000000000000005	valid	0.5998611020004319	53248	0	1	2	53248	1	51200	0	53248	1	0.7	51200	blue	red	0	0	ml	2.7.3	bip	sub-13_ses-01_task-ml_proj-bip_2021-01-13-10-33-01.715389
199	13	1	4	200	volatile	7	20	20	vs	blue	red	blue	red	left	right	0.7	0.30000000000000004	6	2	4.199999999999998	0.6000000000000001	1	0	0.7	0.30000000000000004	6	2	4.199999999999998	0.6000000000000001	valid	0.6498316819997854	51200	0	0	1	51200	1	51200	1	51200	1	0.7	51200	blue	red	1	6	ml	2.7.3	bip	sub-13_ses-01_task-ml_proj-bip_2021-01-13-10-33-01.715389
200	13	1	5	201	stable	8	200	1	vs	red	blue	blue	red	right	left	0.30000000000000004	0.7	6	4	1.8000000000000005	2.8	0	1	0.7	0.30000000000000004	4	6	2.8	1.8000000000000005	valid	0.6331829789996846	53248	0	1	1	51200	0	51200	0	53248	1	0.7	51200	red	blue	0	0	ml	2.7.3	bip	sub-13_ses-01_task-ml_proj-bip_2021-01-13-10-33-01.715389
201	13	1	5	202	stable	8	200	2	vs	red	blue	blue	red	right	left	0.30000000000000004	0.7	6	2	1.8000000000000005	1.4	0	1	0.7	0.30000000000000004	2	6	1.4	1.8000000000000005	valid	0.4665657890000148	53248	0	1	1	53248	1	51200	0	53248	1	0.7	51200	red	blue	0	0	ml	2.7.3	bip	sub-13_ses-01_task-ml_proj-bip_2021-01-13-10-33-01.715389
202	13	1	5	203	stable	8	200	3	vs	red	blue	blue	red	right	left	0.30000000000000004	0.7	4	2	1.2000000000000002	1.4	1	0	0.7	0.30000000000000004	2	4	1.4	1.2000000000000002	invalid	0.4332367599999998	51200	0	0	2	51200	1	51200	1	53248	0	0.7	51200	red	blue	0	0	ml	2.7.3	bip	sub-13_ses-01_task-ml_proj-bip_2021-01-13-10-33-01.715389
203	13	1	5	204	stable	8	200	4	vs	blue	red	blue	red	left	right	0.30000000000000004	0.7	4	2	1.2000000000000002	1.4	0	1	0.30000000000000004	0.7	4	2	1.2000000000000002	1.4	valid	0.44990608999978576	53248	0	1	2	53248	1	53248	1	51200	0	0.7	53248	red	blue	0	2	ml	2.7.3	bip	sub-13_ses-01_task-ml_proj-bip_2021-01-13-10-33-01.715389
204	13	1	5	205	stable	8	200	5	vs	red	blue	blue	red	right	left	0.30000000000000004	0.7	2	4	0.6000000000000001	2.8	1	0	0.7	0.30000000000000004	4	2	2.8	0.6000000000000001	invalid	0.4332417100013117	51200	0	0	2	51200	1	51200	1	51200	1	0.7	51200	red	blue	1	0	ml	2.7.3	bip	sub-13_ses-01_task-ml_proj-bip_2021-01-13-10-33-01.715389
205	13	1	5	206	stable	8	200	6	vs	blue	red	blue	red	left	right	0.30000000000000004	0.7	2	6	0.6000000000000001	4.199999999999998	1	0	0.30000000000000004	0.7	2	6	0.6000000000000001	4.199999999999998	invalid	0.5332157270004245	53248	0	1	2	53248	1	53248	1	53248	1	0.7	53248	red	blue	1	0	ml	2.7.3	bip	sub-13_ses-01_task-ml_proj-bip_2021-01-13-10-33-01.715389
206	13	1	5	207	stable	8	200	7	vs	blue	red	blue	red	left	right	0.30000000000000004	0.7	4	6	1.2000000000000002	4.199999999999998	0	1	0.30000000000000004	0.7	4	6	1.2000000000000002	4.199999999999998	valid	0.6831709219986806	53248	0	1	2	53248	1	53248	1	53248	1	0.7	53248	red	blue	1	6	ml	2.7.3	bip	sub-13_ses-01_task-ml_proj-bip_2021-01-13-10-33-01.715389
207	13	1	5	208	stable	8	200	8	vs	blue	red	blue	red	left	right	0.30000000000000004	0.7	6	4	1.8000000000000005	2.8	0	1	0.30000000000000004	0.7	6	4	1.8000000000000005	2.8	valid	0.5332029559995135	51200	0	0	1	53248	0	53248	0	51200	1	0.7	53248	red	blue	0	0	ml	2.7.3	bip	sub-13_ses-01_task-ml_proj-bip_2021-01-13-10-33-01.715389
208	13	1	5	209	stable	8	200	9	vs	blue	red	blue	red	left	right	0.30000000000000004	0.7	2	6	0.6000000000000001	4.199999999999998	0	1	0.30000000000000004	0.7	2	6	0.6000000000000001	4.199999999999998	valid	0.4332456560005085	53248	0	1	2	53248	1	53248	1	53248	1	0.7	53248	red	blue	1	6	ml	2.7.3	bip	sub-13_ses-01_task-ml_proj-bip_2021-01-13-10-33-01.715389
209	13	1	5	210	stable	8	200	10	vs	blue	red	blue	red	left	right	0.30000000000000004	0.7	2	4	0.6000000000000001	2.8	1	0	0.30000000000000004	0.7	2	4	0.6000000000000001	2.8	invalid	0.4332377930004441	53248	0	1	2	53248	1	53248	1	53248	1	0.7	53248	red	blue	1	0	ml	2.7.3	bip	sub-13_ses-01_task-ml_proj-bip_2021-01-13-10-33-01.715389
210	13	1	5	211	stable	8	200	11	vs	red	blue	blue	red	right	left	0.30000000000000004	0.7	10	2	3.0000000000000004	1.4	0	1	0.7	0.30000000000000004	2	10	1.4	3.0000000000000004	valid	0.4998992680011725	53248	0	1	1	53248	1	51200	0	53248	1	0.7	51200	red	blue	0	0	ml	2.7.3	bip	sub-13_ses-01_task-ml_proj-bip_2021-01-13-10-33-01.715389
211	13	1	5	212	stable	8	200	12	vs	red	blue	blue	red	right	left	0.30000000000000004	0.7	2	4	0.6000000000000001	2.8	1	0	0.7	0.30000000000000004	4	2	2.8	0.6000000000000001	invalid	0.6998345290012367	53248	0	1	1	51200	0	51200	0	51200	0	0.7	51200	red	blue	1	2	ml	2.7.3	bip	sub-13_ses-01_task-ml_proj-bip_2021-01-13-10-33-01.715389
212	13	1	5	213	stable	8	200	13	vs	blue	red	blue	red	left	right	0.30000000000000004	0.7	6	2	1.8000000000000005	1.4	1	0	0.30000000000000004	0.7	6	2	1.8000000000000005	1.4	invalid	0.4165908750001108	51200	0	0	1	51200	1	53248	0	51200	1	0.7	53248	red	blue	0	6	ml	2.7.3	bip	sub-13_ses-01_task-ml_proj-bip_2021-01-13-10-33-01.715389
213	13	1	5	214	stable	8	200	14	vs	blue	red	blue	red	left	right	0.30000000000000004	0.7	4	2	1.2000000000000002	1.4	0	1	0.30000000000000004	0.7	4	2	1.2000000000000002	1.4	valid	0.9664076860008208	51200	0	0	1	53248	0	53248	0	51200	1	0.7	53248	red	blue	0	0	ml	2.7.3	bip	sub-13_ses-01_task-ml_proj-bip_2021-01-13-10-33-01.715389
214	13	1	5	215	stable	8	200	15	vs	blue	red	blue	red	left	right	0.30000000000000004	0.7	2	4	0.6000000000000001	2.8	0	1	0.30000000000000004	0.7	2	4	0.6000000000000001	2.8	valid	0.6331872589998966	53248	0	1	2	53248	1	53248	1	53248	1	0.7	53248	red	blue	1	4	ml	2.7.3	bip	sub-13_ses-01_task-ml_proj-bip_2021-01-13-10-33-01.715389
215	13	1	5	216	stable	8	200	16	vs	red	blue	blue	red	right	left	0.30000000000000004	0.7	2	4	0.6000000000000001	2.8	0	1	0.7	0.30000000000000004	4	2	2.8	0.6000000000000001	valid	0.6331783450004878	51200	0	0	2	51200	1	51200	1	51200	1	0.7	51200	red	blue	1	4	ml	2.7.3	bip	sub-13_ses-01_task-ml_proj-bip_2021-01-13-10-33-01.715389
216	13	1	5	217	stable	8	200	17	vs	red	blue	blue	red	right	left	0.30000000000000004	0.7	2	10	0.6000000000000001	7.0	0	1	0.7	0.30000000000000004	10	2	7.0	0.6000000000000001	valid	0.54986490400006	51200	0	0	2	51200	1	51200	1	51200	1	0.7	51200	red	blue	1	10	ml	2.7.3	bip	sub-13_ses-01_task-ml_proj-bip_2021-01-13-10-33-01.715389
217	13	1	5	218	stable	8	200	18	vs	red	blue	blue	red	right	left	0.30000000000000004	0.7	2	2	0.6000000000000001	1.4	0	1	0.7	0.30000000000000004	2	2	1.4	0.6000000000000001	valid	0.683161093000308	51200	0	0	2	51200	1	51200	1	53248	0	0.7	51200	red	blue	1	2	ml	2.7.3	bip	sub-13_ses-01_task-ml_proj-bip_2021-01-13-10-33-01.715389
218	13	1	5	219	stable	8	200	19	vs	red	blue	blue	red	right	left	0.30000000000000004	0.7	4	6	1.2000000000000002	4.199999999999998	0	1	0.7	0.30000000000000004	6	4	4.199999999999998	1.2000000000000002	valid	0.3665779790007946	51200	0	0	2	51200	1	51200	1	51200	1	0.7	51200	red	blue	1	6	ml	2.7.3	bip	sub-13_ses-01_task-ml_proj-bip_2021-01-13-10-33-01.715389
219	13	1	5	220	stable	8	200	20	vs	blue	red	blue	red	left	right	0.30000000000000004	0.7	4	2	1.2000000000000002	1.4	0	1	0.30000000000000004	0.7	4	2	1.2000000000000002	1.4	valid	0.6165233079991594	53248	0	1	2	53248	1	53248	1	51200	0	0.7	53248	red	blue	0	2	ml	2.7.3	bip	sub-13_ses-01_task-ml_proj-bip_2021-01-13-10-33-01.715389
220	13	1	5	221	stable	8	200	21	vs	red	blue	blue	red	right	left	0.30000000000000004	0.7	6	6	1.8000000000000005	4.199999999999998	0	1	0.7	0.30000000000000004	6	6	4.199999999999998	1.8000000000000005	valid	0.6331780679993244	51200	0	0	2	51200	1	51200	1	53248	0	0.7	51200	red	blue	1	6	ml	2.7.3	bip	sub-13_ses-01_task-ml_proj-bip_2021-01-13-10-33-01.715389
221	13	1	5	222	stable	8	200	22	vs	red	blue	blue	red	right	left	0.30000000000000004	0.7	10	2	3.0000000000000004	1.4	0	1	0.7	0.30000000000000004	2	10	1.4	3.0000000000000004	valid	0.6498376600011397	51200	0	0	2	53248	0	51200	1	53248	0	0.7	51200	red	blue	0	2	ml	2.7.3	bip	sub-13_ses-01_task-ml_proj-bip_2021-01-13-10-33-01.715389
222	13	1	5	223	stable	8	200	23	vs	red	blue	blue	red	right	left	0.30000000000000004	0.7	4	6	1.2000000000000002	4.199999999999998	0	1	0.7	0.30000000000000004	6	4	4.199999999999998	1.2000000000000002	valid	0.416579439999623	51200	0	0	2	51200	1	51200	1	51200	1	0.7	51200	red	blue	1	6	ml	2.7.3	bip	sub-13_ses-01_task-ml_proj-bip_2021-01-13-10-33-01.715389
223	13	1	5	224	stable	8	200	24	vs	red	blue	blue	red	right	left	0.30000000000000004	0.7	4	2	1.2000000000000002	1.4	0	1	0.7	0.30000000000000004	2	4	1.4	1.2000000000000002	valid	0.5498709880012029	51200	0	0	2	51200	1	51200	1	53248	0	0.7	51200	red	blue	0	2	ml	2.7.3	bip	sub-13_ses-01_task-ml_proj-bip_2021-01-13-10-33-01.715389
224	13	1	5	225	stable	8	200	25	vs	blue	red	blue	red	left	right	0.30000000000000004	0.7	4	6	1.2000000000000002	4.199999999999998	1	0	0.30000000000000004	0.7	4	6	1.2000000000000002	4.199999999999998	invalid	0.44990685999982816	53248	0	1	2	53248	1	53248	1	53248	1	0.7	53248	red	blue	1	0	ml	2.7.3	bip	sub-13_ses-01_task-ml_proj-bip_2021-01-13-10-33-01.715389
225	13	1	5	226	stable	8	200	26	vs	blue	red	blue	red	left	right	0.30000000000000004	0.7	4	6	1.2000000000000002	4.199999999999998	0	1	0.30000000000000004	0.7	4	6	1.2000000000000002	4.199999999999998	valid	0.3999192519986536	53248	0	1	2	53248	1	53248	1	53248	1	0.7	53248	red	blue	1	6	ml	2.7.3	bip	sub-13_ses-01_task-ml_proj-bip_2021-01-13-10-33-01.715389
226	13	1	5	227	stable	8	200	27	vs	red	blue	blue	red	right	left	0.30000000000000004	0.7	10	2	3.0000000000000004	1.4	0	1	0.7	0.30000000000000004	2	10	1.4	3.0000000000000004	valid	0.4665513849995477	51200	0	0	2	53248	0	51200	1	53248	0	0.7	51200	red	blue	0	2	ml	2.7.3	bip	sub-13_ses-01_task-ml_proj-bip_2021-01-13-10-33-01.715389
227	13	1	5	228	stable	8	200	28	vs	blue	red	blue	red	left	right	0.30000000000000004	0.7	6	6	1.8000000000000005	4.199999999999998	0	1	0.30000000000000004	0.7	6	6	1.8000000000000005	4.199999999999998	valid	0.3665967819997604	53248	0	1	2	53248	1	53248	1	53248	1	0.7	53248	red	blue	0	6	ml	2.7.3	bip	sub-13_ses-01_task-ml_proj-bip_2021-01-13-10-33-01.715389
228	13	1	5	229	stable	8	200	29	vs	red	blue	blue	red	right	left	0.30000000000000004	0.7	2	2	0.6000000000000001	1.4	1	0	0.7	0.30000000000000004	2	2	1.4	0.6000000000000001	invalid	0.5332062609995774	51200	0	0	2	51200	1	51200	1	53248	0	0.7	51200	red	blue	1	0	ml	2.7.3	bip	sub-13_ses-01_task-ml_proj-bip_2021-01-13-10-33-01.715389
229	13	1	5	230	stable	8	200	30	vs	blue	red	blue	red	left	right	0.30000000000000004	0.7	4	2	1.2000000000000002	1.4	0	1	0.30000000000000004	0.7	4	2	1.2000000000000002	1.4	valid	1.0663842339999974	51200	0	0	1	53248	0	53248	0	51200	1	0.7	53248	red	blue	0	0	ml	2.7.3	bip	sub-13_ses-01_task-ml_proj-bip_2021-01-13-10-33-01.715389
230	13	1	5	231	stable	8	200	31	vs	red	blue	blue	red	right	left	0.30000000000000004	0.7	6	2	1.8000000000000005	1.4	0	1	0.7	0.30000000000000004	2	6	1.4	1.8000000000000005	valid	0.833131315999708	53248	0	1	1	53248	1	51200	0	53248	1	0.7	51200	red	blue	0	0	ml	2.7.3	bip	sub-13_ses-01_task-ml_proj-bip_2021-01-13-10-33-01.715389
231	13	1	5	232	stable	8	200	32	vs	blue	red	blue	red	left	right	0.30000000000000004	0.7	2	2	0.6000000000000001	1.4	0	1	0.30000000000000004	0.7	2	2	0.6000000000000001	1.4	valid	0.5165537490011047	53248	0	1	2	53248	1	53248	1	53248	1	0.7	53248	red	blue	0	2	ml	2.7.3	bip	sub-13_ses-01_task-ml_proj-bip_2021-01-13-10-33-01.715389
232	13	1	5	233	stable	8	200	33	vs	blue	red	blue	red	left	right	0.30000000000000004	0.7	6	6	1.8000000000000005	4.199999999999998	0	1	0.30000000000000004	0.7	6	6	1.8000000000000005	4.199999999999998	valid	0.5165546540010837	53248	0	1	2	53248	1	53248	1	53248	1	0.7	53248	red	blue	0	6	ml	2.7.3	bip	sub-13_ses-01_task-ml_proj-bip_2021-01-13-10-33-01.715389
233	13	1	5	234	stable	8	200	34	vs	blue	red	blue	red	left	right	0.30000000000000004	0.7	6	2	1.8000000000000005	1.4	0	1	0.30000000000000004	0.7	6	2	1.8000000000000005	1.4	valid	0.8331270729995595	53248	0	1	2	51200	0	53248	1	51200	0	0.7	53248	red	blue	0	2	ml	2.7.3	bip	sub-13_ses-01_task-ml_proj-bip_2021-01-13-10-33-01.715389
234	13	1	5	235	stable	8	200	35	vs	red	blue	blue	red	right	left	0.30000000000000004	0.7	6	2	1.8000000000000005	1.4	0	1	0.7	0.30000000000000004	2	6	1.4	1.8000000000000005	valid	0.8164648749989283	53248	0	1	1	53248	1	51200	0	53248	1	0.7	51200	red	blue	0	0	ml	2.7.3	bip	sub-13_ses-01_task-ml_proj-bip_2021-01-13-10-33-01.715389
235	13	1	5	236	stable	8	200	36	vs	blue	red	blue	red	left	right	0.30000000000000004	0.7	10	2	3.0000000000000004	1.4	1	0	0.30000000000000004	0.7	10	2	3.0000000000000004	1.4	invalid	0.5332070530002966	51200	0	0	1	51200	1	53248	0	51200	1	0.7	53248	red	blue	0	10	ml	2.7.3	bip	sub-13_ses-01_task-ml_proj-bip_2021-01-13-10-33-01.715389
236	13	1	5	237	stable	8	200	37	vs	red	blue	blue	red	right	left	0.30000000000000004	0.7	6	6	1.8000000000000005	4.199999999999998	1	0	0.7	0.30000000000000004	6	6	4.199999999999998	1.8000000000000005	invalid	0.4499051490001875	53248	0	1	1	51200	0	51200	0	53248	1	0.7	51200	red	blue	1	6	ml	2.7.3	bip	sub-13_ses-01_task-ml_proj-bip_2021-01-13-10-33-01.715389
237	13	1	5	238	stable	8	200	38	vs	blue	red	blue	red	left	right	0.30000000000000004	0.7	6	4	1.8000000000000005	2.8	0	1	0.30000000000000004	0.7	6	4	1.8000000000000005	2.8	valid	0.4332288010009506	51200	0	0	1	53248	0	53248	0	51200	1	0.7	53248	red	blue	0	0	ml	2.7.3	bip	sub-13_ses-01_task-ml_proj-bip_2021-01-13-10-33-01.715389
238	13	1	5	239	stable	8	200	39	vs	red	blue	blue	red	right	left	0.30000000000000004	0.7	4	6	1.2000000000000002	4.199999999999998	0	1	0.7	0.30000000000000004	6	4	4.199999999999998	1.2000000000000002	valid	0.4998925260006217	53248	0	1	1	51200	0	51200	0	51200	0	0.7	51200	red	blue	1	0	ml	2.7.3	bip	sub-13_ses-01_task-ml_proj-bip_2021-01-13-10-33-01.715389
239	13	1	5	240	stable	8	200	40	vs	blue	red	blue	red	left	right	0.30000000000000004	0.7	2	4	0.6000000000000001	2.8	0	1	0.30000000000000004	0.7	2	4	0.6000000000000001	2.8	valid	0.44990406000033545	53248	0	1	2	53248	1	53248	1	53248	1	0.7	53248	red	blue	1	4	ml	2.7.3	bip	sub-13_ses-01_task-ml_proj-bip_2021-01-13-10-33-01.715389
240	13	1	5	241	stable	8	200	41	vs	red	blue	blue	red	right	left	0.30000000000000004	0.7	4	2	1.2000000000000002	1.4	1	0	0.7	0.30000000000000004	2	4	1.4	1.2000000000000002	invalid	0.4332330990000628	51200	0	0	2	51200	1	51200	1	53248	0	0.7	51200	red	blue	0	0	ml	2.7.3	bip	sub-13_ses-01_task-ml_proj-bip_2021-01-13-10-33-01.715389
241	13	1	5	242	stable	8	200	42	vs	blue	red	blue	red	left	right	0.30000000000000004	0.7	10	2	3.0000000000000004	1.4	1	0	0.30000000000000004	0.7	10	2	3.0000000000000004	1.4	invalid	0.9497499450008036	51200	0	0	1	51200	1	53248	0	51200	1	0.7	53248	red	blue	0	10	ml	2.7.3	bip	sub-13_ses-01_task-ml_proj-bip_2021-01-13-10-33-01.715389
242	13	1	5	243	stable	8	200	43	vs	blue	red	blue	red	left	right	0.30000000000000004	0.7	2	6	0.6000000000000001	4.199999999999998	0	1	0.30000000000000004	0.7	2	6	0.6000000000000001	4.199999999999998	valid	0.7331557329998759	53248	0	1	2	53248	1	53248	1	53248	1	0.7	53248	red	blue	1	6	ml	2.7.3	bip	sub-13_ses-01_task-ml_proj-bip_2021-01-13-10-33-01.715389
243	13	1	5	244	stable	8	200	44	vs	red	blue	blue	red	right	left	0.30000000000000004	0.7	2	2	0.6000000000000001	1.4	1	0	0.7	0.30000000000000004	2	2	1.4	0.6000000000000001	invalid	0.8497933899998316	53248	0	1	1	51200	0	51200	0	53248	1	0.7	51200	red	blue	1	2	ml	2.7.3	bip	sub-13_ses-01_task-ml_proj-bip_2021-01-13-10-33-01.715389
244	13	1	5	245	stable	8	200	45	vs	red	blue	blue	red	right	left	0.30000000000000004	0.7	4	6	1.2000000000000002	4.199999999999998	0	1	0.7	0.30000000000000004	6	4	4.199999999999998	1.2000000000000002	valid	1.133041150000281	53248	0	1	1	51200	0	51200	0	51200	0	0.7	51200	red	blue	1	0	ml	2.7.3	bip	sub-13_ses-01_task-ml_proj-bip_2021-01-13-10-33-01.715389
245	13	1	5	246	stable	8	200	46	vs	red	blue	blue	red	right	left	0.30000000000000004	0.7	2	10	0.6000000000000001	7.0	0	1	0.7	0.30000000000000004	10	2	7.0	0.6000000000000001	valid	0.733149305000552	51200	0	0	2	51200	1	51200	1	51200	1	0.7	51200	red	blue	1	10	ml	2.7.3	bip	sub-13_ses-01_task-ml_proj-bip_2021-01-13-10-33-01.715389
246	13	1	5	247	stable	8	200	47	vs	blue	red	blue	red	left	right	0.30000000000000004	0.7	2	2	0.6000000000000001	1.4	0	1	0.30000000000000004	0.7	2	2	0.6000000000000001	1.4	valid	0.7831400270006271	53248	0	1	2	53248	1	53248	1	53248	1	0.7	53248	red	blue	0	2	ml	2.7.3	bip	sub-13_ses-01_task-ml_proj-bip_2021-01-13-10-33-01.715389
247	13	1	5	248	stable	8	200	48	vs	blue	red	blue	red	left	right	0.30000000000000004	0.7	4	6	1.2000000000000002	4.199999999999998	0	1	0.30000000000000004	0.7	4	6	1.2000000000000002	4.199999999999998	valid	0.6998335249991214	53248	0	1	2	53248	1	53248	1	53248	1	0.7	53248	red	blue	1	6	ml	2.7.3	bip	sub-13_ses-01_task-ml_proj-bip_2021-01-13-10-33-01.715389
248	13	1	5	249	stable	8	200	49	vs	red	blue	blue	red	right	left	0.30000000000000004	0.7	2	10	0.6000000000000001	7.0	1	0	0.7	0.30000000000000004	10	2	7.0	0.6000000000000001	invalid	0.4498957079995307	51200	0	0	2	51200	1	51200	1	51200	1	0.7	51200	red	blue	1	0	ml	2.7.3	bip	sub-13_ses-01_task-ml_proj-bip_2021-01-13-10-33-01.715389
249	13	1	5	250	stable	8	200	50	vs	red	blue	blue	red	right	left	0.30000000000000004	0.7	6	2	1.8000000000000005	1.4	0	1	0.7	0.30000000000000004	2	6	1.4	1.8000000000000005	valid	0.38326344300003257	53248	0	1	1	53248	1	51200	0	53248	1	0.7	51200	red	blue	0	0	ml	2.7.3	bip	sub-13_ses-01_task-ml_proj-bip_2021-01-13-10-33-01.715389
250	13	1	6	251	stable	8	200	51	vs	blue	red	blue	red	left	right	0.30000000000000004	0.7	6	6	1.8000000000000005	4.199999999999998	0	1	0.30000000000000004	0.7	6	6	1.8000000000000005	4.199999999999998	valid	0.6665109739988111	53248	0	1	2	53248	1	53248	1	53248	1	0.7	53248	red	blue	0	6	ml	2.7.3	bip	sub-13_ses-01_task-ml_proj-bip_2021-01-13-10-33-01.715389
251	13	1	6	252	stable	8	200	52	vs	red	blue	blue	red	right	left	0.30000000000000004	0.7	2	2	0.6000000000000001	1.4	1	0	0.7	0.30000000000000004	2	2	1.4	0.6000000000000001	invalid	0.4332341130011628	51200	0	0	2	51200	1	51200	1	53248	0	0.7	51200	red	blue	1	0	ml	2.7.3	bip	sub-13_ses-01_task-ml_proj-bip_2021-01-13-10-33-01.715389
252	13	1	6	253	stable	8	200	53	vs	red	blue	blue	red	right	left	0.30000000000000004	0.7	2	10	0.6000000000000001	7.0	1	0	0.7	0.30000000000000004	10	2	7.0	0.6000000000000001	invalid	0.4332336709994706	51200	0	0	2	51200	1	51200	1	51200	1	0.7	51200	red	blue	1	0	ml	2.7.3	bip	sub-13_ses-01_task-ml_proj-bip_2021-01-13-10-33-01.715389
253	13	1	6	254	stable	8	200	54	vs	red	blue	blue	red	right	left	0.30000000000000004	0.7	2	2	0.6000000000000001	1.4	1	0	0.7	0.30000000000000004	2	2	1.4	0.6000000000000001	invalid	0.4499070320016472	53248	0	1	1	51200	0	51200	0	53248	1	0.7	51200	red	blue	1	2	ml	2.7.3	bip	sub-13_ses-01_task-ml_proj-bip_2021-01-13-10-33-01.715389
254	13	1	6	255	stable	8	200	55	vs	blue	red	blue	red	left	right	0.30000000000000004	0.7	2	2	0.6000000000000001	1.4	1	0	0.30000000000000004	0.7	2	2	0.6000000000000001	1.4	invalid	0.3665881320011977	51200	0	0	1	53248	0	53248	0	53248	0	0.7	53248	red	blue	0	2	ml	2.7.3	bip	sub-13_ses-01_task-ml_proj-bip_2021-01-13-10-33-01.715389
255	13	1	6	256	stable	8	200	56	vs	red	blue	blue	red	right	left	0.30000000000000004	0.7	4	2	1.2000000000000002	1.4	1	0	0.7	0.30000000000000004	2	4	1.4	1.2000000000000002	invalid	0.4499009079991083	53248	0	1	1	51200	0	51200	0	53248	1	0.7	51200	red	blue	0	4	ml	2.7.3	bip	sub-13_ses-01_task-ml_proj-bip_2021-01-13-10-33-01.715389
256	13	1	6	257	stable	8	200	57	vs	blue	red	blue	red	left	right	0.30000000000000004	0.7	6	6	1.8000000000000005	4.199999999999998	0	1	0.30000000000000004	0.7	6	6	1.8000000000000005	4.199999999999998	valid	0.5332075129990699	51200	0	0	1	53248	0	53248	0	53248	0	0.7	53248	red	blue	0	0	ml	2.7.3	bip	sub-13_ses-01_task-ml_proj-bip_2021-01-13-10-33-01.715389
257	13	1	6	258	stable	8	200	58	vs	blue	red	blue	red	left	right	0.30000000000000004	0.7	4	2	1.2000000000000002	1.4	1	0	0.30000000000000004	0.7	4	2	1.2000000000000002	1.4	invalid	0.4332364680012688	51200	0	0	1	53248	0	53248	0	51200	1	0.7	53248	red	blue	0	4	ml	2.7.3	bip	sub-13_ses-01_task-ml_proj-bip_2021-01-13-10-33-01.715389
258	13	1	6	259	stable	8	200	59	vs	blue	red	blue	red	left	right	0.30000000000000004	0.7	6	4	1.8000000000000005	2.8	0	1	0.30000000000000004	0.7	6	4	1.8000000000000005	2.8	valid	0.4165727670006163	51200	0	0	1	53248	0	53248	0	51200	1	0.7	53248	red	blue	0	0	ml	2.7.3	bip	sub-13_ses-01_task-ml_proj-bip_2021-01-13-10-33-01.715389
259	13	1	6	260	stable	8	200	60	vs	blue	red	blue	red	left	right	0.30000000000000004	0.7	2	4	0.6000000000000001	2.8	0	1	0.30000000000000004	0.7	2	4	0.6000000000000001	2.8	valid	0.6498494320003374	53248	0	1	2	53248	1	53248	1	53248	1	0.7	53248	red	blue	1	4	ml	2.7.3	bip	sub-13_ses-01_task-ml_proj-bip_2021-01-13-10-33-01.715389
260	13	1	6	261	stable	8	200	61	vs	red	blue	blue	red	right	left	0.30000000000000004	0.7	6	2	1.8000000000000005	1.4	1	0	0.7	0.30000000000000004	2	6	1.4	1.8000000000000005	invalid	0.7498187300006975	53248	0	1	1	53248	1	51200	0	53248	1	0.7	51200	red	blue	0	6	ml	2.7.3	bip	sub-13_ses-01_task-ml_proj-bip_2021-01-13-10-33-01.715389
261	13	1	6	262	stable	8	200	62	vs	blue	red	blue	red	left	right	0.30000000000000004	0.7	6	6	1.8000000000000005	4.199999999999998	0	1	0.30000000000000004	0.7	6	6	1.8000000000000005	4.199999999999998	valid	0.7831324599992513	51200	0	0	1	53248	0	53248	0	53248	0	0.7	53248	red	blue	0	0	ml	2.7.3	bip	sub-13_ses-01_task-ml_proj-bip_2021-01-13-10-33-01.715389
262	13	1	6	263	stable	8	200	63	vs	red	blue	blue	red	right	left	0.30000000000000004	0.7	6	4	1.8000000000000005	2.8	0	1	0.7	0.30000000000000004	4	6	2.8	1.8000000000000005	valid	0.7664654079999309	51200	0	0	2	51200	1	51200	1	53248	0	0.7	51200	red	blue	0	4	ml	2.7.3	bip	sub-13_ses-01_task-ml_proj-bip_2021-01-13-10-33-01.715389
263	13	1	6	264	stable	8	200	64	vs	blue	red	blue	red	left	right	0.30000000000000004	0.7	2	6	0.6000000000000001	4.199999999999998	0	1	0.30000000000000004	0.7	2	6	0.6000000000000001	4.199999999999998	valid	0.3999177000005147	53248	0	1	2	53248	1	53248	1	53248	1	0.7	53248	red	blue	1	6	ml	2.7.3	bip	sub-13_ses-01_task-ml_proj-bip_2021-01-13-10-33-01.715389
264	13	1	6	265	stable	8	200	65	vs	blue	red	blue	red	left	right	0.30000000000000004	0.7	6	4	1.8000000000000005	2.8	0	1	0.30000000000000004	0.7	6	4	1.8000000000000005	2.8	valid	0.5665434679995087	53248	0	1	2	53248	1	53248	1	51200	0	0.7	53248	red	blue	0	4	ml	2.7.3	bip	sub-13_ses-01_task-ml_proj-bip_2021-01-13-10-33-01.715389
265	13	1	6	266	stable	8	200	66	vs	blue	red	blue	red	left	right	0.30000000000000004	0.7	6	4	1.8000000000000005	2.8	0	1	0.30000000000000004	0.7	6	4	1.8000000000000005	2.8	valid	0.4832301719998213	53248	0	1	2	53248	1	53248	1	51200	0	0.7	53248	red	blue	0	4	ml	2.7.3	bip	sub-13_ses-01_task-ml_proj-bip_2021-01-13-10-33-01.715389
266	13	1	6	267	stable	8	200	67	vs	blue	red	blue	red	left	right	0.30000000000000004	0.7	6	2	1.8000000000000005	1.4	0	1	0.30000000000000004	0.7	6	2	1.8000000000000005	1.4	valid	0.6331879749996006	53248	0	1	2	51200	0	53248	1	51200	0	0.7	53248	red	blue	0	2	ml	2.7.3	bip	sub-13_ses-01_task-ml_proj-bip_2021-01-13-10-33-01.715389
267	13	1	6	268	stable	8	200	68	vs	red	blue	blue	red	right	left	0.30000000000000004	0.7	4	6	1.2000000000000002	4.199999999999998	0	1	0.7	0.30000000000000004	6	4	4.199999999999998	1.2000000000000002	valid	0.4165718019994529	51200	0	0	2	51200	1	51200	1	51200	1	0.7	51200	red	blue	1	6	ml	2.7.3	bip	sub-13_ses-01_task-ml_proj-bip_2021-01-13-10-33-01.715389
268	13	1	6	269	stable	8	200	69	vs	red	blue	blue	red	right	left	0.30000000000000004	0.7	10	2	3.0000000000000004	1.4	0	1	0.7	0.30000000000000004	2	10	1.4	3.0000000000000004	valid	0.8664484750006523	53248	0	1	1	53248	1	51200	0	53248	1	0.7	51200	red	blue	0	0	ml	2.7.3	bip	sub-13_ses-01_task-ml_proj-bip_2021-01-13-10-33-01.715389
269	13	1	6	270	stable	8	200	70	vs	blue	red	blue	red	left	right	0.30000000000000004	0.7	6	6	1.8000000000000005	4.199999999999998	0	1	0.30000000000000004	0.7	6	6	1.8000000000000005	4.199999999999998	valid	0.5498759780002729	53248	0	1	2	53248	1	53248	1	53248	1	0.7	53248	red	blue	0	6	ml	2.7.3	bip	sub-13_ses-01_task-ml_proj-bip_2021-01-13-10-33-01.715389
270	13	1	6	271	stable	8	200	71	vs	blue	red	blue	red	left	right	0.30000000000000004	0.7	2	4	0.6000000000000001	2.8	0	1	0.30000000000000004	0.7	2	4	0.6000000000000001	2.8	valid	0.5165540399993915	53248	0	1	2	53248	1	53248	1	53248	1	0.7	53248	red	blue	1	4	ml	2.7.3	bip	sub-13_ses-01_task-ml_proj-bip_2021-01-13-10-33-01.715389
271	13	1	6	272	stable	8	200	72	vs	red	blue	blue	red	right	left	0.30000000000000004	0.7	6	2	1.8000000000000005	1.4	0	1	0.7	0.30000000000000004	2	6	1.4	1.8000000000000005	valid	0.5998538510011713	51200	0	0	2	53248	0	51200	1	53248	0	0.7	51200	red	blue	0	2	ml	2.7.3	bip	sub-13_ses-01_task-ml_proj-bip_2021-01-13-10-33-01.715389
272	13	1	6	273	stable	8	200	73	vs	blue	red	blue	red	left	right	0.30000000000000004	0.7	4	6	1.2000000000000002	4.199999999999998	0	1	0.30000000000000004	0.7	4	6	1.2000000000000002	4.199999999999998	valid	0.8997852609991241	53248	0	1	2	53248	1	53248	1	53248	1	0.7	53248	red	blue	1	6	ml	2.7.3	bip	sub-13_ses-01_task-ml_proj-bip_2021-01-13-10-33-01.715389
273	13	1	6	274	stable	8	200	74	vs	red	blue	blue	red	right	left	0.30000000000000004	0.7	6	2	1.8000000000000005	1.4	0	1	0.7	0.30000000000000004	2	6	1.4	1.8000000000000005	valid	1.3329863449998811	53248	0	1	1	53248	1	51200	0	53248	1	0.7	51200	red	blue	0	0	ml	2.7.3	bip	sub-13_ses-01_task-ml_proj-bip_2021-01-13-10-33-01.715389
274	13	1	6	275	stable	8	200	75	vs	red	blue	blue	red	right	left	0.30000000000000004	0.7	2	10	0.6000000000000001	7.0	1	0	0.7	0.30000000000000004	10	2	7.0	0.6000000000000001	invalid	0.5665256720003526	51200	0	0	2	51200	1	51200	1	51200	1	0.7	51200	red	blue	1	0	ml	2.7.3	bip	sub-13_ses-01_task-ml_proj-bip_2021-01-13-10-33-01.715389
275	13	1	6	276	stable	8	200	76	vs	blue	red	blue	red	left	right	0.30000000000000004	0.7	6	2	1.8000000000000005	1.4	1	0	0.30000000000000004	0.7	6	2	1.8000000000000005	1.4	invalid	0.8164567820003867	51200	0	0	1	51200	1	53248	0	51200	1	0.7	53248	red	blue	0	6	ml	2.7.3	bip	sub-13_ses-01_task-ml_proj-bip_2021-01-13-10-33-01.715389
276	13	1	6	277	stable	8	200	77	vs	blue	red	blue	red	left	right	0.30000000000000004	0.7	2	10	0.6000000000000001	7.0	1	0	0.30000000000000004	0.7	2	10	0.6000000000000001	7.0	invalid	0.6331911979996221	53248	0	1	2	53248	1	53248	1	53248	1	0.7	53248	red	blue	1	0	ml	2.7.3	bip	sub-13_ses-01_task-ml_proj-bip_2021-01-13-10-33-01.715389
277	13	1	6	278	stable	8	200	78	vs	red	blue	blue	red	right	left	0.30000000000000004	0.7	6	2	1.8000000000000005	1.4	1	0	0.7	0.30000000000000004	2	6	1.4	1.8000000000000005	invalid	0.4499037050009065	53248	0	1	1	53248	1	51200	0	53248	1	0.7	51200	red	blue	0	6	ml	2.7.3	bip	sub-13_ses-01_task-ml_proj-bip_2021-01-13-10-33-01.715389
278	13	1	6	279	stable	8	200	79	vs	red	blue	blue	red	right	left	0.30000000000000004	0.7	4	6	1.2000000000000002	4.199999999999998	0	1	0.7	0.30000000000000004	6	4	4.199999999999998	1.2000000000000002	valid	1.6662187410001934	53248	0	1	1	51200	0	51200	0	51200	0	0.7	51200	red	blue	1	0	ml	2.7.3	bip	sub-13_ses-01_task-ml_proj-bip_2021-01-13-10-33-01.715389
279	13	1	6	280	stable	8	200	80	vs	blue	red	blue	red	left	right	0.30000000000000004	0.7	2	4	0.6000000000000001	2.8	1	0	0.30000000000000004	0.7	2	4	0.6000000000000001	2.8	invalid	0.933099666999624	53248	0	1	2	53248	1	53248	1	53248	1	0.7	53248	red	blue	1	0	ml	2.7.3	bip	sub-13_ses-01_task-ml_proj-bip_2021-01-13-10-33-01.715389
280	13	1	6	281	stable	8	200	81	vs	blue	red	blue	red	left	right	0.30000000000000004	0.7	6	2	1.8000000000000005	1.4	0	1	0.30000000000000004	0.7	6	2	1.8000000000000005	1.4	valid	0.5498649640012445	51200	0	0	1	51200	1	53248	0	51200	1	0.7	53248	red	blue	0	0	ml	2.7.3	bip	sub-13_ses-01_task-ml_proj-bip_2021-01-13-10-33-01.715389
281	13	1	6	282	stable	8	200	82	vs	red	blue	blue	red	right	left	0.30000000000000004	0.7	2	4	0.6000000000000001	2.8	1	0	0.7	0.30000000000000004	4	2	2.8	0.6000000000000001	invalid	1.033070798999688	53248	0	1	1	51200	0	51200	0	51200	0	0.7	51200	red	blue	1	2	ml	2.7.3	bip	sub-13_ses-01_task-ml_proj-bip_2021-01-13-10-33-01.715389
282	13	1	6	283	stable	8	200	83	vs	blue	red	blue	red	left	right	0.30000000000000004	0.7	6	6	1.8000000000000005	4.199999999999998	0	1	0.30000000000000004	0.7	6	6	1.8000000000000005	4.199999999999998	valid	0.6165157949999411	51200	0	0	1	53248	0	53248	0	53248	0	0.7	53248	red	blue	0	0	ml	2.7.3	bip	sub-13_ses-01_task-ml_proj-bip_2021-01-13-10-33-01.715389
283	13	1	6	284	stable	8	200	84	vs	blue	red	blue	red	left	right	0.30000000000000004	0.7	2	2	0.6000000000000001	1.4	0	1	0.30000000000000004	0.7	2	2	0.6000000000000001	1.4	valid	0.6831719350011554	53248	0	1	2	53248	1	53248	1	53248	1	0.7	53248	red	blue	0	2	ml	2.7.3	bip	sub-13_ses-01_task-ml_proj-bip_2021-01-13-10-33-01.715389
284	13	1	6	285	stable	8	200	85	vs	red	blue	blue	red	right	left	0.30000000000000004	0.7	2	10	0.6000000000000001	7.0	1	0	0.7	0.30000000000000004	10	2	7.0	0.6000000000000001	invalid	0.6165150220003852	51200	0	0	2	51200	1	51200	1	51200	1	0.7	51200	red	blue	1	0	ml	2.7.3	bip	sub-13_ses-01_task-ml_proj-bip_2021-01-13-10-33-01.715389
285	13	1	6	286	stable	8	200	86	vs	blue	red	blue	red	left	right	0.30000000000000004	0.7	2	10	0.6000000000000001	7.0	0	1	0.30000000000000004	0.7	2	10	0.6000000000000001	7.0	valid	0.4998929739995219	53248	0	1	2	53248	1	53248	1	53248	1	0.7	53248	red	blue	1	10	ml	2.7.3	bip	sub-13_ses-01_task-ml_proj-bip_2021-01-13-10-33-01.715389
286	13	1	6	287	stable	8	200	87	vs	red	blue	blue	red	right	left	0.30000000000000004	0.7	10	2	3.0000000000000004	1.4	0	1	0.7	0.30000000000000004	2	10	1.4	3.0000000000000004	valid	0.7331553829990298	53248	0	1	1	53248	1	51200	0	53248	1	0.7	51200	red	blue	0	0	ml	2.7.3	bip	sub-13_ses-01_task-ml_proj-bip_2021-01-13-10-33-01.715389
287	13	1	6	288	stable	8	200	88	vs	blue	red	blue	red	left	right	0.30000000000000004	0.7	2	2	0.6000000000000001	1.4	0	1	0.30000000000000004	0.7	2	2	0.6000000000000001	1.4	valid	0.7664878110008431	53248	0	1	2	53248	1	53248	1	53248	1	0.7	53248	red	blue	0	2	ml	2.7.3	bip	sub-13_ses-01_task-ml_proj-bip_2021-01-13-10-33-01.715389
288	13	1	6	289	stable	8	200	89	vs	blue	red	blue	red	left	right	0.30000000000000004	0.7	2	2	0.6000000000000001	1.4	0	1	0.30000000000000004	0.7	2	2	0.6000000000000001	1.4	valid	0.4998875099990983	53248	0	1	2	53248	1	53248	1	53248	1	0.7	53248	red	blue	0	2	ml	2.7.3	bip	sub-13_ses-01_task-ml_proj-bip_2021-01-13-10-33-01.715389
289	13	1	6	290	stable	8	200	90	vs	red	blue	blue	red	right	left	0.30000000000000004	0.7	4	2	1.2000000000000002	1.4	0	1	0.7	0.30000000000000004	2	4	1.4	1.2000000000000002	valid	0.6665059210008621	51200	0	0	2	51200	1	51200	1	53248	0	0.7	51200	red	blue	0	2	ml	2.7.3	bip	sub-13_ses-01_task-ml_proj-bip_2021-01-13-10-33-01.715389
290	13	1	6	291	stable	8	200	91	vs	red	blue	blue	red	right	left	0.30000000000000004	0.7	6	2	1.8000000000000005	1.4	0	1	0.7	0.30000000000000004	2	6	1.4	1.8000000000000005	valid	0.8331169310004043	51200	0	0	2	53248	0	51200	1	53248	0	0.7	51200	red	blue	0	2	ml	2.7.3	bip	sub-13_ses-01_task-ml_proj-bip_2021-01-13-10-33-01.715389
291	13	1	6	292	stable	8	200	92	vs	blue	red	blue	red	left	right	0.30000000000000004	0.7	4	6	1.2000000000000002	4.199999999999998	0	1	0.30000000000000004	0.7	4	6	1.2000000000000002	4.199999999999998	valid	0.7998031019997143	53248	0	1	2	53248	1	53248	1	53248	1	0.7	53248	red	blue	1	6	ml	2.7.3	bip	sub-13_ses-01_task-ml_proj-bip_2021-01-13-10-33-01.715389
292	13	1	6	293	stable	8	200	93	vs	red	blue	blue	red	right	left	0.30000000000000004	0.7	2	10	0.6000000000000001	7.0	0	1	0.7	0.30000000000000004	10	2	7.0	0.6000000000000001	valid	0.4665576709994639	51200	0	0	2	51200	1	51200	1	51200	1	0.7	51200	red	blue	1	10	ml	2.7.3	bip	sub-13_ses-01_task-ml_proj-bip_2021-01-13-10-33-01.715389
293	13	1	6	294	stable	8	200	94	vs	red	blue	blue	red	right	left	0.30000000000000004	0.7	10	2	3.0000000000000004	1.4	0	1	0.7	0.30000000000000004	2	10	1.4	3.0000000000000004	valid	1.066393266999512	53248	0	1	1	53248	1	51200	0	53248	1	0.7	51200	red	blue	0	0	ml	2.7.3	bip	sub-13_ses-01_task-ml_proj-bip_2021-01-13-10-33-01.715389
294	13	1	6	295	stable	8	200	95	vs	blue	red	blue	red	left	right	0.30000000000000004	0.7	6	4	1.8000000000000005	2.8	0	1	0.30000000000000004	0.7	6	4	1.8000000000000005	2.8	valid	1.1330466870003877	53248	0	1	2	53248	1	53248	1	51200	0	0.7	53248	red	blue	0	4	ml	2.7.3	bip	sub-13_ses-01_task-ml_proj-bip_2021-01-13-10-33-01.715389
295	13	1	6	296	stable	8	200	96	vs	red	blue	blue	red	right	left	0.30000000000000004	0.7	2	6	0.6000000000000001	4.199999999999998	0	1	0.7	0.30000000000000004	6	2	4.199999999999998	0.6000000000000001	valid	0.5498645999996371	51200	0	0	2	51200	1	51200	1	51200	1	0.7	51200	red	blue	1	6	ml	2.7.3	bip	sub-13_ses-01_task-ml_proj-bip_2021-01-13-10-33-01.715389
296	13	1	6	297	stable	8	200	97	vs	blue	red	blue	red	left	right	0.30000000000000004	0.7	4	6	1.2000000000000002	4.199999999999998	1	0	0.30000000000000004	0.7	4	6	1.2000000000000002	4.199999999999998	invalid	0.5498787659998925	53248	0	1	2	53248	1	53248	1	53248	1	0.7	53248	red	blue	1	0	ml	2.7.3	bip	sub-13_ses-01_task-ml_proj-bip_2021-01-13-10-33-01.715389
297	13	1	6	298	stable	8	200	98	vs	blue	red	blue	red	left	right	0.30000000000000004	0.7	2	6	0.6000000000000001	4.199999999999998	1	0	0.30000000000000004	0.7	2	6	0.6000000000000001	4.199999999999998	invalid	0.5998616109991417	53248	0	1	2	53248	1	53248	1	53248	1	0.7	53248	red	blue	1	0	ml	2.7.3	bip	sub-13_ses-01_task-ml_proj-bip_2021-01-13-10-33-01.715389
