Unnamed: 0	sub_id	ses_id	block_no	trial_no	phase_type	phase_no	phase_length	trialInPhase_no	phase_type_order	color_left	color_right	color1	color2	position1	position2	prob1	prob2	mag1	mag2	ev1	ev2	outcome1	outcome2	prob_left	prob_right	mag_left	mag_right	ev_left	ev_right	reward_validity	resp_time	resp_key	timeout	choice_side	choice	ev_corr_resp	ev_correct	prob_corr_resp	prob_correct	mag_corr_resp	mag_correct	high_prob	high_prob_side	high_prob_color	low_prob_color	no_brain	reward	name	version	proj_id	logFileID
0	9	2	1	1	stable	1	200	1	sv	brown	green	brown	green	left	right	0.7	0.30000000000000004	10	2	7.0	0.6000000000000001	1	0	0.7	0.30000000000000004	10	2	7.0	0.6000000000000001	valid	0.5665289360003953	51200	0	0	1	51200	1	51200	1	51200	1	0.7	51200	brown	green	1	10	ml	2.7.3	lorasick	sub-09_ses-02_task-ml_proj-lorasick_2021-02-10-13-57-33.693845
1	9	2	1	2	stable	1	200	2	sv	green	brown	brown	green	right	left	0.7	0.30000000000000004	2	10	1.4	3.0000000000000004	0	1	0.30000000000000004	0.7	10	2	3.0000000000000004	1.4	invalid	0.5165627290007251	53248	0	1	1	51200	0	53248	1	51200	0	0.7	53248	brown	green	0	0	ml	2.7.3	lorasick	sub-09_ses-02_task-ml_proj-lorasick_2021-02-10-13-57-33.693845
2	9	2	1	3	stable	1	200	3	sv	brown	green	brown	green	left	right	0.7	0.30000000000000004	6	2	4.199999999999998	0.6000000000000001	1	0	0.7	0.30000000000000004	6	2	4.199999999999998	0.6000000000000001	valid	0.3665966200023831	53248	0	1	2	51200	0	51200	0	51200	0	0.7	51200	brown	green	1	0	ml	2.7.3	lorasick	sub-09_ses-02_task-ml_proj-lorasick_2021-02-10-13-57-33.693845
3	9	2	1	4	stable	1	200	4	sv	brown	green	brown	green	left	right	0.7	0.30000000000000004	4	2	2.8	0.6000000000000001	0	1	0.7	0.30000000000000004	4	2	2.8	0.6000000000000001	invalid	0.6831801419975818	53248	0	1	2	51200	0	51200	0	51200	0	0.7	51200	brown	green	1	2	ml	2.7.3	lorasick	sub-09_ses-02_task-ml_proj-lorasick_2021-02-10-13-57-33.693845
4	9	2	1	5	stable	1	200	5	sv	green	brown	brown	green	right	left	0.7	0.30000000000000004	10	2	7.0	0.6000000000000001	1	0	0.30000000000000004	0.7	2	10	0.6000000000000001	7.0	valid	0.7664725540016661	51200	0	0	2	53248	0	53248	0	53248	0	0.7	53248	brown	green	1	0	ml	2.7.3	lorasick	sub-09_ses-02_task-ml_proj-lorasick_2021-02-10-13-57-33.693845
5	9	2	1	6	stable	1	200	6	sv	green	brown	brown	green	right	left	0.7	0.30000000000000004	6	6	4.199999999999998	1.8000000000000005	1	0	0.30000000000000004	0.7	6	6	1.8000000000000005	4.199999999999998	valid	0.4665576469997177	51200	0	0	2	53248	0	53248	0	53248	0	0.7	53248	brown	green	0	0	ml	2.7.3	lorasick	sub-09_ses-02_task-ml_proj-lorasick_2021-02-10-13-57-33.693845
6	9	2	1	7	stable	1	200	7	sv	brown	green	brown	green	left	right	0.7	0.30000000000000004	2	2	1.4	0.6000000000000001	1	0	0.7	0.30000000000000004	2	2	1.4	0.6000000000000001	valid	0.4665659810016223	53248	0	1	2	51200	0	51200	0	53248	1	0.7	51200	brown	green	1	0	ml	2.7.3	lorasick	sub-09_ses-02_task-ml_proj-lorasick_2021-02-10-13-57-33.693845
7	9	2	1	8	stable	1	200	8	sv	brown	green	brown	green	left	right	0.7	0.30000000000000004	6	2	4.199999999999998	0.6000000000000001	1	0	0.7	0.30000000000000004	6	2	4.199999999999998	0.6000000000000001	valid	0.3499273610032105	51200	0	0	1	51200	1	51200	1	51200	1	0.7	51200	brown	green	1	6	ml	2.7.3	lorasick	sub-09_ses-02_task-ml_proj-lorasick_2021-02-10-13-57-33.693845
8	9	2	1	9	stable	1	200	9	sv	brown	green	brown	green	left	right	0.7	0.30000000000000004	2	4	1.4	1.2000000000000002	0	1	0.7	0.30000000000000004	2	4	1.4	1.2000000000000002	invalid	0.33326407200001995	51200	0	0	1	51200	1	51200	1	53248	0	0.7	51200	brown	green	0	0	ml	2.7.3	lorasick	sub-09_ses-02_task-ml_proj-lorasick_2021-02-10-13-57-33.693845
9	9	2	1	10	stable	1	200	10	sv	brown	green	brown	green	left	right	0.7	0.30000000000000004	2	6	1.4	1.8000000000000005	1	0	0.7	0.30000000000000004	2	6	1.4	1.8000000000000005	valid	0.39991074400313664	51200	0	0	1	53248	0	51200	1	53248	0	0.7	51200	brown	green	0	2	ml	2.7.3	lorasick	sub-09_ses-02_task-ml_proj-lorasick_2021-02-10-13-57-33.693845
10	9	2	1	11	stable	1	200	11	sv	green	brown	brown	green	right	left	0.7	0.30000000000000004	4	2	2.8	0.6000000000000001	0	1	0.30000000000000004	0.7	2	4	0.6000000000000001	2.8	invalid	0.3832687540016195	53248	0	1	1	53248	1	53248	1	53248	1	0.7	53248	brown	green	1	0	ml	2.7.3	lorasick	sub-09_ses-02_task-ml_proj-lorasick_2021-02-10-13-57-33.693845
11	9	2	1	12	stable	1	200	12	sv	brown	green	brown	green	left	right	0.7	0.30000000000000004	6	6	4.199999999999998	1.8000000000000005	1	0	0.7	0.30000000000000004	6	6	4.199999999999998	1.8000000000000005	valid	0.33326199099974474	51200	0	0	1	51200	1	51200	1	53248	0	0.7	51200	brown	green	1	6	ml	2.7.3	lorasick	sub-09_ses-02_task-ml_proj-lorasick_2021-02-10-13-57-33.693845
12	9	2	1	13	stable	1	200	13	sv	brown	green	brown	green	left	right	0.7	0.30000000000000004	2	6	1.4	1.8000000000000005	1	0	0.7	0.30000000000000004	2	6	1.4	1.8000000000000005	valid	0.3499366450014349	53248	0	1	2	53248	1	51200	0	53248	1	0.7	51200	brown	green	0	0	ml	2.7.3	lorasick	sub-09_ses-02_task-ml_proj-lorasick_2021-02-10-13-57-33.693845
13	9	2	1	14	stable	1	200	14	sv	green	brown	brown	green	right	left	0.7	0.30000000000000004	2	2	1.4	0.6000000000000001	1	0	0.30000000000000004	0.7	2	2	0.6000000000000001	1.4	valid	0.4998884300002828	53248	0	1	1	53248	1	53248	1	53248	1	0.7	53248	brown	green	0	2	ml	2.7.3	lorasick	sub-09_ses-02_task-ml_proj-lorasick_2021-02-10-13-57-33.693845
14	9	2	1	15	stable	1	200	15	sv	green	brown	brown	green	right	left	0.7	0.30000000000000004	6	4	4.199999999999998	1.2000000000000002	1	0	0.30000000000000004	0.7	4	6	1.2000000000000002	4.199999999999998	valid	0.583208576998004	53248	0	1	1	53248	1	53248	1	53248	1	0.7	53248	brown	green	1	6	ml	2.7.3	lorasick	sub-09_ses-02_task-ml_proj-lorasick_2021-02-10-13-57-33.693845
15	9	2	1	16	stable	1	200	16	sv	green	brown	brown	green	right	left	0.7	0.30000000000000004	2	10	1.4	3.0000000000000004	1	0	0.30000000000000004	0.7	10	2	3.0000000000000004	1.4	valid	0.6498440750001464	53248	0	1	1	51200	0	53248	1	51200	0	0.7	53248	brown	green	0	2	ml	2.7.3	lorasick	sub-09_ses-02_task-ml_proj-lorasick_2021-02-10-13-57-33.693845
16	9	2	1	17	stable	1	200	17	sv	green	brown	brown	green	right	left	0.7	0.30000000000000004	2	4	1.4	1.2000000000000002	1	0	0.30000000000000004	0.7	4	2	1.2000000000000002	1.4	valid	0.4165741379983956	51200	0	0	2	53248	0	53248	0	51200	1	0.7	53248	brown	green	0	0	ml	2.7.3	lorasick	sub-09_ses-02_task-ml_proj-lorasick_2021-02-10-13-57-33.693845
17	9	2	1	18	stable	1	200	18	sv	green	brown	brown	green	right	left	0.7	0.30000000000000004	4	6	2.8	1.8000000000000005	1	0	0.30000000000000004	0.7	6	4	1.8000000000000005	2.8	valid	0.41658545799873536	53248	0	1	1	53248	1	53248	1	51200	0	0.7	53248	brown	green	0	4	ml	2.7.3	lorasick	sub-09_ses-02_task-ml_proj-lorasick_2021-02-10-13-57-33.693845
18	9	2	1	19	stable	1	200	19	sv	brown	green	brown	green	left	right	0.7	0.30000000000000004	4	2	2.8	0.6000000000000001	1	0	0.7	0.30000000000000004	4	2	2.8	0.6000000000000001	valid	0.5332206819985004	53248	0	1	2	51200	0	51200	0	51200	0	0.7	51200	brown	green	1	0	ml	2.7.3	lorasick	sub-09_ses-02_task-ml_proj-lorasick_2021-02-10-13-57-33.693845
19	9	2	1	20	stable	1	200	20	sv	brown	green	brown	green	left	right	0.7	0.30000000000000004	4	2	2.8	0.6000000000000001	0	1	0.7	0.30000000000000004	4	2	2.8	0.6000000000000001	invalid	0.3499240400014969	51200	0	0	1	51200	1	51200	1	51200	1	0.7	51200	brown	green	1	0	ml	2.7.3	lorasick	sub-09_ses-02_task-ml_proj-lorasick_2021-02-10-13-57-33.693845
20	9	2	1	21	stable	1	200	21	sv	brown	green	brown	green	left	right	0.7	0.30000000000000004	2	2	1.4	0.6000000000000001	1	0	0.7	0.30000000000000004	2	2	1.4	0.6000000000000001	valid	0.3999247289975756	53248	0	1	2	51200	0	51200	0	53248	1	0.7	51200	brown	green	1	0	ml	2.7.3	lorasick	sub-09_ses-02_task-ml_proj-lorasick_2021-02-10-13-57-33.693845
21	9	2	1	22	stable	1	200	22	sv	green	brown	brown	green	right	left	0.7	0.30000000000000004	6	4	4.199999999999998	1.2000000000000002	1	0	0.30000000000000004	0.7	4	6	1.2000000000000002	4.199999999999998	valid	0.3832567899989954	51200	0	0	2	53248	0	53248	0	53248	0	0.7	53248	brown	green	1	0	ml	2.7.3	lorasick	sub-09_ses-02_task-ml_proj-lorasick_2021-02-10-13-57-33.693845
22	9	2	1	23	stable	1	200	23	sv	green	brown	brown	green	right	left	0.7	0.30000000000000004	10	2	7.0	0.6000000000000001	0	1	0.30000000000000004	0.7	2	10	0.6000000000000001	7.0	invalid	0.29995122000036645	53248	0	1	1	53248	1	53248	1	53248	1	0.7	53248	brown	green	1	0	ml	2.7.3	lorasick	sub-09_ses-02_task-ml_proj-lorasick_2021-02-10-13-57-33.693845
23	9	2	1	24	stable	1	200	24	sv	green	brown	brown	green	right	left	0.7	0.30000000000000004	6	4	4.199999999999998	1.2000000000000002	0	1	0.30000000000000004	0.7	4	6	1.2000000000000002	4.199999999999998	invalid	0.29994096200243797	53248	0	1	1	53248	1	53248	1	53248	1	0.7	53248	brown	green	1	0	ml	2.7.3	lorasick	sub-09_ses-02_task-ml_proj-lorasick_2021-02-10-13-57-33.693845
24	9	2	1	25	stable	1	200	25	sv	green	brown	brown	green	right	left	0.7	0.30000000000000004	6	4	4.199999999999998	1.2000000000000002	1	0	0.30000000000000004	0.7	4	6	1.2000000000000002	4.199999999999998	valid	0.3499341220012866	53248	0	1	1	53248	1	53248	1	53248	1	0.7	53248	brown	green	1	6	ml	2.7.3	lorasick	sub-09_ses-02_task-ml_proj-lorasick_2021-02-10-13-57-33.693845
25	9	2	1	26	stable	1	200	26	sv	green	brown	brown	green	right	left	0.7	0.30000000000000004	6	2	4.199999999999998	0.6000000000000001	0	1	0.30000000000000004	0.7	2	6	0.6000000000000001	4.199999999999998	invalid	0.3332730849979271	53248	0	1	1	53248	1	53248	1	53248	1	0.7	53248	brown	green	1	0	ml	2.7.3	lorasick	sub-09_ses-02_task-ml_proj-lorasick_2021-02-10-13-57-33.693845
26	9	2	1	27	stable	1	200	27	sv	green	brown	brown	green	right	left	0.7	0.30000000000000004	6	2	4.199999999999998	0.6000000000000001	1	0	0.30000000000000004	0.7	2	6	0.6000000000000001	4.199999999999998	valid	0.3332602320006117	51200	0	0	2	53248	0	53248	0	53248	0	0.7	53248	brown	green	1	0	ml	2.7.3	lorasick	sub-09_ses-02_task-ml_proj-lorasick_2021-02-10-13-57-33.693845
27	9	2	1	28	stable	1	200	28	sv	green	brown	brown	green	right	left	0.7	0.30000000000000004	4	6	2.8	1.8000000000000005	1	0	0.30000000000000004	0.7	6	4	1.8000000000000005	2.8	valid	0.29994033299954026	51200	0	0	2	53248	0	53248	0	51200	1	0.7	53248	brown	green	0	0	ml	2.7.3	lorasick	sub-09_ses-02_task-ml_proj-lorasick_2021-02-10-13-57-33.693845
28	9	2	1	29	stable	1	200	29	sv	green	brown	brown	green	right	left	0.7	0.30000000000000004	2	2	1.4	0.6000000000000001	1	0	0.30000000000000004	0.7	2	2	0.6000000000000001	1.4	valid	0.2999487060005777	53248	0	1	1	53248	1	53248	1	53248	1	0.7	53248	brown	green	0	2	ml	2.7.3	lorasick	sub-09_ses-02_task-ml_proj-lorasick_2021-02-10-13-57-33.693845
29	9	2	1	30	stable	1	200	30	sv	green	brown	brown	green	right	left	0.7	0.30000000000000004	2	4	1.4	1.2000000000000002	0	1	0.30000000000000004	0.7	4	2	1.2000000000000002	1.4	invalid	0.31660335999913514	51200	0	0	2	53248	0	53248	0	51200	1	0.7	53248	brown	green	0	4	ml	2.7.3	lorasick	sub-09_ses-02_task-ml_proj-lorasick_2021-02-10-13-57-33.693845
30	9	2	1	31	stable	1	200	31	sv	brown	green	brown	green	left	right	0.7	0.30000000000000004	2	6	1.4	1.8000000000000005	1	0	0.7	0.30000000000000004	2	6	1.4	1.8000000000000005	valid	0.3665999670010933	53248	0	1	2	53248	1	51200	0	53248	1	0.7	51200	brown	green	0	0	ml	2.7.3	lorasick	sub-09_ses-02_task-ml_proj-lorasick_2021-02-10-13-57-33.693845
31	9	2	1	32	stable	1	200	32	sv	brown	green	brown	green	left	right	0.7	0.30000000000000004	2	2	1.4	0.6000000000000001	0	1	0.7	0.30000000000000004	2	2	1.4	0.6000000000000001	invalid	0.5165603860004921	53248	0	1	2	51200	0	51200	0	53248	1	0.7	51200	brown	green	1	2	ml	2.7.3	lorasick	sub-09_ses-02_task-ml_proj-lorasick_2021-02-10-13-57-33.693845
32	9	2	1	33	stable	1	200	33	sv	brown	green	brown	green	left	right	0.7	0.30000000000000004	2	10	1.4	3.0000000000000004	0	1	0.7	0.30000000000000004	2	10	1.4	3.0000000000000004	invalid	0.333304207000765	53248	0	1	2	53248	1	51200	0	53248	1	0.7	51200	brown	green	0	10	ml	2.7.3	lorasick	sub-09_ses-02_task-ml_proj-lorasick_2021-02-10-13-57-33.693845
33	9	2	1	34	stable	1	200	34	sv	green	brown	brown	green	right	left	0.7	0.30000000000000004	2	4	1.4	1.2000000000000002	0	1	0.30000000000000004	0.7	4	2	1.2000000000000002	1.4	invalid	0.4332493359979708	53248	0	1	1	53248	1	53248	1	51200	0	0.7	53248	brown	green	0	0	ml	2.7.3	lorasick	sub-09_ses-02_task-ml_proj-lorasick_2021-02-10-13-57-33.693845
34	9	2	1	35	stable	1	200	35	sv	green	brown	brown	green	right	left	0.7	0.30000000000000004	2	4	1.4	1.2000000000000002	1	0	0.30000000000000004	0.7	4	2	1.2000000000000002	1.4	valid	0.41657297699930496	51200	0	0	2	53248	0	53248	0	51200	1	0.7	53248	brown	green	0	0	ml	2.7.3	lorasick	sub-09_ses-02_task-ml_proj-lorasick_2021-02-10-13-57-33.693845
35	9	2	1	36	stable	1	200	36	sv	green	brown	brown	green	right	left	0.7	0.30000000000000004	2	2	1.4	0.6000000000000001	1	0	0.30000000000000004	0.7	2	2	0.6000000000000001	1.4	valid	0.583203031001176	53248	0	1	1	53248	1	53248	1	53248	1	0.7	53248	brown	green	0	2	ml	2.7.3	lorasick	sub-09_ses-02_task-ml_proj-lorasick_2021-02-10-13-57-33.693845
36	9	2	1	37	stable	1	200	37	sv	green	brown	brown	green	right	left	0.7	0.30000000000000004	2	6	1.4	1.8000000000000005	0	1	0.30000000000000004	0.7	6	2	1.8000000000000005	1.4	invalid	0.34993521600335953	53248	0	1	1	51200	0	53248	1	51200	0	0.7	53248	brown	green	0	0	ml	2.7.3	lorasick	sub-09_ses-02_task-ml_proj-lorasick_2021-02-10-13-57-33.693845
37	9	2	1	38	stable	1	200	38	sv	green	brown	brown	green	right	left	0.7	0.30000000000000004	10	2	7.0	0.6000000000000001	0	1	0.30000000000000004	0.7	2	10	0.6000000000000001	7.0	invalid	0.5165644520020578	53248	0	1	1	53248	1	53248	1	53248	1	0.7	53248	brown	green	1	0	ml	2.7.3	lorasick	sub-09_ses-02_task-ml_proj-lorasick_2021-02-10-13-57-33.693845
38	9	2	1	39	stable	1	200	39	sv	brown	green	brown	green	left	right	0.7	0.30000000000000004	10	2	7.0	0.6000000000000001	0	1	0.7	0.30000000000000004	10	2	7.0	0.6000000000000001	invalid	0.4832199470001797	51200	0	0	1	51200	1	51200	1	51200	1	0.7	51200	brown	green	1	0	ml	2.7.3	lorasick	sub-09_ses-02_task-ml_proj-lorasick_2021-02-10-13-57-33.693845
39	9	2	1	40	stable	1	200	40	sv	brown	green	brown	green	left	right	0.7	0.30000000000000004	6	2	4.199999999999998	0.6000000000000001	1	0	0.7	0.30000000000000004	6	2	4.199999999999998	0.6000000000000001	valid	0.4998933589995431	53248	0	1	2	51200	0	51200	0	51200	0	0.7	51200	brown	green	1	0	ml	2.7.3	lorasick	sub-09_ses-02_task-ml_proj-lorasick_2021-02-10-13-57-33.693845
40	9	2	1	41	stable	1	200	41	sv	brown	green	brown	green	left	right	0.7	0.30000000000000004	10	2	7.0	0.6000000000000001	1	0	0.7	0.30000000000000004	10	2	7.0	0.6000000000000001	valid	0.5165557399996032	53248	0	1	2	51200	0	51200	0	51200	0	0.7	51200	brown	green	1	0	ml	2.7.3	lorasick	sub-09_ses-02_task-ml_proj-lorasick_2021-02-10-13-57-33.693845
41	9	2	1	42	stable	1	200	42	sv	green	brown	brown	green	right	left	0.7	0.30000000000000004	10	2	7.0	0.6000000000000001	1	0	0.30000000000000004	0.7	2	10	0.6000000000000001	7.0	valid	0.5832039849992725	53248	0	1	1	53248	1	53248	1	53248	1	0.7	53248	brown	green	1	10	ml	2.7.3	lorasick	sub-09_ses-02_task-ml_proj-lorasick_2021-02-10-13-57-33.693845
42	9	2	1	43	stable	1	200	43	sv	brown	green	brown	green	left	right	0.7	0.30000000000000004	2	6	1.4	1.8000000000000005	1	0	0.7	0.30000000000000004	2	6	1.4	1.8000000000000005	valid	0.3166027169972949	51200	0	0	1	53248	0	51200	1	53248	0	0.7	51200	brown	green	0	2	ml	2.7.3	lorasick	sub-09_ses-02_task-ml_proj-lorasick_2021-02-10-13-57-33.693845
43	9	2	1	44	stable	1	200	44	sv	green	brown	brown	green	right	left	0.7	0.30000000000000004	2	2	1.4	0.6000000000000001	0	1	0.30000000000000004	0.7	2	2	0.6000000000000001	1.4	invalid	0.3332749740002328	53248	0	1	1	53248	1	53248	1	53248	1	0.7	53248	brown	green	0	0	ml	2.7.3	lorasick	sub-09_ses-02_task-ml_proj-lorasick_2021-02-10-13-57-33.693845
44	9	2	1	45	stable	1	200	45	sv	brown	green	brown	green	left	right	0.7	0.30000000000000004	4	6	2.8	1.8000000000000005	1	0	0.7	0.30000000000000004	4	6	2.8	1.8000000000000005	valid	0.399917116999859	53248	0	1	2	51200	0	51200	0	53248	1	0.7	51200	brown	green	0	0	ml	2.7.3	lorasick	sub-09_ses-02_task-ml_proj-lorasick_2021-02-10-13-57-33.693845
45	9	2	1	46	stable	1	200	46	sv	green	brown	brown	green	right	left	0.7	0.30000000000000004	10	2	7.0	0.6000000000000001	1	0	0.30000000000000004	0.7	2	10	0.6000000000000001	7.0	valid	0.4165848320008081	53248	0	1	1	53248	1	53248	1	53248	1	0.7	53248	brown	green	1	10	ml	2.7.3	lorasick	sub-09_ses-02_task-ml_proj-lorasick_2021-02-10-13-57-33.693845
46	9	2	1	47	stable	1	200	47	sv	brown	green	brown	green	left	right	0.7	0.30000000000000004	4	2	2.8	0.6000000000000001	1	0	0.7	0.30000000000000004	4	2	2.8	0.6000000000000001	valid	0.3999137659993721	51200	0	0	1	51200	1	51200	1	51200	1	0.7	51200	brown	green	1	4	ml	2.7.3	lorasick	sub-09_ses-02_task-ml_proj-lorasick_2021-02-10-13-57-33.693845
47	9	2	1	48	stable	1	200	48	sv	brown	green	brown	green	left	right	0.7	0.30000000000000004	2	6	1.4	1.8000000000000005	0	1	0.7	0.30000000000000004	2	6	1.4	1.8000000000000005	invalid	0.366587371998321	51200	0	0	1	53248	0	51200	1	53248	0	0.7	51200	brown	green	0	0	ml	2.7.3	lorasick	sub-09_ses-02_task-ml_proj-lorasick_2021-02-10-13-57-33.693845
48	9	2	1	49	stable	1	200	49	sv	green	brown	brown	green	right	left	0.7	0.30000000000000004	2	4	1.4	1.2000000000000002	1	0	0.30000000000000004	0.7	4	2	1.2000000000000002	1.4	valid	0.4165859839995392	53248	0	1	1	53248	1	53248	1	51200	0	0.7	53248	brown	green	0	2	ml	2.7.3	lorasick	sub-09_ses-02_task-ml_proj-lorasick_2021-02-10-13-57-33.693845
49	9	2	1	50	stable	1	200	50	sv	green	brown	brown	green	right	left	0.7	0.30000000000000004	6	4	4.199999999999998	1.2000000000000002	1	0	0.30000000000000004	0.7	4	6	1.2000000000000002	4.199999999999998	valid	0.366599444001622	53248	0	1	1	53248	1	53248	1	53248	1	0.7	53248	brown	green	1	6	ml	2.7.3	lorasick	sub-09_ses-02_task-ml_proj-lorasick_2021-02-10-13-57-33.693845
50	9	2	2	51	stable	1	200	51	sv	green	brown	brown	green	right	left	0.7	0.30000000000000004	6	6	4.199999999999998	1.8000000000000005	1	0	0.30000000000000004	0.7	6	6	1.8000000000000005	4.199999999999998	valid	0.2999384229988209	51200	0	0	2	53248	0	53248	0	53248	0	0.7	53248	brown	green	0	0	ml	2.7.3	lorasick	sub-09_ses-02_task-ml_proj-lorasick_2021-02-10-13-57-33.693845
51	9	2	2	52	stable	1	200	52	sv	green	brown	brown	green	right	left	0.7	0.30000000000000004	4	2	2.8	0.6000000000000001	1	0	0.30000000000000004	0.7	2	4	0.6000000000000001	2.8	valid	0.3166547770015313	53248	0	1	1	53248	1	53248	1	53248	1	0.7	53248	brown	green	1	4	ml	2.7.3	lorasick	sub-09_ses-02_task-ml_proj-lorasick_2021-02-10-13-57-33.693845
52	9	2	2	53	stable	1	200	53	sv	green	brown	brown	green	right	left	0.7	0.30000000000000004	2	6	1.4	1.8000000000000005	0	1	0.30000000000000004	0.7	6	2	1.8000000000000005	1.4	invalid	0.3332757869975467	53248	0	1	1	51200	0	53248	1	51200	0	0.7	53248	brown	green	0	0	ml	2.7.3	lorasick	sub-09_ses-02_task-ml_proj-lorasick_2021-02-10-13-57-33.693845
53	9	2	2	54	stable	1	200	54	sv	green	brown	brown	green	right	left	0.7	0.30000000000000004	4	6	2.8	1.8000000000000005	1	0	0.30000000000000004	0.7	6	4	1.8000000000000005	2.8	valid	0.3499351769969508	53248	0	1	1	53248	1	53248	1	51200	0	0.7	53248	brown	green	0	4	ml	2.7.3	lorasick	sub-09_ses-02_task-ml_proj-lorasick_2021-02-10-13-57-33.693845
54	9	2	2	55	stable	1	200	55	sv	green	brown	brown	green	right	left	0.7	0.30000000000000004	2	10	1.4	3.0000000000000004	0	1	0.30000000000000004	0.7	10	2	3.0000000000000004	1.4	invalid	0.383261406001111	53248	0	1	1	51200	0	53248	1	51200	0	0.7	53248	brown	green	0	0	ml	2.7.3	lorasick	sub-09_ses-02_task-ml_proj-lorasick_2021-02-10-13-57-33.693845
55	9	2	2	56	stable	1	200	56	sv	brown	green	brown	green	left	right	0.7	0.30000000000000004	2	4	1.4	1.2000000000000002	1	0	0.7	0.30000000000000004	2	4	1.4	1.2000000000000002	valid	0.4332349729993439	51200	0	0	1	51200	1	51200	1	53248	0	0.7	51200	brown	green	0	2	ml	2.7.3	lorasick	sub-09_ses-02_task-ml_proj-lorasick_2021-02-10-13-57-33.693845
56	9	2	2	57	stable	1	200	57	sv	green	brown	brown	green	right	left	0.7	0.30000000000000004	10	2	7.0	0.6000000000000001	0	1	0.30000000000000004	0.7	2	10	0.6000000000000001	7.0	invalid	0.3665852090016415	51200	0	0	2	53248	0	53248	0	53248	0	0.7	53248	brown	green	1	2	ml	2.7.3	lorasick	sub-09_ses-02_task-ml_proj-lorasick_2021-02-10-13-57-33.693845
57	9	2	2	58	stable	1	200	58	sv	brown	green	brown	green	left	right	0.7	0.30000000000000004	2	10	1.4	3.0000000000000004	1	0	0.7	0.30000000000000004	2	10	1.4	3.0000000000000004	valid	0.38325278400225216	51200	0	0	1	53248	0	51200	1	53248	0	0.7	51200	brown	green	0	2	ml	2.7.3	lorasick	sub-09_ses-02_task-ml_proj-lorasick_2021-02-10-13-57-33.693845
58	9	2	2	59	stable	1	200	59	sv	brown	green	brown	green	left	right	0.7	0.30000000000000004	4	6	2.8	1.8000000000000005	1	0	0.7	0.30000000000000004	4	6	2.8	1.8000000000000005	valid	0.33326758799739764	53248	0	1	2	51200	0	51200	0	53248	1	0.7	51200	brown	green	0	0	ml	2.7.3	lorasick	sub-09_ses-02_task-ml_proj-lorasick_2021-02-10-13-57-33.693845
59	9	2	2	60	stable	1	200	60	sv	brown	green	brown	green	left	right	0.7	0.30000000000000004	4	6	2.8	1.8000000000000005	0	1	0.7	0.30000000000000004	4	6	2.8	1.8000000000000005	invalid	0.43324552600097377	53248	0	1	2	51200	0	51200	0	53248	1	0.7	51200	brown	green	0	6	ml	2.7.3	lorasick	sub-09_ses-02_task-ml_proj-lorasick_2021-02-10-13-57-33.693845
60	9	2	2	61	stable	1	200	61	sv	brown	green	brown	green	left	right	0.7	0.30000000000000004	4	6	2.8	1.8000000000000005	1	0	0.7	0.30000000000000004	4	6	2.8	1.8000000000000005	valid	0.39992838599937386	53248	0	1	2	51200	0	51200	0	53248	1	0.7	51200	brown	green	0	0	ml	2.7.3	lorasick	sub-09_ses-02_task-ml_proj-lorasick_2021-02-10-13-57-33.693845
61	9	2	2	62	stable	1	200	62	sv	brown	green	brown	green	left	right	0.7	0.30000000000000004	6	4	4.199999999999998	1.2000000000000002	1	0	0.7	0.30000000000000004	6	4	4.199999999999998	1.2000000000000002	valid	0.2832891100006236	53248	0	1	2	51200	0	51200	0	51200	0	0.7	51200	brown	green	1	0	ml	2.7.3	lorasick	sub-09_ses-02_task-ml_proj-lorasick_2021-02-10-13-57-33.693845
62	9	2	2	63	stable	1	200	63	sv	brown	green	brown	green	left	right	0.7	0.30000000000000004	2	10	1.4	3.0000000000000004	1	0	0.7	0.30000000000000004	2	10	1.4	3.0000000000000004	valid	0.4998892319999868	51200	0	0	1	53248	0	51200	1	53248	0	0.7	51200	brown	green	0	2	ml	2.7.3	lorasick	sub-09_ses-02_task-ml_proj-lorasick_2021-02-10-13-57-33.693845
63	9	2	2	64	stable	1	200	64	sv	brown	green	brown	green	left	right	0.7	0.30000000000000004	2	6	1.4	1.8000000000000005	1	0	0.7	0.30000000000000004	2	6	1.4	1.8000000000000005	valid	0.3999109239994141	51200	0	0	1	53248	0	51200	1	53248	0	0.7	51200	brown	green	0	2	ml	2.7.3	lorasick	sub-09_ses-02_task-ml_proj-lorasick_2021-02-10-13-57-33.693845
64	9	2	2	65	stable	1	200	65	sv	brown	green	brown	green	left	right	0.7	0.30000000000000004	6	2	4.199999999999998	0.6000000000000001	0	1	0.7	0.30000000000000004	6	2	4.199999999999998	0.6000000000000001	invalid	0.3665895339981944	51200	0	0	1	51200	1	51200	1	51200	1	0.7	51200	brown	green	1	0	ml	2.7.3	lorasick	sub-09_ses-02_task-ml_proj-lorasick_2021-02-10-13-57-33.693845
65	9	2	2	66	stable	1	200	66	sv	brown	green	brown	green	left	right	0.7	0.30000000000000004	2	6	1.4	1.8000000000000005	1	0	0.7	0.30000000000000004	2	6	1.4	1.8000000000000005	valid	0.3832548259997566	51200	0	0	1	53248	0	51200	1	53248	0	0.7	51200	brown	green	0	2	ml	2.7.3	lorasick	sub-09_ses-02_task-ml_proj-lorasick_2021-02-10-13-57-33.693845
66	9	2	2	67	stable	1	200	67	sv	green	brown	brown	green	right	left	0.7	0.30000000000000004	2	10	1.4	3.0000000000000004	1	0	0.30000000000000004	0.7	10	2	3.0000000000000004	1.4	valid	0.4499083609989611	53248	0	1	1	51200	0	53248	1	51200	0	0.7	53248	brown	green	0	2	ml	2.7.3	lorasick	sub-09_ses-02_task-ml_proj-lorasick_2021-02-10-13-57-33.693845
67	9	2	2	68	stable	1	200	68	sv	brown	green	brown	green	left	right	0.7	0.30000000000000004	2	4	1.4	1.2000000000000002	1	0	0.7	0.30000000000000004	2	4	1.4	1.2000000000000002	valid	0.39992249699935206	53248	0	1	2	51200	0	51200	0	53248	1	0.7	51200	brown	green	0	0	ml	2.7.3	lorasick	sub-09_ses-02_task-ml_proj-lorasick_2021-02-10-13-57-33.693845
68	9	2	2	69	stable	1	200	69	sv	green	brown	brown	green	right	left	0.7	0.30000000000000004	10	2	7.0	0.6000000000000001	1	0	0.30000000000000004	0.7	2	10	0.6000000000000001	7.0	valid	0.3832590790007089	51200	0	0	2	53248	0	53248	0	53248	0	0.7	53248	brown	green	1	0	ml	2.7.3	lorasick	sub-09_ses-02_task-ml_proj-lorasick_2021-02-10-13-57-33.693845
69	9	2	2	70	stable	1	200	70	sv	brown	green	brown	green	left	right	0.7	0.30000000000000004	2	4	1.4	1.2000000000000002	1	0	0.7	0.30000000000000004	2	4	1.4	1.2000000000000002	valid	0.5165451920001942	51200	0	0	1	51200	1	51200	1	53248	0	0.7	51200	brown	green	0	2	ml	2.7.3	lorasick	sub-09_ses-02_task-ml_proj-lorasick_2021-02-10-13-57-33.693845
70	9	2	2	71	stable	1	200	71	sv	green	brown	brown	green	right	left	0.7	0.30000000000000004	4	2	2.8	0.6000000000000001	1	0	0.30000000000000004	0.7	2	4	0.6000000000000001	2.8	valid	0.3832622670015553	53248	0	1	1	53248	1	53248	1	53248	1	0.7	53248	brown	green	1	4	ml	2.7.3	lorasick	sub-09_ses-02_task-ml_proj-lorasick_2021-02-10-13-57-33.693845
71	9	2	2	72	stable	1	200	72	sv	brown	green	brown	green	left	right	0.7	0.30000000000000004	10	2	7.0	0.6000000000000001	0	1	0.7	0.30000000000000004	10	2	7.0	0.6000000000000001	invalid	0.38324969500172296	51200	0	0	1	51200	1	51200	1	51200	1	0.7	51200	brown	green	1	0	ml	2.7.3	lorasick	sub-09_ses-02_task-ml_proj-lorasick_2021-02-10-13-57-33.693845
72	9	2	2	73	stable	1	200	73	sv	green	brown	brown	green	right	left	0.7	0.30000000000000004	6	6	4.199999999999998	1.8000000000000005	1	0	0.30000000000000004	0.7	6	6	1.8000000000000005	4.199999999999998	valid	0.333273479998752	53248	0	1	1	53248	1	53248	1	53248	1	0.7	53248	brown	green	0	6	ml	2.7.3	lorasick	sub-09_ses-02_task-ml_proj-lorasick_2021-02-10-13-57-33.693845
73	9	2	2	74	stable	1	200	74	sv	green	brown	brown	green	right	left	0.7	0.30000000000000004	4	6	2.8	1.8000000000000005	0	1	0.30000000000000004	0.7	6	4	1.8000000000000005	2.8	invalid	0.3665950739996333	53248	0	1	1	53248	1	53248	1	51200	0	0.7	53248	brown	green	0	0	ml	2.7.3	lorasick	sub-09_ses-02_task-ml_proj-lorasick_2021-02-10-13-57-33.693845
74	9	2	2	75	stable	1	200	75	sv	brown	green	brown	green	left	right	0.7	0.30000000000000004	2	4	1.4	1.2000000000000002	0	1	0.7	0.30000000000000004	2	4	1.4	1.2000000000000002	invalid	0.5498619329991925	51200	0	0	1	51200	1	51200	1	53248	0	0.7	51200	brown	green	0	0	ml	2.7.3	lorasick	sub-09_ses-02_task-ml_proj-lorasick_2021-02-10-13-57-33.693845
75	9	2	2	76	stable	1	200	76	sv	green	brown	brown	green	right	left	0.7	0.30000000000000004	2	2	1.4	0.6000000000000001	1	0	0.30000000000000004	0.7	2	2	0.6000000000000001	1.4	valid	0.4665582609995909	51200	0	0	2	53248	0	53248	0	53248	0	0.7	53248	brown	green	0	0	ml	2.7.3	lorasick	sub-09_ses-02_task-ml_proj-lorasick_2021-02-10-13-57-33.693845
76	9	2	2	77	stable	1	200	77	sv	green	brown	brown	green	right	left	0.7	0.30000000000000004	2	2	1.4	0.6000000000000001	1	0	0.30000000000000004	0.7	2	2	0.6000000000000001	1.4	valid	0.4332449120011006	53248	0	1	1	53248	1	53248	1	53248	1	0.7	53248	brown	green	0	2	ml	2.7.3	lorasick	sub-09_ses-02_task-ml_proj-lorasick_2021-02-10-13-57-33.693845
77	9	2	2	78	stable	1	200	78	sv	green	brown	brown	green	right	left	0.7	0.30000000000000004	2	6	1.4	1.8000000000000005	1	0	0.30000000000000004	0.7	6	2	1.8000000000000005	1.4	valid	0.3665976660013257	53248	0	1	1	51200	0	53248	1	51200	0	0.7	53248	brown	green	0	2	ml	2.7.3	lorasick	sub-09_ses-02_task-ml_proj-lorasick_2021-02-10-13-57-33.693845
78	9	2	2	79	stable	1	200	79	sv	brown	green	brown	green	left	right	0.7	0.30000000000000004	2	10	1.4	3.0000000000000004	1	0	0.7	0.30000000000000004	2	10	1.4	3.0000000000000004	valid	0.39990673499778495	51200	0	0	1	53248	0	51200	1	53248	0	0.7	51200	brown	green	0	2	ml	2.7.3	lorasick	sub-09_ses-02_task-ml_proj-lorasick_2021-02-10-13-57-33.693845
79	9	2	2	80	stable	1	200	80	sv	brown	green	brown	green	left	right	0.7	0.30000000000000004	2	10	1.4	3.0000000000000004	0	1	0.7	0.30000000000000004	2	10	1.4	3.0000000000000004	invalid	0.4332349520009302	51200	0	0	1	53248	0	51200	1	53248	0	0.7	51200	brown	green	0	0	ml	2.7.3	lorasick	sub-09_ses-02_task-ml_proj-lorasick_2021-02-10-13-57-33.693845
80	9	2	2	81	stable	1	200	81	sv	brown	green	brown	green	left	right	0.7	0.30000000000000004	4	6	2.8	1.8000000000000005	1	0	0.7	0.30000000000000004	4	6	2.8	1.8000000000000005	valid	0.3665862560010282	51200	0	0	1	51200	1	51200	1	53248	0	0.7	51200	brown	green	0	4	ml	2.7.3	lorasick	sub-09_ses-02_task-ml_proj-lorasick_2021-02-10-13-57-33.693845
81	9	2	2	82	stable	1	200	82	sv	brown	green	brown	green	left	right	0.7	0.30000000000000004	4	2	2.8	0.6000000000000001	1	0	0.7	0.30000000000000004	4	2	2.8	0.6000000000000001	valid	0.2999437100006617	51200	0	0	1	51200	1	51200	1	51200	1	0.7	51200	brown	green	1	4	ml	2.7.3	lorasick	sub-09_ses-02_task-ml_proj-lorasick_2021-02-10-13-57-33.693845
82	9	2	2	83	stable	1	200	83	sv	brown	green	brown	green	left	right	0.7	0.30000000000000004	2	6	1.4	1.8000000000000005	1	0	0.7	0.30000000000000004	2	6	1.4	1.8000000000000005	valid	0.3166039019997697	51200	0	0	1	53248	0	51200	1	53248	0	0.7	51200	brown	green	0	2	ml	2.7.3	lorasick	sub-09_ses-02_task-ml_proj-lorasick_2021-02-10-13-57-33.693845
83	9	2	2	84	stable	1	200	84	sv	brown	green	brown	green	left	right	0.7	0.30000000000000004	2	4	1.4	1.2000000000000002	1	0	0.7	0.30000000000000004	2	4	1.4	1.2000000000000002	valid	0.3499333520012442	53248	0	1	2	51200	0	51200	0	53248	1	0.7	51200	brown	green	0	0	ml	2.7.3	lorasick	sub-09_ses-02_task-ml_proj-lorasick_2021-02-10-13-57-33.693845
84	9	2	2	85	stable	1	200	85	sv	green	brown	brown	green	right	left	0.7	0.30000000000000004	2	10	1.4	3.0000000000000004	0	1	0.30000000000000004	0.7	10	2	3.0000000000000004	1.4	invalid	0.3332644090005488	51200	0	0	2	51200	1	53248	0	51200	1	0.7	53248	brown	green	0	10	ml	2.7.3	lorasick	sub-09_ses-02_task-ml_proj-lorasick_2021-02-10-13-57-33.693845
85	9	2	2	86	stable	1	200	86	sv	brown	green	brown	green	left	right	0.7	0.30000000000000004	2	6	1.4	1.8000000000000005	1	0	0.7	0.30000000000000004	2	6	1.4	1.8000000000000005	valid	0.5332033890008461	51200	0	0	1	53248	0	51200	1	53248	0	0.7	51200	brown	green	0	2	ml	2.7.3	lorasick	sub-09_ses-02_task-ml_proj-lorasick_2021-02-10-13-57-33.693845
86	9	2	2	87	stable	1	200	87	sv	green	brown	brown	green	right	left	0.7	0.30000000000000004	2	4	1.4	1.2000000000000002	1	0	0.30000000000000004	0.7	4	2	1.2000000000000002	1.4	valid	0.3832589849989745	53248	0	1	1	53248	1	53248	1	51200	0	0.7	53248	brown	green	0	2	ml	2.7.3	lorasick	sub-09_ses-02_task-ml_proj-lorasick_2021-02-10-13-57-33.693845
87	9	2	2	88	stable	1	200	88	sv	green	brown	brown	green	right	left	0.7	0.30000000000000004	2	4	1.4	1.2000000000000002	1	0	0.30000000000000004	0.7	4	2	1.2000000000000002	1.4	valid	0.4332430150025175	53248	0	1	1	53248	1	53248	1	51200	0	0.7	53248	brown	green	0	2	ml	2.7.3	lorasick	sub-09_ses-02_task-ml_proj-lorasick_2021-02-10-13-57-33.693845
88	9	2	2	89	stable	1	200	89	sv	green	brown	brown	green	right	left	0.7	0.30000000000000004	2	2	1.4	0.6000000000000001	0	1	0.30000000000000004	0.7	2	2	0.6000000000000001	1.4	invalid	0.3832610040008149	53248	0	1	1	53248	1	53248	1	53248	1	0.7	53248	brown	green	0	0	ml	2.7.3	lorasick	sub-09_ses-02_task-ml_proj-lorasick_2021-02-10-13-57-33.693845
89	9	2	2	90	stable	1	200	90	sv	brown	green	brown	green	left	right	0.7	0.30000000000000004	2	10	1.4	3.0000000000000004	0	1	0.7	0.30000000000000004	2	10	1.4	3.0000000000000004	invalid	0.38324928899965016	51200	0	0	1	53248	0	51200	1	53248	0	0.7	51200	brown	green	0	0	ml	2.7.3	lorasick	sub-09_ses-02_task-ml_proj-lorasick_2021-02-10-13-57-33.693845
90	9	2	2	91	stable	1	200	91	sv	brown	green	brown	green	left	right	0.7	0.30000000000000004	10	2	7.0	0.6000000000000001	1	0	0.7	0.30000000000000004	10	2	7.0	0.6000000000000001	valid	0.3832507650004118	51200	0	0	1	51200	1	51200	1	51200	1	0.7	51200	brown	green	1	10	ml	2.7.3	lorasick	sub-09_ses-02_task-ml_proj-lorasick_2021-02-10-13-57-33.693845
91	9	2	2	92	stable	1	200	92	sv	brown	green	brown	green	left	right	0.7	0.30000000000000004	6	4	4.199999999999998	1.2000000000000002	1	0	0.7	0.30000000000000004	6	4	4.199999999999998	1.2000000000000002	valid	0.36659409099956974	51200	0	0	1	51200	1	51200	1	51200	1	0.7	51200	brown	green	1	6	ml	2.7.3	lorasick	sub-09_ses-02_task-ml_proj-lorasick_2021-02-10-13-57-33.693845
92	9	2	2	93	stable	1	200	93	sv	brown	green	brown	green	left	right	0.7	0.30000000000000004	6	2	4.199999999999998	0.6000000000000001	0	1	0.7	0.30000000000000004	6	2	4.199999999999998	0.6000000000000001	invalid	0.3166000279998116	51200	0	0	1	51200	1	51200	1	51200	1	0.7	51200	brown	green	1	0	ml	2.7.3	lorasick	sub-09_ses-02_task-ml_proj-lorasick_2021-02-10-13-57-33.693845
93	9	2	2	94	stable	1	200	94	sv	green	brown	brown	green	right	left	0.7	0.30000000000000004	2	4	1.4	1.2000000000000002	1	0	0.30000000000000004	0.7	4	2	1.2000000000000002	1.4	valid	0.4665575239996542	51200	0	0	2	53248	0	53248	0	51200	1	0.7	53248	brown	green	0	0	ml	2.7.3	lorasick	sub-09_ses-02_task-ml_proj-lorasick_2021-02-10-13-57-33.693845
94	9	2	2	95	stable	1	200	95	sv	green	brown	brown	green	right	left	0.7	0.30000000000000004	2	2	1.4	0.6000000000000001	1	0	0.30000000000000004	0.7	2	2	0.6000000000000001	1.4	valid	0.4499073500010127	53248	0	1	1	53248	1	53248	1	53248	1	0.7	53248	brown	green	0	2	ml	2.7.3	lorasick	sub-09_ses-02_task-ml_proj-lorasick_2021-02-10-13-57-33.693845
95	9	2	2	96	stable	1	200	96	sv	brown	green	brown	green	left	right	0.7	0.30000000000000004	6	2	4.199999999999998	0.6000000000000001	1	0	0.7	0.30000000000000004	6	2	4.199999999999998	0.6000000000000001	valid	0.3499263619996782	51200	0	0	1	51200	1	51200	1	51200	1	0.7	51200	brown	green	1	6	ml	2.7.3	lorasick	sub-09_ses-02_task-ml_proj-lorasick_2021-02-10-13-57-33.693845
96	9	2	2	97	stable	1	200	97	sv	brown	green	brown	green	left	right	0.7	0.30000000000000004	2	2	1.4	0.6000000000000001	1	0	0.7	0.30000000000000004	2	2	1.4	0.6000000000000001	valid	0.383250582999608	51200	0	0	1	51200	1	51200	1	53248	0	0.7	51200	brown	green	1	2	ml	2.7.3	lorasick	sub-09_ses-02_task-ml_proj-lorasick_2021-02-10-13-57-33.693845
97	9	2	2	98	stable	1	200	98	sv	brown	green	brown	green	left	right	0.7	0.30000000000000004	2	10	1.4	3.0000000000000004	0	1	0.7	0.30000000000000004	2	10	1.4	3.0000000000000004	invalid	0.3499242510006297	51200	0	0	1	53248	0	51200	1	53248	0	0.7	51200	brown	green	0	0	ml	2.7.3	lorasick	sub-09_ses-02_task-ml_proj-lorasick_2021-02-10-13-57-33.693845
98	9	2	2	99	stable	1	200	99	sv	brown	green	brown	green	left	right	0.7	0.30000000000000004	6	4	4.199999999999998	1.2000000000000002	0	1	0.7	0.30000000000000004	6	4	4.199999999999998	1.2000000000000002	invalid	0.31660007299797144	51200	0	0	1	51200	1	51200	1	51200	1	0.7	51200	brown	green	1	0	ml	2.7.3	lorasick	sub-09_ses-02_task-ml_proj-lorasick_2021-02-10-13-57-33.693845
99	9	2	2	100	stable	1	200	100	sv	green	brown	brown	green	right	left	0.7	0.30000000000000004	4	6	2.8	1.8000000000000005	0	1	0.30000000000000004	0.7	6	4	1.8000000000000005	2.8	invalid	0.3999079189998156	51200	0	0	2	53248	0	53248	0	51200	1	0.7	53248	brown	green	0	6	ml	2.7.3	lorasick	sub-09_ses-02_task-ml_proj-lorasick_2021-02-10-13-57-33.693845
100	9	2	3	101	stable	1	200	101	sv	brown	green	brown	green	left	right	0.7	0.30000000000000004	6	2	4.199999999999998	0.6000000000000001	1	0	0.7	0.30000000000000004	6	2	4.199999999999998	0.6000000000000001	valid	0.34992430200145463	51200	0	0	1	51200	1	51200	1	51200	1	0.7	51200	brown	green	1	6	ml	2.7.3	lorasick	sub-09_ses-02_task-ml_proj-lorasick_2021-02-10-13-57-33.693845
101	9	2	3	102	stable	1	200	102	sv	green	brown	brown	green	right	left	0.7	0.30000000000000004	4	6	2.8	1.8000000000000005	1	0	0.30000000000000004	0.7	6	4	1.8000000000000005	2.8	valid	0.3665982340025949	53248	0	1	1	53248	1	53248	1	51200	0	0.7	53248	brown	green	0	4	ml	2.7.3	lorasick	sub-09_ses-02_task-ml_proj-lorasick_2021-02-10-13-57-33.693845
102	9	2	3	103	stable	1	200	103	sv	green	brown	brown	green	right	left	0.7	0.30000000000000004	4	2	2.8	0.6000000000000001	1	0	0.30000000000000004	0.7	2	4	0.6000000000000001	2.8	valid	0.3499337969988119	53248	0	1	1	53248	1	53248	1	53248	1	0.7	53248	brown	green	1	4	ml	2.7.3	lorasick	sub-09_ses-02_task-ml_proj-lorasick_2021-02-10-13-57-33.693845
103	9	2	3	104	stable	1	200	104	sv	green	brown	brown	green	right	left	0.7	0.30000000000000004	6	2	4.199999999999998	0.6000000000000001	0	1	0.30000000000000004	0.7	2	6	0.6000000000000001	4.199999999999998	invalid	0.3499360110035923	53248	0	1	1	53248	1	53248	1	53248	1	0.7	53248	brown	green	1	0	ml	2.7.3	lorasick	sub-09_ses-02_task-ml_proj-lorasick_2021-02-10-13-57-33.693845
104	9	2	3	105	stable	1	200	105	sv	brown	green	brown	green	left	right	0.7	0.30000000000000004	4	6	2.8	1.8000000000000005	0	1	0.7	0.30000000000000004	4	6	2.8	1.8000000000000005	invalid	0.3832495150018076	51200	0	0	1	51200	1	51200	1	53248	0	0.7	51200	brown	green	0	0	ml	2.7.3	lorasick	sub-09_ses-02_task-ml_proj-lorasick_2021-02-10-13-57-33.693845
105	9	2	3	106	stable	1	200	106	sv	green	brown	brown	green	right	left	0.7	0.30000000000000004	10	2	7.0	0.6000000000000001	0	1	0.30000000000000004	0.7	2	10	0.6000000000000001	7.0	invalid	0.4332462929996837	53248	0	1	1	53248	1	53248	1	53248	1	0.7	53248	brown	green	1	0	ml	2.7.3	lorasick	sub-09_ses-02_task-ml_proj-lorasick_2021-02-10-13-57-33.693845
106	9	2	3	107	stable	1	200	107	sv	green	brown	brown	green	right	left	0.7	0.30000000000000004	2	10	1.4	3.0000000000000004	1	0	0.30000000000000004	0.7	10	2	3.0000000000000004	1.4	valid	0.6498473179999564	53248	0	1	1	51200	0	53248	1	51200	0	0.7	53248	brown	green	0	2	ml	2.7.3	lorasick	sub-09_ses-02_task-ml_proj-lorasick_2021-02-10-13-57-33.693845
107	9	2	3	108	stable	1	200	108	sv	brown	green	brown	green	left	right	0.7	0.30000000000000004	4	2	2.8	0.6000000000000001	1	0	0.7	0.30000000000000004	4	2	2.8	0.6000000000000001	valid	0.3332573500010767	51200	0	0	1	51200	1	51200	1	51200	1	0.7	51200	brown	green	1	4	ml	2.7.3	lorasick	sub-09_ses-02_task-ml_proj-lorasick_2021-02-10-13-57-33.693845
108	9	2	3	109	stable	1	200	109	sv	brown	green	brown	green	left	right	0.7	0.30000000000000004	2	6	1.4	1.8000000000000005	1	0	0.7	0.30000000000000004	2	6	1.4	1.8000000000000005	valid	0.3832472889989731	51200	0	0	1	53248	0	51200	1	53248	0	0.7	51200	brown	green	0	2	ml	2.7.3	lorasick	sub-09_ses-02_task-ml_proj-lorasick_2021-02-10-13-57-33.693845
109	9	2	3	110	stable	1	200	110	sv	green	brown	brown	green	right	left	0.7	0.30000000000000004	4	6	2.8	1.8000000000000005	1	0	0.30000000000000004	0.7	6	4	1.8000000000000005	2.8	valid	0.38324955999996746	51200	0	0	2	53248	0	53248	0	51200	1	0.7	53248	brown	green	0	0	ml	2.7.3	lorasick	sub-09_ses-02_task-ml_proj-lorasick_2021-02-10-13-57-33.693845
110	9	2	3	111	stable	1	200	111	sv	brown	green	brown	green	left	right	0.7	0.30000000000000004	2	2	1.4	0.6000000000000001	1	0	0.7	0.30000000000000004	2	2	1.4	0.6000000000000001	valid	0.36659574800069095	53248	0	1	2	51200	0	51200	0	53248	1	0.7	51200	brown	green	1	0	ml	2.7.3	lorasick	sub-09_ses-02_task-ml_proj-lorasick_2021-02-10-13-57-33.693845
111	9	2	3	112	stable	1	200	112	sv	green	brown	brown	green	right	left	0.7	0.30000000000000004	4	2	2.8	0.6000000000000001	1	0	0.30000000000000004	0.7	2	4	0.6000000000000001	2.8	valid	0.3665863429996534	51200	0	0	2	53248	0	53248	0	53248	0	0.7	53248	brown	green	1	0	ml	2.7.3	lorasick	sub-09_ses-02_task-ml_proj-lorasick_2021-02-10-13-57-33.693845
112	9	2	3	113	stable	1	200	113	sv	brown	green	brown	green	left	right	0.7	0.30000000000000004	6	2	4.199999999999998	0.6000000000000001	0	1	0.7	0.30000000000000004	6	2	4.199999999999998	0.6000000000000001	invalid	0.4499133110002731	51200	0	0	1	51200	1	51200	1	51200	1	0.7	51200	brown	green	1	0	ml	2.7.3	lorasick	sub-09_ses-02_task-ml_proj-lorasick_2021-02-10-13-57-33.693845
113	9	2	3	114	stable	1	200	114	sv	brown	green	brown	green	left	right	0.7	0.30000000000000004	4	6	2.8	1.8000000000000005	0	1	0.7	0.30000000000000004	4	6	2.8	1.8000000000000005	invalid	0.3999221419981041	53248	0	1	2	51200	0	51200	0	53248	1	0.7	51200	brown	green	0	6	ml	2.7.3	lorasick	sub-09_ses-02_task-ml_proj-lorasick_2021-02-10-13-57-33.693845
114	9	2	3	115	stable	1	200	115	sv	green	brown	brown	green	right	left	0.7	0.30000000000000004	2	4	1.4	1.2000000000000002	1	0	0.30000000000000004	0.7	4	2	1.2000000000000002	1.4	valid	0.4332354239995766	51200	0	0	2	53248	0	53248	0	51200	1	0.7	53248	brown	green	0	0	ml	2.7.3	lorasick	sub-09_ses-02_task-ml_proj-lorasick_2021-02-10-13-57-33.693845
115	9	2	3	116	stable	1	200	116	sv	brown	green	brown	green	left	right	0.7	0.30000000000000004	6	4	4.199999999999998	1.2000000000000002	1	0	0.7	0.30000000000000004	6	4	4.199999999999998	1.2000000000000002	valid	0.3999106869996467	51200	0	0	1	51200	1	51200	1	51200	1	0.7	51200	brown	green	1	6	ml	2.7.3	lorasick	sub-09_ses-02_task-ml_proj-lorasick_2021-02-10-13-57-33.693845
116	9	2	3	117	stable	1	200	117	sv	green	brown	brown	green	right	left	0.7	0.30000000000000004	4	6	2.8	1.8000000000000005	1	0	0.30000000000000004	0.7	6	4	1.8000000000000005	2.8	valid	0.3666008149994013	53248	0	1	1	53248	1	53248	1	51200	0	0.7	53248	brown	green	0	4	ml	2.7.3	lorasick	sub-09_ses-02_task-ml_proj-lorasick_2021-02-10-13-57-33.693845
117	9	2	3	118	stable	1	200	118	sv	brown	green	brown	green	left	right	0.7	0.30000000000000004	2	4	1.4	1.2000000000000002	1	0	0.7	0.30000000000000004	2	4	1.4	1.2000000000000002	valid	0.3332641619999777	51200	0	0	1	51200	1	51200	1	53248	0	0.7	51200	brown	green	0	2	ml	2.7.3	lorasick	sub-09_ses-02_task-ml_proj-lorasick_2021-02-10-13-57-33.693845
118	9	2	3	119	stable	1	200	119	sv	brown	green	brown	green	left	right	0.7	0.30000000000000004	6	6	4.199999999999998	1.8000000000000005	1	0	0.7	0.30000000000000004	6	6	4.199999999999998	1.8000000000000005	valid	0.3166009159976966	51200	0	0	1	51200	1	51200	1	53248	0	0.7	51200	brown	green	1	6	ml	2.7.3	lorasick	sub-09_ses-02_task-ml_proj-lorasick_2021-02-10-13-57-33.693845
119	9	2	3	120	stable	1	200	120	sv	brown	green	brown	green	left	right	0.7	0.30000000000000004	4	6	2.8	1.8000000000000005	1	0	0.7	0.30000000000000004	4	6	2.8	1.8000000000000005	valid	0.5832036930005415	53248	0	1	2	51200	0	51200	0	53248	1	0.7	51200	brown	green	0	0	ml	2.7.3	lorasick	sub-09_ses-02_task-ml_proj-lorasick_2021-02-10-13-57-33.693845
120	9	2	3	121	stable	1	200	121	sv	brown	green	brown	green	left	right	0.7	0.30000000000000004	10	2	7.0	0.6000000000000001	1	0	0.7	0.30000000000000004	10	2	7.0	0.6000000000000001	valid	0.3832610399986152	53248	0	1	2	51200	0	51200	0	51200	0	0.7	51200	brown	green	1	0	ml	2.7.3	lorasick	sub-09_ses-02_task-ml_proj-lorasick_2021-02-10-13-57-33.693845
121	9	2	3	122	stable	1	200	122	sv	green	brown	brown	green	right	left	0.7	0.30000000000000004	6	6	4.199999999999998	1.8000000000000005	1	0	0.30000000000000004	0.7	6	6	1.8000000000000005	4.199999999999998	valid	0.38326531900020205	53248	0	1	1	53248	1	53248	1	53248	1	0.7	53248	brown	green	0	6	ml	2.7.3	lorasick	sub-09_ses-02_task-ml_proj-lorasick_2021-02-10-13-57-33.693845
122	9	2	3	123	stable	1	200	123	sv	green	brown	brown	green	right	left	0.7	0.30000000000000004	2	6	1.4	1.8000000000000005	1	0	0.30000000000000004	0.7	6	2	1.8000000000000005	1.4	valid	0.3665968730019813	53248	0	1	1	51200	0	53248	1	51200	0	0.7	53248	brown	green	0	2	ml	2.7.3	lorasick	sub-09_ses-02_task-ml_proj-lorasick_2021-02-10-13-57-33.693845
123	9	2	3	124	stable	1	200	124	sv	brown	green	brown	green	left	right	0.7	0.30000000000000004	2	10	1.4	3.0000000000000004	0	1	0.7	0.30000000000000004	2	10	1.4	3.0000000000000004	invalid	0.4165873499987356	53248	0	1	2	53248	1	51200	0	53248	1	0.7	51200	brown	green	0	10	ml	2.7.3	lorasick	sub-09_ses-02_task-ml_proj-lorasick_2021-02-10-13-57-33.693845
124	9	2	3	125	stable	1	200	125	sv	brown	green	brown	green	left	right	0.7	0.30000000000000004	6	2	4.199999999999998	0.6000000000000001	0	1	0.7	0.30000000000000004	6	2	4.199999999999998	0.6000000000000001	invalid	0.3999246150015097	53248	0	1	2	51200	0	51200	0	51200	0	0.7	51200	brown	green	1	2	ml	2.7.3	lorasick	sub-09_ses-02_task-ml_proj-lorasick_2021-02-10-13-57-33.693845
125	9	2	3	126	stable	1	200	126	sv	brown	green	brown	green	left	right	0.7	0.30000000000000004	6	6	4.199999999999998	1.8000000000000005	1	0	0.7	0.30000000000000004	6	6	4.199999999999998	1.8000000000000005	valid	0.33327485699919634	53248	0	1	2	51200	0	51200	0	53248	1	0.7	51200	brown	green	1	0	ml	2.7.3	lorasick	sub-09_ses-02_task-ml_proj-lorasick_2021-02-10-13-57-33.693845
126	9	2	3	127	stable	1	200	127	sv	green	brown	brown	green	right	left	0.7	0.30000000000000004	4	2	2.8	0.6000000000000001	1	0	0.30000000000000004	0.7	2	4	0.6000000000000001	2.8	valid	0.38326008999865735	53248	0	1	1	53248	1	53248	1	53248	1	0.7	53248	brown	green	1	4	ml	2.7.3	lorasick	sub-09_ses-02_task-ml_proj-lorasick_2021-02-10-13-57-33.693845
127	9	2	3	128	stable	1	200	128	sv	green	brown	brown	green	right	left	0.7	0.30000000000000004	2	10	1.4	3.0000000000000004	1	0	0.30000000000000004	0.7	10	2	3.0000000000000004	1.4	valid	0.4499070589990879	53248	0	1	1	51200	0	53248	1	51200	0	0.7	53248	brown	green	0	2	ml	2.7.3	lorasick	sub-09_ses-02_task-ml_proj-lorasick_2021-02-10-13-57-33.693845
128	9	2	3	129	stable	1	200	129	sv	green	brown	brown	green	right	left	0.7	0.30000000000000004	6	6	4.199999999999998	1.8000000000000005	1	0	0.30000000000000004	0.7	6	6	1.8000000000000005	4.199999999999998	valid	0.36659743700147374	53248	0	1	1	53248	1	53248	1	53248	1	0.7	53248	brown	green	0	6	ml	2.7.3	lorasick	sub-09_ses-02_task-ml_proj-lorasick_2021-02-10-13-57-33.693845
129	9	2	3	130	stable	1	200	130	sv	brown	green	brown	green	left	right	0.7	0.30000000000000004	10	2	7.0	0.6000000000000001	0	1	0.7	0.30000000000000004	10	2	7.0	0.6000000000000001	invalid	0.3999104790018464	51200	0	0	1	51200	1	51200	1	51200	1	0.7	51200	brown	green	1	0	ml	2.7.3	lorasick	sub-09_ses-02_task-ml_proj-lorasick_2021-02-10-13-57-33.693845
130	9	2	3	131	stable	1	200	131	sv	green	brown	brown	green	right	left	0.7	0.30000000000000004	2	6	1.4	1.8000000000000005	0	1	0.30000000000000004	0.7	6	2	1.8000000000000005	1.4	invalid	0.3166016190007213	51200	0	0	2	51200	1	53248	0	51200	1	0.7	53248	brown	green	0	6	ml	2.7.3	lorasick	sub-09_ses-02_task-ml_proj-lorasick_2021-02-10-13-57-33.693845
131	9	2	3	132	stable	1	200	132	sv	green	brown	brown	green	right	left	0.7	0.30000000000000004	2	10	1.4	3.0000000000000004	1	0	0.30000000000000004	0.7	10	2	3.0000000000000004	1.4	valid	0.3832502549994388	51200	0	0	2	51200	1	53248	0	51200	1	0.7	53248	brown	green	0	0	ml	2.7.3	lorasick	sub-09_ses-02_task-ml_proj-lorasick_2021-02-10-13-57-33.693845
132	9	2	3	133	stable	1	200	133	sv	brown	green	brown	green	left	right	0.7	0.30000000000000004	4	6	2.8	1.8000000000000005	1	0	0.7	0.30000000000000004	4	6	2.8	1.8000000000000005	valid	0.3499267749975843	51200	0	0	1	51200	1	51200	1	53248	0	0.7	51200	brown	green	0	4	ml	2.7.3	lorasick	sub-09_ses-02_task-ml_proj-lorasick_2021-02-10-13-57-33.693845
133	9	2	3	134	stable	1	200	134	sv	green	brown	brown	green	right	left	0.7	0.30000000000000004	2	6	1.4	1.8000000000000005	1	0	0.30000000000000004	0.7	6	2	1.8000000000000005	1.4	valid	0.3166103709991148	53248	0	1	1	51200	0	53248	1	51200	0	0.7	53248	brown	green	0	2	ml	2.7.3	lorasick	sub-09_ses-02_task-ml_proj-lorasick_2021-02-10-13-57-33.693845
134	9	2	3	135	stable	1	200	135	sv	brown	green	brown	green	left	right	0.7	0.30000000000000004	2	2	1.4	0.6000000000000001	1	0	0.7	0.30000000000000004	2	2	1.4	0.6000000000000001	valid	0.2999378310014436	51200	0	0	1	51200	1	51200	1	53248	0	0.7	51200	brown	green	1	2	ml	2.7.3	lorasick	sub-09_ses-02_task-ml_proj-lorasick_2021-02-10-13-57-33.693845
135	9	2	3	136	stable	1	200	136	sv	brown	green	brown	green	left	right	0.7	0.30000000000000004	4	2	2.8	0.6000000000000001	1	0	0.7	0.30000000000000004	4	2	2.8	0.6000000000000001	valid	0.01669054000012693	51200	0	0	1	51200	1	51200	1	51200	1	0.7	51200	brown	green	1	4	ml	2.7.3	lorasick	sub-09_ses-02_task-ml_proj-lorasick_2021-02-10-13-57-33.693845
136	9	2	3	137	stable	1	200	137	sv	green	brown	brown	green	right	left	0.7	0.30000000000000004	6	6	4.199999999999998	1.8000000000000005	0	1	0.30000000000000004	0.7	6	6	1.8000000000000005	4.199999999999998	invalid	0.46656553799766703	53248	0	1	1	53248	1	53248	1	53248	1	0.7	53248	brown	green	0	0	ml	2.7.3	lorasick	sub-09_ses-02_task-ml_proj-lorasick_2021-02-10-13-57-33.693845
137	9	2	3	138	stable	1	200	138	sv	green	brown	brown	green	right	left	0.7	0.30000000000000004	4	6	2.8	1.8000000000000005	0	1	0.30000000000000004	0.7	6	4	1.8000000000000005	2.8	invalid	0.33326414700059104	51200	0	0	2	53248	0	53248	0	51200	1	0.7	53248	brown	green	0	6	ml	2.7.3	lorasick	sub-09_ses-02_task-ml_proj-lorasick_2021-02-10-13-57-33.693845
138	9	2	3	139	stable	1	200	139	sv	green	brown	brown	green	right	left	0.7	0.30000000000000004	2	6	1.4	1.8000000000000005	1	0	0.30000000000000004	0.7	6	2	1.8000000000000005	1.4	valid	0.4332446349981183	53248	0	1	1	51200	0	53248	1	51200	0	0.7	53248	brown	green	0	2	ml	2.7.3	lorasick	sub-09_ses-02_task-ml_proj-lorasick_2021-02-10-13-57-33.693845
139	9	2	3	140	stable	1	200	140	sv	green	brown	brown	green	right	left	0.7	0.30000000000000004	6	2	4.199999999999998	0.6000000000000001	1	0	0.30000000000000004	0.7	2	6	0.6000000000000001	4.199999999999998	valid	0.3999217780001345	53248	0	1	1	53248	1	53248	1	53248	1	0.7	53248	brown	green	1	6	ml	2.7.3	lorasick	sub-09_ses-02_task-ml_proj-lorasick_2021-02-10-13-57-33.693845
140	9	2	3	141	stable	1	200	141	sv	brown	green	brown	green	left	right	0.7	0.30000000000000004	4	6	2.8	1.8000000000000005	1	0	0.7	0.30000000000000004	4	6	2.8	1.8000000000000005	valid	0.3999116040031368	51200	0	0	1	51200	1	51200	1	53248	0	0.7	51200	brown	green	0	4	ml	2.7.3	lorasick	sub-09_ses-02_task-ml_proj-lorasick_2021-02-10-13-57-33.693845
141	9	2	3	142	stable	1	200	142	sv	brown	green	brown	green	left	right	0.7	0.30000000000000004	4	6	2.8	1.8000000000000005	0	1	0.7	0.30000000000000004	4	6	2.8	1.8000000000000005	invalid	0.466553638001642	51200	0	0	1	51200	1	51200	1	53248	0	0.7	51200	brown	green	0	0	ml	2.7.3	lorasick	sub-09_ses-02_task-ml_proj-lorasick_2021-02-10-13-57-33.693845
142	9	2	3	143	stable	1	200	143	sv	green	brown	brown	green	right	left	0.7	0.30000000000000004	6	4	4.199999999999998	1.2000000000000002	1	0	0.30000000000000004	0.7	4	6	1.2000000000000002	4.199999999999998	valid	0.5665423409991489	53248	0	1	1	53248	1	53248	1	53248	1	0.7	53248	brown	green	1	6	ml	2.7.3	lorasick	sub-09_ses-02_task-ml_proj-lorasick_2021-02-10-13-57-33.693845
143	9	2	3	144	stable	1	200	144	sv	green	brown	brown	green	right	left	0.7	0.30000000000000004	2	2	1.4	0.6000000000000001	1	0	0.30000000000000004	0.7	2	2	0.6000000000000001	1.4	valid	0.3832558700014488	53248	0	1	1	53248	1	53248	1	53248	1	0.7	53248	brown	green	0	2	ml	2.7.3	lorasick	sub-09_ses-02_task-ml_proj-lorasick_2021-02-10-13-57-33.693845
144	9	2	3	145	stable	1	200	145	sv	green	brown	brown	green	right	left	0.7	0.30000000000000004	6	6	4.199999999999998	1.8000000000000005	0	1	0.30000000000000004	0.7	6	6	1.8000000000000005	4.199999999999998	invalid	0.3999166260000493	53248	0	1	1	53248	1	53248	1	53248	1	0.7	53248	brown	green	0	0	ml	2.7.3	lorasick	sub-09_ses-02_task-ml_proj-lorasick_2021-02-10-13-57-33.693845
145	9	2	3	146	stable	1	200	146	sv	brown	green	brown	green	left	right	0.7	0.30000000000000004	2	10	1.4	3.0000000000000004	0	1	0.7	0.30000000000000004	2	10	1.4	3.0000000000000004	invalid	0.4499088880002091	53248	0	1	2	53248	1	51200	0	53248	1	0.7	51200	brown	green	0	10	ml	2.7.3	lorasick	sub-09_ses-02_task-ml_proj-lorasick_2021-02-10-13-57-33.693845
146	9	2	3	147	stable	1	200	147	sv	green	brown	brown	green	right	left	0.7	0.30000000000000004	2	4	1.4	1.2000000000000002	1	0	0.30000000000000004	0.7	4	2	1.2000000000000002	1.4	valid	0.4499156149977353	53248	0	1	1	53248	1	53248	1	51200	0	0.7	53248	brown	green	0	2	ml	2.7.3	lorasick	sub-09_ses-02_task-ml_proj-lorasick_2021-02-10-13-57-33.693845
147	9	2	3	148	stable	1	200	148	sv	green	brown	brown	green	right	left	0.7	0.30000000000000004	2	6	1.4	1.8000000000000005	1	0	0.30000000000000004	0.7	6	2	1.8000000000000005	1.4	valid	0.4499052430001029	53248	0	1	1	51200	0	53248	1	51200	0	0.7	53248	brown	green	0	2	ml	2.7.3	lorasick	sub-09_ses-02_task-ml_proj-lorasick_2021-02-10-13-57-33.693845
148	9	2	3	149	stable	1	200	149	sv	green	brown	brown	green	right	left	0.7	0.30000000000000004	6	6	4.199999999999998	1.8000000000000005	1	0	0.30000000000000004	0.7	6	6	1.8000000000000005	4.199999999999998	valid	0.4332447889973992	53248	0	1	1	53248	1	53248	1	53248	1	0.7	53248	brown	green	0	6	ml	2.7.3	lorasick	sub-09_ses-02_task-ml_proj-lorasick_2021-02-10-13-57-33.693845
149	9	2	3	150	stable	1	200	150	sv	green	brown	brown	green	right	left	0.7	0.30000000000000004	6	6	4.199999999999998	1.8000000000000005	1	0	0.30000000000000004	0.7	6	6	1.8000000000000005	4.199999999999998	valid	0.3832596919964999	53248	0	1	1	53248	1	53248	1	53248	1	0.7	53248	brown	green	0	6	ml	2.7.3	lorasick	sub-09_ses-02_task-ml_proj-lorasick_2021-02-10-13-57-33.693845
150	9	2	4	151	stable	1	200	151	sv	brown	green	brown	green	left	right	0.7	0.30000000000000004	2	6	1.4	1.8000000000000005	1	0	0.7	0.30000000000000004	2	6	1.4	1.8000000000000005	valid	0.7331404969991127	51200	0	0	1	53248	0	51200	1	53248	0	0.7	51200	brown	green	0	2	ml	2.7.3	lorasick	sub-09_ses-02_task-ml_proj-lorasick_2021-02-10-13-57-33.693845
151	9	2	4	152	stable	1	200	152	sv	brown	green	brown	green	left	right	0.7	0.30000000000000004	6	4	4.199999999999998	1.2000000000000002	1	0	0.7	0.30000000000000004	6	4	4.199999999999998	1.2000000000000002	valid	0.3166009269989445	51200	0	0	1	51200	1	51200	1	51200	1	0.7	51200	brown	green	1	6	ml	2.7.3	lorasick	sub-09_ses-02_task-ml_proj-lorasick_2021-02-10-13-57-33.693845
152	9	2	4	153	stable	1	200	153	sv	brown	green	brown	green	left	right	0.7	0.30000000000000004	6	6	4.199999999999998	1.8000000000000005	0	1	0.7	0.30000000000000004	6	6	4.199999999999998	1.8000000000000005	invalid	0.3166090650011029	51200	0	0	1	51200	1	51200	1	53248	0	0.7	51200	brown	green	1	0	ml	2.7.3	lorasick	sub-09_ses-02_task-ml_proj-lorasick_2021-02-10-13-57-33.693845
153	9	2	4	154	stable	1	200	154	sv	green	brown	brown	green	right	left	0.7	0.30000000000000004	10	2	7.0	0.6000000000000001	0	1	0.30000000000000004	0.7	2	10	0.6000000000000001	7.0	invalid	0.41657148800004506	51200	0	0	2	53248	0	53248	0	53248	0	0.7	53248	brown	green	1	2	ml	2.7.3	lorasick	sub-09_ses-02_task-ml_proj-lorasick_2021-02-10-13-57-33.693845
154	9	2	4	155	stable	1	200	155	sv	brown	green	brown	green	left	right	0.7	0.30000000000000004	6	2	4.199999999999998	0.6000000000000001	1	0	0.7	0.30000000000000004	6	2	4.199999999999998	0.6000000000000001	valid	0.33326322400171193	51200	0	0	1	51200	1	51200	1	51200	1	0.7	51200	brown	green	1	6	ml	2.7.3	lorasick	sub-09_ses-02_task-ml_proj-lorasick_2021-02-10-13-57-33.693845
155	9	2	4	156	stable	1	200	156	sv	green	brown	brown	green	right	left	0.7	0.30000000000000004	6	2	4.199999999999998	0.6000000000000001	1	0	0.30000000000000004	0.7	2	6	0.6000000000000001	4.199999999999998	valid	0.39992584400170017	53248	0	1	1	53248	1	53248	1	53248	1	0.7	53248	brown	green	1	6	ml	2.7.3	lorasick	sub-09_ses-02_task-ml_proj-lorasick_2021-02-10-13-57-33.693845
156	9	2	4	157	stable	1	200	157	sv	green	brown	brown	green	right	left	0.7	0.30000000000000004	6	6	4.199999999999998	1.8000000000000005	0	1	0.30000000000000004	0.7	6	6	1.8000000000000005	4.199999999999998	invalid	0.3665965840009449	53248	0	1	1	53248	1	53248	1	53248	1	0.7	53248	brown	green	0	0	ml	2.7.3	lorasick	sub-09_ses-02_task-ml_proj-lorasick_2021-02-10-13-57-33.693845
157	9	2	4	158	stable	1	200	158	sv	green	brown	brown	green	right	left	0.7	0.30000000000000004	6	6	4.199999999999998	1.8000000000000005	1	0	0.30000000000000004	0.7	6	6	1.8000000000000005	4.199999999999998	valid	0.4332478569995146	53248	0	1	1	53248	1	53248	1	53248	1	0.7	53248	brown	green	0	6	ml	2.7.3	lorasick	sub-09_ses-02_task-ml_proj-lorasick_2021-02-10-13-57-33.693845
158	9	2	4	159	stable	1	200	159	sv	brown	green	brown	green	left	right	0.7	0.30000000000000004	4	6	2.8	1.8000000000000005	1	0	0.7	0.30000000000000004	4	6	2.8	1.8000000000000005	valid	0.3332659790030448	51200	0	0	1	51200	1	51200	1	53248	0	0.7	51200	brown	green	0	4	ml	2.7.3	lorasick	sub-09_ses-02_task-ml_proj-lorasick_2021-02-10-13-57-33.693845
159	9	2	4	160	stable	1	200	160	sv	brown	green	brown	green	left	right	0.7	0.30000000000000004	6	4	4.199999999999998	1.2000000000000002	0	1	0.7	0.30000000000000004	6	4	4.199999999999998	1.2000000000000002	invalid	0.3499361819995101	53248	0	1	2	51200	0	51200	0	51200	0	0.7	51200	brown	green	1	4	ml	2.7.3	lorasick	sub-09_ses-02_task-ml_proj-lorasick_2021-02-10-13-57-33.693845
160	9	2	4	161	stable	1	200	161	sv	brown	green	brown	green	left	right	0.7	0.30000000000000004	10	2	7.0	0.6000000000000001	0	1	0.7	0.30000000000000004	10	2	7.0	0.6000000000000001	invalid	0.3332628950010985	51200	0	0	1	51200	1	51200	1	51200	1	0.7	51200	brown	green	1	0	ml	2.7.3	lorasick	sub-09_ses-02_task-ml_proj-lorasick_2021-02-10-13-57-33.693845
161	9	2	4	162	stable	1	200	162	sv	brown	green	brown	green	left	right	0.7	0.30000000000000004	6	6	4.199999999999998	1.8000000000000005	1	0	0.7	0.30000000000000004	6	6	4.199999999999998	1.8000000000000005	valid	0.366586471998744	51200	0	0	1	51200	1	51200	1	53248	0	0.7	51200	brown	green	1	6	ml	2.7.3	lorasick	sub-09_ses-02_task-ml_proj-lorasick_2021-02-10-13-57-33.693845
162	9	2	4	163	stable	1	200	163	sv	brown	green	brown	green	left	right	0.7	0.30000000000000004	6	4	4.199999999999998	1.2000000000000002	1	0	0.7	0.30000000000000004	6	4	4.199999999999998	1.2000000000000002	valid	0.34992540900202584	51200	0	0	1	51200	1	51200	1	51200	1	0.7	51200	brown	green	1	6	ml	2.7.3	lorasick	sub-09_ses-02_task-ml_proj-lorasick_2021-02-10-13-57-33.693845
163	9	2	4	164	stable	1	200	164	sv	brown	green	brown	green	left	right	0.7	0.30000000000000004	2	4	1.4	1.2000000000000002	1	0	0.7	0.30000000000000004	2	4	1.4	1.2000000000000002	valid	0.36660740200022707	53248	0	1	2	51200	0	51200	0	53248	1	0.7	51200	brown	green	0	0	ml	2.7.3	lorasick	sub-09_ses-02_task-ml_proj-lorasick_2021-02-10-13-57-33.693845
164	9	2	4	165	stable	1	200	165	sv	brown	green	brown	green	left	right	0.7	0.30000000000000004	4	2	2.8	0.6000000000000001	1	0	0.7	0.30000000000000004	4	2	2.8	0.6000000000000001	valid	0.33327735100101563	53248	0	1	2	51200	0	51200	0	51200	0	0.7	51200	brown	green	1	0	ml	2.7.3	lorasick	sub-09_ses-02_task-ml_proj-lorasick_2021-02-10-13-57-33.693845
165	9	2	4	166	stable	1	200	166	sv	green	brown	brown	green	right	left	0.7	0.30000000000000004	2	4	1.4	1.2000000000000002	0	1	0.30000000000000004	0.7	4	2	1.2000000000000002	1.4	invalid	0.4665711599991482	53248	0	1	1	53248	1	53248	1	51200	0	0.7	53248	brown	green	0	0	ml	2.7.3	lorasick	sub-09_ses-02_task-ml_proj-lorasick_2021-02-10-13-57-33.693845
166	9	2	4	167	stable	1	200	167	sv	brown	green	brown	green	left	right	0.7	0.30000000000000004	2	4	1.4	1.2000000000000002	1	0	0.7	0.30000000000000004	2	4	1.4	1.2000000000000002	valid	0.41658274600195	51200	0	0	1	51200	1	51200	1	53248	0	0.7	51200	brown	green	0	2	ml	2.7.3	lorasick	sub-09_ses-02_task-ml_proj-lorasick_2021-02-10-13-57-33.693845
167	9	2	4	168	stable	1	200	168	sv	green	brown	brown	green	right	left	0.7	0.30000000000000004	4	6	2.8	1.8000000000000005	1	0	0.30000000000000004	0.7	6	4	1.8000000000000005	2.8	valid	0.3499372040023445	53248	0	1	1	53248	1	53248	1	51200	0	0.7	53248	brown	green	0	4	ml	2.7.3	lorasick	sub-09_ses-02_task-ml_proj-lorasick_2021-02-10-13-57-33.693845
168	9	2	4	169	stable	1	200	169	sv	green	brown	brown	green	right	left	0.7	0.30000000000000004	2	10	1.4	3.0000000000000004	1	0	0.30000000000000004	0.7	10	2	3.0000000000000004	1.4	valid	0.4499096840008861	53248	0	1	1	51200	0	53248	1	51200	0	0.7	53248	brown	green	0	2	ml	2.7.3	lorasick	sub-09_ses-02_task-ml_proj-lorasick_2021-02-10-13-57-33.693845
169	9	2	4	170	stable	1	200	170	sv	brown	green	brown	green	left	right	0.7	0.30000000000000004	2	4	1.4	1.2000000000000002	1	0	0.7	0.30000000000000004	2	4	1.4	1.2000000000000002	valid	0.6664938270005223	51200	0	0	1	51200	1	51200	1	53248	0	0.7	51200	brown	green	0	2	ml	2.7.3	lorasick	sub-09_ses-02_task-ml_proj-lorasick_2021-02-10-13-57-33.693845
170	9	2	4	171	stable	1	200	171	sv	green	brown	brown	green	right	left	0.7	0.30000000000000004	2	2	1.4	0.6000000000000001	1	0	0.30000000000000004	0.7	2	2	0.6000000000000001	1.4	valid	0.4165716660027101	51200	0	0	2	53248	0	53248	0	53248	0	0.7	53248	brown	green	0	0	ml	2.7.3	lorasick	sub-09_ses-02_task-ml_proj-lorasick_2021-02-10-13-57-33.693845
171	9	2	4	172	stable	1	200	172	sv	brown	green	brown	green	left	right	0.7	0.30000000000000004	2	6	1.4	1.8000000000000005	1	0	0.7	0.30000000000000004	2	6	1.4	1.8000000000000005	valid	0.3665823310002452	53248	0	1	2	53248	1	51200	0	53248	1	0.7	51200	brown	green	0	0	ml	2.7.3	lorasick	sub-09_ses-02_task-ml_proj-lorasick_2021-02-10-13-57-33.693845
172	9	2	4	173	stable	1	200	173	sv	brown	green	brown	green	left	right	0.7	0.30000000000000004	2	4	1.4	1.2000000000000002	1	0	0.7	0.30000000000000004	2	4	1.4	1.2000000000000002	valid	0.3333039729986922	53248	0	1	2	51200	0	51200	0	53248	1	0.7	51200	brown	green	0	0	ml	2.7.3	lorasick	sub-09_ses-02_task-ml_proj-lorasick_2021-02-10-13-57-33.693845
173	9	2	4	174	stable	1	200	174	sv	green	brown	brown	green	right	left	0.7	0.30000000000000004	4	6	2.8	1.8000000000000005	0	1	0.30000000000000004	0.7	6	4	1.8000000000000005	2.8	invalid	0.3665965170002892	53248	0	1	1	53248	1	53248	1	51200	0	0.7	53248	brown	green	0	0	ml	2.7.3	lorasick	sub-09_ses-02_task-ml_proj-lorasick_2021-02-10-13-57-33.693845
174	9	2	4	175	stable	1	200	175	sv	green	brown	brown	green	right	left	0.7	0.30000000000000004	6	2	4.199999999999998	0.6000000000000001	0	1	0.30000000000000004	0.7	2	6	0.6000000000000001	4.199999999999998	invalid	0.3999240459997964	53248	0	1	1	53248	1	53248	1	53248	1	0.7	53248	brown	green	1	0	ml	2.7.3	lorasick	sub-09_ses-02_task-ml_proj-lorasick_2021-02-10-13-57-33.693845
175	9	2	4	176	stable	1	200	176	sv	green	brown	brown	green	right	left	0.7	0.30000000000000004	4	2	2.8	0.6000000000000001	1	0	0.30000000000000004	0.7	2	4	0.6000000000000001	2.8	valid	0.34993565600234433	53248	0	1	1	53248	1	53248	1	53248	1	0.7	53248	brown	green	1	4	ml	2.7.3	lorasick	sub-09_ses-02_task-ml_proj-lorasick_2021-02-10-13-57-33.693845
176	9	2	4	177	stable	1	200	177	sv	green	brown	brown	green	right	left	0.7	0.30000000000000004	2	2	1.4	0.6000000000000001	1	0	0.30000000000000004	0.7	2	2	0.6000000000000001	1.4	valid	0.41658375300175976	53248	0	1	1	53248	1	53248	1	53248	1	0.7	53248	brown	green	0	2	ml	2.7.3	lorasick	sub-09_ses-02_task-ml_proj-lorasick_2021-02-10-13-57-33.693845
177	9	2	4	178	stable	1	200	178	sv	brown	green	brown	green	left	right	0.7	0.30000000000000004	4	2	2.8	0.6000000000000001	1	0	0.7	0.30000000000000004	4	2	2.8	0.6000000000000001	valid	0.3499268039995513	51200	0	0	1	51200	1	51200	1	51200	1	0.7	51200	brown	green	1	4	ml	2.7.3	lorasick	sub-09_ses-02_task-ml_proj-lorasick_2021-02-10-13-57-33.693845
178	9	2	4	179	stable	1	200	179	sv	brown	green	brown	green	left	right	0.7	0.30000000000000004	6	4	4.199999999999998	1.2000000000000002	1	0	0.7	0.30000000000000004	6	4	4.199999999999998	1.2000000000000002	valid	0.3499268699997629	51200	0	0	1	51200	1	51200	1	51200	1	0.7	51200	brown	green	1	6	ml	2.7.3	lorasick	sub-09_ses-02_task-ml_proj-lorasick_2021-02-10-13-57-33.693845
179	9	2	4	180	stable	1	200	180	sv	brown	green	brown	green	left	right	0.7	0.30000000000000004	2	4	1.4	1.2000000000000002	0	1	0.7	0.30000000000000004	2	4	1.4	1.2000000000000002	invalid	0.4498983310004405	51200	0	0	1	51200	1	51200	1	53248	0	0.7	51200	brown	green	0	0	ml	2.7.3	lorasick	sub-09_ses-02_task-ml_proj-lorasick_2021-02-10-13-57-33.693845
180	9	2	4	181	stable	1	200	181	sv	green	brown	brown	green	right	left	0.7	0.30000000000000004	2	2	1.4	0.6000000000000001	1	0	0.30000000000000004	0.7	2	2	0.6000000000000001	1.4	valid	0.3665900720006903	51200	0	0	2	53248	0	53248	0	53248	0	0.7	53248	brown	green	0	0	ml	2.7.3	lorasick	sub-09_ses-02_task-ml_proj-lorasick_2021-02-10-13-57-33.693845
181	9	2	4	182	stable	1	200	182	sv	green	brown	brown	green	right	left	0.7	0.30000000000000004	6	4	4.199999999999998	1.2000000000000002	0	1	0.30000000000000004	0.7	4	6	1.2000000000000002	4.199999999999998	invalid	0.3165997510004672	51200	0	0	2	53248	0	53248	0	53248	0	0.7	53248	brown	green	1	4	ml	2.7.3	lorasick	sub-09_ses-02_task-ml_proj-lorasick_2021-02-10-13-57-33.693845
182	9	2	4	183	stable	1	200	183	sv	green	brown	brown	green	right	left	0.7	0.30000000000000004	6	6	4.199999999999998	1.8000000000000005	1	0	0.30000000000000004	0.7	6	6	1.8000000000000005	4.199999999999998	valid	0.3832557169989741	53248	0	1	1	53248	1	53248	1	53248	1	0.7	53248	brown	green	0	6	ml	2.7.3	lorasick	sub-09_ses-02_task-ml_proj-lorasick_2021-02-10-13-57-33.693845
183	9	2	4	184	stable	1	200	184	sv	brown	green	brown	green	left	right	0.7	0.30000000000000004	6	2	4.199999999999998	0.6000000000000001	1	0	0.7	0.30000000000000004	6	2	4.199999999999998	0.6000000000000001	valid	0.34993446800217504	51200	0	0	1	51200	1	51200	1	51200	1	0.7	51200	brown	green	1	6	ml	2.7.3	lorasick	sub-09_ses-02_task-ml_proj-lorasick_2021-02-10-13-57-33.693845
184	9	2	4	185	stable	1	200	185	sv	green	brown	brown	green	right	left	0.7	0.30000000000000004	2	2	1.4	0.6000000000000001	1	0	0.30000000000000004	0.7	2	2	0.6000000000000001	1.4	valid	0.4165782909985865	53248	0	1	1	53248	1	53248	1	53248	1	0.7	53248	brown	green	0	2	ml	2.7.3	lorasick	sub-09_ses-02_task-ml_proj-lorasick_2021-02-10-13-57-33.693845
185	9	2	4	186	stable	1	200	186	sv	brown	green	brown	green	left	right	0.7	0.30000000000000004	2	6	1.4	1.8000000000000005	0	1	0.7	0.30000000000000004	2	6	1.4	1.8000000000000005	invalid	0.2832772629990359	51200	0	0	1	53248	0	51200	1	53248	0	0.7	51200	brown	green	0	0	ml	2.7.3	lorasick	sub-09_ses-02_task-ml_proj-lorasick_2021-02-10-13-57-33.693845
186	9	2	4	187	stable	1	200	187	sv	brown	green	brown	green	left	right	0.7	0.30000000000000004	2	4	1.4	1.2000000000000002	1	0	0.7	0.30000000000000004	2	4	1.4	1.2000000000000002	valid	0.6498323759988125	51200	0	0	1	51200	1	51200	1	53248	0	0.7	51200	brown	green	0	2	ml	2.7.3	lorasick	sub-09_ses-02_task-ml_proj-lorasick_2021-02-10-13-57-33.693845
187	9	2	4	188	stable	1	200	188	sv	green	brown	brown	green	right	left	0.7	0.30000000000000004	2	10	1.4	3.0000000000000004	0	1	0.30000000000000004	0.7	10	2	3.0000000000000004	1.4	invalid	0.4832341090004775	53248	0	1	1	51200	0	53248	1	51200	0	0.7	53248	brown	green	0	0	ml	2.7.3	lorasick	sub-09_ses-02_task-ml_proj-lorasick_2021-02-10-13-57-33.693845
188	9	2	4	189	stable	1	200	189	sv	brown	green	brown	green	left	right	0.7	0.30000000000000004	6	6	4.199999999999998	1.8000000000000005	1	0	0.7	0.30000000000000004	6	6	4.199999999999998	1.8000000000000005	valid	0.3999151950010855	51200	0	0	1	51200	1	51200	1	53248	0	0.7	51200	brown	green	1	6	ml	2.7.3	lorasick	sub-09_ses-02_task-ml_proj-lorasick_2021-02-10-13-57-33.693845
189	9	2	4	190	stable	1	200	190	sv	brown	green	brown	green	left	right	0.7	0.30000000000000004	10	2	7.0	0.6000000000000001	1	0	0.7	0.30000000000000004	10	2	7.0	0.6000000000000001	valid	0.29993909299810184	51200	0	0	1	51200	1	51200	1	51200	1	0.7	51200	brown	green	1	10	ml	2.7.3	lorasick	sub-09_ses-02_task-ml_proj-lorasick_2021-02-10-13-57-33.693845
190	9	2	4	191	stable	1	200	191	sv	green	brown	brown	green	right	left	0.7	0.30000000000000004	6	2	4.199999999999998	0.6000000000000001	1	0	0.30000000000000004	0.7	2	6	0.6000000000000001	4.199999999999998	valid	0.3832611119978537	53248	0	1	1	53248	1	53248	1	53248	1	0.7	53248	brown	green	1	6	ml	2.7.3	lorasick	sub-09_ses-02_task-ml_proj-lorasick_2021-02-10-13-57-33.693845
191	9	2	4	192	stable	1	200	192	sv	green	brown	brown	green	right	left	0.7	0.30000000000000004	2	2	1.4	0.6000000000000001	1	0	0.30000000000000004	0.7	2	2	0.6000000000000001	1.4	valid	0.3665988060020027	53248	0	1	1	53248	1	53248	1	53248	1	0.7	53248	brown	green	0	2	ml	2.7.3	lorasick	sub-09_ses-02_task-ml_proj-lorasick_2021-02-10-13-57-33.693845
192	9	2	4	193	stable	1	200	193	sv	green	brown	brown	green	right	left	0.7	0.30000000000000004	6	6	4.199999999999998	1.8000000000000005	1	0	0.30000000000000004	0.7	6	6	1.8000000000000005	4.199999999999998	valid	0.3665988369975821	53248	0	1	1	53248	1	53248	1	53248	1	0.7	53248	brown	green	0	6	ml	2.7.3	lorasick	sub-09_ses-02_task-ml_proj-lorasick_2021-02-10-13-57-33.693845
193	9	2	4	194	stable	1	200	194	sv	green	brown	brown	green	right	left	0.7	0.30000000000000004	6	6	4.199999999999998	1.8000000000000005	1	0	0.30000000000000004	0.7	6	6	1.8000000000000005	4.199999999999998	valid	0.5498788889999561	53248	0	1	1	53248	1	53248	1	53248	1	0.7	53248	brown	green	0	6	ml	2.7.3	lorasick	sub-09_ses-02_task-ml_proj-lorasick_2021-02-10-13-57-33.693845
194	9	2	4	195	stable	1	200	195	sv	brown	green	brown	green	left	right	0.7	0.30000000000000004	4	6	2.8	1.8000000000000005	0	1	0.7	0.30000000000000004	4	6	2.8	1.8000000000000005	invalid	0.3999114830003237	51200	0	0	1	51200	1	51200	1	53248	0	0.7	51200	brown	green	0	0	ml	2.7.3	lorasick	sub-09_ses-02_task-ml_proj-lorasick_2021-02-10-13-57-33.693845
195	9	2	4	196	stable	1	200	196	sv	green	brown	brown	green	right	left	0.7	0.30000000000000004	2	6	1.4	1.8000000000000005	1	0	0.30000000000000004	0.7	6	2	1.8000000000000005	1.4	valid	0.399924800000008	53248	0	1	1	51200	0	53248	1	51200	0	0.7	53248	brown	green	0	2	ml	2.7.3	lorasick	sub-09_ses-02_task-ml_proj-lorasick_2021-02-10-13-57-33.693845
196	9	2	4	197	stable	1	200	197	sv	brown	green	brown	green	left	right	0.7	0.30000000000000004	10	2	7.0	0.6000000000000001	1	0	0.7	0.30000000000000004	10	2	7.0	0.6000000000000001	valid	0.3499259349991917	51200	0	0	1	51200	1	51200	1	51200	1	0.7	51200	brown	green	1	10	ml	2.7.3	lorasick	sub-09_ses-02_task-ml_proj-lorasick_2021-02-10-13-57-33.693845
197	9	2	4	198	stable	1	200	198	sv	green	brown	brown	green	right	left	0.7	0.30000000000000004	10	2	7.0	0.6000000000000001	1	0	0.30000000000000004	0.7	2	10	0.6000000000000001	7.0	valid	0.399922009997681	53248	0	1	1	53248	1	53248	1	53248	1	0.7	53248	brown	green	1	10	ml	2.7.3	lorasick	sub-09_ses-02_task-ml_proj-lorasick_2021-02-10-13-57-33.693845
198	9	2	4	199	stable	1	200	199	sv	brown	green	brown	green	left	right	0.7	0.30000000000000004	6	4	4.199999999999998	1.2000000000000002	1	0	0.7	0.30000000000000004	6	4	4.199999999999998	1.2000000000000002	valid	0.3665887999995903	51200	0	0	1	51200	1	51200	1	51200	1	0.7	51200	brown	green	1	6	ml	2.7.3	lorasick	sub-09_ses-02_task-ml_proj-lorasick_2021-02-10-13-57-33.693845
199	9	2	4	200	stable	1	200	200	sv	brown	green	brown	green	left	right	0.7	0.30000000000000004	2	10	1.4	3.0000000000000004	1	0	0.7	0.30000000000000004	2	10	1.4	3.0000000000000004	valid	0.29995182499988005	53248	0	1	2	53248	1	51200	0	53248	1	0.7	51200	brown	green	0	0	ml	2.7.3	lorasick	sub-09_ses-02_task-ml_proj-lorasick_2021-02-10-13-57-33.693845
200	9	2	5	201	volatile	2	20	1	sv	green	brown	brown	green	right	left	0.30000000000000004	0.7	2	4	0.6000000000000001	2.8	0	1	0.7	0.30000000000000004	4	2	2.8	0.6000000000000001	valid	0.44990675799999735	53248	0	1	1	51200	0	51200	0	51200	0	0.7	51200	green	brown	1	0	ml	2.7.3	lorasick	sub-09_ses-02_task-ml_proj-lorasick_2021-02-10-13-57-33.693845
201	9	2	5	202	volatile	2	20	2	sv	brown	green	brown	green	left	right	0.30000000000000004	0.7	2	10	0.6000000000000001	7.0	0	1	0.30000000000000004	0.7	2	10	0.6000000000000001	7.0	valid	0.0001030550010909792	51200	0	0	1	53248	0	53248	0	53248	0	0.7	53248	green	brown	1	0	ml	2.7.3	lorasick	sub-09_ses-02_task-ml_proj-lorasick_2021-02-10-13-57-33.693845
202	9	2	5	203	volatile	2	20	3	sv	green	brown	brown	green	right	left	0.30000000000000004	0.7	4	6	1.2000000000000002	4.199999999999998	1	0	0.7	0.30000000000000004	6	4	4.199999999999998	1.2000000000000002	invalid	0.4332358840001689	51200	0	0	2	51200	1	51200	1	51200	1	0.7	51200	green	brown	1	0	ml	2.7.3	lorasick	sub-09_ses-02_task-ml_proj-lorasick_2021-02-10-13-57-33.693845
203	9	2	5	204	volatile	2	20	4	sv	green	brown	brown	green	right	left	0.30000000000000004	0.7	4	6	1.2000000000000002	4.199999999999998	0	1	0.7	0.30000000000000004	6	4	4.199999999999998	1.2000000000000002	valid	0.4665687599990633	53248	0	1	1	51200	0	51200	0	51200	0	0.7	51200	green	brown	1	0	ml	2.7.3	lorasick	sub-09_ses-02_task-ml_proj-lorasick_2021-02-10-13-57-33.693845
204	9	2	5	205	volatile	2	20	5	sv	brown	green	brown	green	left	right	0.30000000000000004	0.7	2	6	0.6000000000000001	4.199999999999998	0	1	0.30000000000000004	0.7	2	6	0.6000000000000001	4.199999999999998	valid	0.5165383319981629	51200	0	0	1	53248	0	53248	0	53248	0	0.7	53248	green	brown	1	0	ml	2.7.3	lorasick	sub-09_ses-02_task-ml_proj-lorasick_2021-02-10-13-57-33.693845
205	9	2	5	206	volatile	2	20	6	sv	brown	green	brown	green	left	right	0.30000000000000004	0.7	4	2	1.2000000000000002	1.4	0	1	0.30000000000000004	0.7	4	2	1.2000000000000002	1.4	valid	0.24995516699709694	51200	0	0	1	53248	0	53248	0	51200	1	0.7	53248	green	brown	0	0	ml	2.7.3	lorasick	sub-09_ses-02_task-ml_proj-lorasick_2021-02-10-13-57-33.693845
206	9	2	5	207	volatile	2	20	7	sv	green	brown	brown	green	right	left	0.30000000000000004	0.7	6	4	1.8000000000000005	2.8	0	1	0.7	0.30000000000000004	4	6	2.8	1.8000000000000005	valid	0.44989005400202586	51200	0	0	2	51200	1	51200	1	53248	0	0.7	51200	green	brown	0	4	ml	2.7.3	lorasick	sub-09_ses-02_task-ml_proj-lorasick_2021-02-10-13-57-33.693845
207	9	2	5	208	volatile	2	20	8	sv	green	brown	brown	green	right	left	0.30000000000000004	0.7	2	6	0.6000000000000001	4.199999999999998	1	0	0.7	0.30000000000000004	6	2	4.199999999999998	0.6000000000000001	invalid	0.31660182400082704	51200	0	0	2	51200	1	51200	1	51200	1	0.7	51200	green	brown	1	0	ml	2.7.3	lorasick	sub-09_ses-02_task-ml_proj-lorasick_2021-02-10-13-57-33.693845
208	9	2	5	209	volatile	2	20	9	sv	brown	green	brown	green	left	right	0.30000000000000004	0.7	6	6	1.8000000000000005	4.199999999999998	0	1	0.30000000000000004	0.7	6	6	1.8000000000000005	4.199999999999998	valid	0.3999219979996269	53248	0	1	2	53248	1	53248	1	53248	1	0.7	53248	green	brown	0	6	ml	2.7.3	lorasick	sub-09_ses-02_task-ml_proj-lorasick_2021-02-10-13-57-33.693845
209	9	2	5	210	volatile	2	20	10	sv	brown	green	brown	green	left	right	0.30000000000000004	0.7	10	2	3.0000000000000004	1.4	0	1	0.30000000000000004	0.7	10	2	3.0000000000000004	1.4	valid	0.4499063459988975	53248	0	1	2	51200	0	53248	1	51200	0	0.7	53248	green	brown	0	2	ml	2.7.3	lorasick	sub-09_ses-02_task-ml_proj-lorasick_2021-02-10-13-57-33.693845
210	9	2	5	211	volatile	2	20	11	sv	green	brown	brown	green	right	left	0.30000000000000004	0.7	2	6	0.6000000000000001	4.199999999999998	1	0	0.7	0.30000000000000004	6	2	4.199999999999998	0.6000000000000001	invalid	0.33326519999900484	51200	0	0	2	51200	1	51200	1	51200	1	0.7	51200	green	brown	1	0	ml	2.7.3	lorasick	sub-09_ses-02_task-ml_proj-lorasick_2021-02-10-13-57-33.693845
211	9	2	5	212	volatile	2	20	12	sv	green	brown	brown	green	right	left	0.30000000000000004	0.7	2	10	0.6000000000000001	7.0	0	1	0.7	0.30000000000000004	10	2	7.0	0.6000000000000001	valid	0.3332672630021989	51200	0	0	2	51200	1	51200	1	51200	1	0.7	51200	green	brown	1	10	ml	2.7.3	lorasick	sub-09_ses-02_task-ml_proj-lorasick_2021-02-10-13-57-33.693845
212	9	2	5	213	volatile	2	20	13	sv	brown	green	brown	green	left	right	0.30000000000000004	0.7	2	10	0.6000000000000001	7.0	0	1	0.30000000000000004	0.7	2	10	0.6000000000000001	7.0	valid	0.3332747940003173	53248	0	1	2	53248	1	53248	1	53248	1	0.7	53248	green	brown	1	10	ml	2.7.3	lorasick	sub-09_ses-02_task-ml_proj-lorasick_2021-02-10-13-57-33.693845
213	9	2	5	214	volatile	2	20	14	sv	brown	green	brown	green	left	right	0.30000000000000004	0.7	2	6	0.6000000000000001	4.199999999999998	1	0	0.30000000000000004	0.7	2	6	0.6000000000000001	4.199999999999998	invalid	0.3499257359981129	51200	0	0	1	53248	0	53248	0	53248	0	0.7	53248	green	brown	1	2	ml	2.7.3	lorasick	sub-09_ses-02_task-ml_proj-lorasick_2021-02-10-13-57-33.693845
214	9	2	5	215	volatile	2	20	15	sv	brown	green	brown	green	left	right	0.30000000000000004	0.7	2	4	0.6000000000000001	2.8	0	1	0.30000000000000004	0.7	2	4	0.6000000000000001	2.8	valid	0.43324745400241227	53248	0	1	2	53248	1	53248	1	53248	1	0.7	53248	green	brown	1	4	ml	2.7.3	lorasick	sub-09_ses-02_task-ml_proj-lorasick_2021-02-10-13-57-33.693845
215	9	2	5	216	volatile	2	20	16	sv	green	brown	brown	green	right	left	0.30000000000000004	0.7	2	2	0.6000000000000001	1.4	0	1	0.7	0.30000000000000004	2	2	1.4	0.6000000000000001	valid	0.3499327260033169	51200	0	0	2	51200	1	51200	1	53248	0	0.7	51200	green	brown	1	2	ml	2.7.3	lorasick	sub-09_ses-02_task-ml_proj-lorasick_2021-02-10-13-57-33.693845
216	9	2	5	217	volatile	2	20	17	sv	green	brown	brown	green	right	left	0.30000000000000004	0.7	6	6	1.8000000000000005	4.199999999999998	0	1	0.7	0.30000000000000004	6	6	4.199999999999998	1.8000000000000005	valid	0.8997706260015548	53248	0	1	1	51200	0	51200	0	53248	1	0.7	51200	green	brown	1	0	ml	2.7.3	lorasick	sub-09_ses-02_task-ml_proj-lorasick_2021-02-10-13-57-33.693845
217	9	2	5	218	volatile	2	20	18	sv	brown	green	brown	green	left	right	0.30000000000000004	0.7	2	4	0.6000000000000001	2.8	1	0	0.30000000000000004	0.7	2	4	0.6000000000000001	2.8	invalid	0.3832502520017442	51200	0	0	1	53248	0	53248	0	53248	0	0.7	53248	green	brown	1	2	ml	2.7.3	lorasick	sub-09_ses-02_task-ml_proj-lorasick_2021-02-10-13-57-33.693845
218	9	2	5	219	volatile	2	20	19	sv	green	brown	brown	green	right	left	0.30000000000000004	0.7	2	2	0.6000000000000001	1.4	0	1	0.7	0.30000000000000004	2	2	1.4	0.6000000000000001	valid	0.5165449790001729	51200	0	0	2	51200	1	51200	1	53248	0	0.7	51200	green	brown	1	2	ml	2.7.3	lorasick	sub-09_ses-02_task-ml_proj-lorasick_2021-02-10-13-57-33.693845
219	9	2	5	220	volatile	2	20	20	sv	brown	green	brown	green	left	right	0.30000000000000004	0.7	4	6	1.2000000000000002	4.199999999999998	1	0	0.30000000000000004	0.7	4	6	1.2000000000000002	4.199999999999998	invalid	0.3999238870019326	53248	0	1	2	53248	1	53248	1	53248	1	0.7	53248	green	brown	1	0	ml	2.7.3	lorasick	sub-09_ses-02_task-ml_proj-lorasick_2021-02-10-13-57-33.693845
220	9	2	5	221	volatile	3	40	1	sv	green	brown	brown	green	right	left	0.7	0.30000000000000004	10	2	7.0	0.6000000000000001	1	0	0.30000000000000004	0.7	2	10	0.6000000000000001	7.0	valid	0.5998519980021229	51200	0	0	2	53248	0	53248	0	53248	0	0.7	53248	brown	green	1	0	ml	2.7.3	lorasick	sub-09_ses-02_task-ml_proj-lorasick_2021-02-10-13-57-33.693845
221	9	2	5	222	volatile	3	40	2	sv	brown	green	brown	green	left	right	0.7	0.30000000000000004	4	6	2.8	1.8000000000000005	0	1	0.7	0.30000000000000004	4	6	2.8	1.8000000000000005	invalid	0.39991157099939295	51200	0	0	1	51200	1	51200	1	53248	0	0.7	51200	brown	green	0	0	ml	2.7.3	lorasick	sub-09_ses-02_task-ml_proj-lorasick_2021-02-10-13-57-33.693845
222	9	2	5	223	volatile	3	40	3	sv	green	brown	brown	green	right	left	0.7	0.30000000000000004	4	2	2.8	0.6000000000000001	1	0	0.30000000000000004	0.7	2	4	0.6000000000000001	2.8	valid	0.4665585039983853	51200	0	0	2	53248	0	53248	0	53248	0	0.7	53248	brown	green	1	0	ml	2.7.3	lorasick	sub-09_ses-02_task-ml_proj-lorasick_2021-02-10-13-57-33.693845
223	9	2	5	224	volatile	3	40	4	sv	brown	green	brown	green	left	right	0.7	0.30000000000000004	10	2	7.0	0.6000000000000001	1	0	0.7	0.30000000000000004	10	2	7.0	0.6000000000000001	valid	0.3499250149980071	51200	0	0	1	51200	1	51200	1	51200	1	0.7	51200	brown	green	1	10	ml	2.7.3	lorasick	sub-09_ses-02_task-ml_proj-lorasick_2021-02-10-13-57-33.693845
224	9	2	5	225	volatile	3	40	5	sv	brown	green	brown	green	left	right	0.7	0.30000000000000004	4	6	2.8	1.8000000000000005	1	0	0.7	0.30000000000000004	4	6	2.8	1.8000000000000005	valid	0.3499275440008205	51200	0	0	1	51200	1	51200	1	53248	0	0.7	51200	brown	green	0	4	ml	2.7.3	lorasick	sub-09_ses-02_task-ml_proj-lorasick_2021-02-10-13-57-33.693845
225	9	2	5	226	volatile	3	40	6	sv	brown	green	brown	green	left	right	0.7	0.30000000000000004	10	2	7.0	0.6000000000000001	1	0	0.7	0.30000000000000004	10	2	7.0	0.6000000000000001	valid	0.3665807610013872	51200	0	0	1	51200	1	51200	1	51200	1	0.7	51200	brown	green	1	10	ml	2.7.3	lorasick	sub-09_ses-02_task-ml_proj-lorasick_2021-02-10-13-57-33.693845
226	9	2	5	227	volatile	3	40	7	sv	green	brown	brown	green	right	left	0.7	0.30000000000000004	10	2	7.0	0.6000000000000001	0	1	0.30000000000000004	0.7	2	10	0.6000000000000001	7.0	invalid	0.449906904999807	53248	0	1	1	53248	1	53248	1	53248	1	0.7	53248	brown	green	1	0	ml	2.7.3	lorasick	sub-09_ses-02_task-ml_proj-lorasick_2021-02-10-13-57-33.693845
227	9	2	5	228	volatile	3	40	8	sv	brown	green	brown	green	left	right	0.7	0.30000000000000004	2	4	1.4	1.2000000000000002	0	1	0.7	0.30000000000000004	2	4	1.4	1.2000000000000002	invalid	0.3665884180009016	51200	0	0	1	51200	1	51200	1	53248	0	0.7	51200	brown	green	0	0	ml	2.7.3	lorasick	sub-09_ses-02_task-ml_proj-lorasick_2021-02-10-13-57-33.693845
228	9	2	5	229	volatile	3	40	9	sv	green	brown	brown	green	right	left	0.7	0.30000000000000004	6	4	4.199999999999998	1.2000000000000002	0	1	0.30000000000000004	0.7	4	6	1.2000000000000002	4.199999999999998	invalid	0.00010014800136559644	51200	0	0	2	53248	0	53248	0	53248	0	0.7	53248	brown	green	1	4	ml	2.7.3	lorasick	sub-09_ses-02_task-ml_proj-lorasick_2021-02-10-13-57-33.693845
229	9	2	5	230	volatile	3	40	10	sv	brown	green	brown	green	left	right	0.7	0.30000000000000004	2	6	1.4	1.8000000000000005	1	0	0.7	0.30000000000000004	2	6	1.4	1.8000000000000005	valid	0.5498596469988115	51200	0	0	1	53248	0	51200	1	53248	0	0.7	51200	brown	green	0	2	ml	2.7.3	lorasick	sub-09_ses-02_task-ml_proj-lorasick_2021-02-10-13-57-33.693845
230	9	2	5	231	volatile	3	40	11	sv	brown	green	brown	green	left	right	0.7	0.30000000000000004	4	2	2.8	0.6000000000000001	1	0	0.7	0.30000000000000004	4	2	2.8	0.6000000000000001	valid	0.3499172370029555	51200	0	0	1	51200	1	51200	1	51200	1	0.7	51200	brown	green	1	4	ml	2.7.3	lorasick	sub-09_ses-02_task-ml_proj-lorasick_2021-02-10-13-57-33.693845
231	9	2	5	232	volatile	3	40	12	sv	green	brown	brown	green	right	left	0.7	0.30000000000000004	6	2	4.199999999999998	0.6000000000000001	1	0	0.30000000000000004	0.7	2	6	0.6000000000000001	4.199999999999998	valid	0.449905501001922	53248	0	1	1	53248	1	53248	1	53248	1	0.7	53248	brown	green	1	6	ml	2.7.3	lorasick	sub-09_ses-02_task-ml_proj-lorasick_2021-02-10-13-57-33.693845
232	9	2	5	233	volatile	3	40	13	sv	green	brown	brown	green	right	left	0.7	0.30000000000000004	2	6	1.4	1.8000000000000005	1	0	0.30000000000000004	0.7	6	2	1.8000000000000005	1.4	valid	0.6165133989998139	51200	0	0	2	51200	1	53248	0	51200	1	0.7	53248	brown	green	0	0	ml	2.7.3	lorasick	sub-09_ses-02_task-ml_proj-lorasick_2021-02-10-13-57-33.693845
233	9	2	5	234	volatile	3	40	14	sv	brown	green	brown	green	left	right	0.7	0.30000000000000004	2	6	1.4	1.8000000000000005	1	0	0.7	0.30000000000000004	2	6	1.4	1.8000000000000005	valid	0.3999212790004094	53248	0	1	2	53248	1	51200	0	53248	1	0.7	51200	brown	green	0	0	ml	2.7.3	lorasick	sub-09_ses-02_task-ml_proj-lorasick_2021-02-10-13-57-33.693845
234	9	2	5	235	volatile	3	40	15	sv	brown	green	brown	green	left	right	0.7	0.30000000000000004	10	2	7.0	0.6000000000000001	1	0	0.7	0.30000000000000004	10	2	7.0	0.6000000000000001	valid	0.3832429490030336	51200	0	0	1	51200	1	51200	1	51200	1	0.7	51200	brown	green	1	10	ml	2.7.3	lorasick	sub-09_ses-02_task-ml_proj-lorasick_2021-02-10-13-57-33.693845
235	9	2	5	236	volatile	3	40	16	sv	brown	green	brown	green	left	right	0.7	0.30000000000000004	2	10	1.4	3.0000000000000004	1	0	0.7	0.30000000000000004	2	10	1.4	3.0000000000000004	valid	0.4998837769999227	51200	0	0	1	53248	0	51200	1	53248	0	0.7	51200	brown	green	0	2	ml	2.7.3	lorasick	sub-09_ses-02_task-ml_proj-lorasick_2021-02-10-13-57-33.693845
236	9	2	5	237	volatile	3	40	17	sv	green	brown	brown	green	right	left	0.7	0.30000000000000004	2	2	1.4	0.6000000000000001	1	0	0.30000000000000004	0.7	2	2	0.6000000000000001	1.4	valid	0.4998910200010869	53248	0	1	1	53248	1	53248	1	53248	1	0.7	53248	brown	green	0	2	ml	2.7.3	lorasick	sub-09_ses-02_task-ml_proj-lorasick_2021-02-10-13-57-33.693845
237	9	2	5	238	volatile	3	40	18	sv	green	brown	brown	green	right	left	0.7	0.30000000000000004	4	2	2.8	0.6000000000000001	1	0	0.30000000000000004	0.7	2	4	0.6000000000000001	2.8	valid	0.3832630129982135	53248	0	1	1	53248	1	53248	1	53248	1	0.7	53248	brown	green	1	4	ml	2.7.3	lorasick	sub-09_ses-02_task-ml_proj-lorasick_2021-02-10-13-57-33.693845
238	9	2	5	239	volatile	3	40	19	sv	brown	green	brown	green	left	right	0.7	0.30000000000000004	2	2	1.4	0.6000000000000001	1	0	0.7	0.30000000000000004	2	2	1.4	0.6000000000000001	valid	0.4998936839983799	53248	0	1	2	51200	0	51200	0	53248	1	0.7	51200	brown	green	1	0	ml	2.7.3	lorasick	sub-09_ses-02_task-ml_proj-lorasick_2021-02-10-13-57-33.693845
239	9	2	5	240	volatile	3	40	20	sv	green	brown	brown	green	right	left	0.7	0.30000000000000004	2	6	1.4	1.8000000000000005	0	1	0.30000000000000004	0.7	6	2	1.8000000000000005	1.4	invalid	0.3999089900025865	51200	0	0	2	51200	1	53248	0	51200	1	0.7	53248	brown	green	0	6	ml	2.7.3	lorasick	sub-09_ses-02_task-ml_proj-lorasick_2021-02-10-13-57-33.693845
240	9	2	5	241	volatile	3	40	21	sv	green	brown	brown	green	right	left	0.7	0.30000000000000004	4	2	2.8	0.6000000000000001	1	0	0.30000000000000004	0.7	2	4	0.6000000000000001	2.8	valid	0.3832488389998616	51200	0	0	2	53248	0	53248	0	53248	0	0.7	53248	brown	green	1	0	ml	2.7.3	lorasick	sub-09_ses-02_task-ml_proj-lorasick_2021-02-10-13-57-33.693845
241	9	2	5	242	volatile	3	40	22	sv	brown	green	brown	green	left	right	0.7	0.30000000000000004	2	10	1.4	3.0000000000000004	1	0	0.7	0.30000000000000004	2	10	1.4	3.0000000000000004	valid	0.4998831750017416	51200	0	0	1	53248	0	51200	1	53248	0	0.7	51200	brown	green	0	2	ml	2.7.3	lorasick	sub-09_ses-02_task-ml_proj-lorasick_2021-02-10-13-57-33.693845
242	9	2	5	243	volatile	3	40	23	sv	brown	green	brown	green	left	right	0.7	0.30000000000000004	6	6	4.199999999999998	1.8000000000000005	1	0	0.7	0.30000000000000004	6	6	4.199999999999998	1.8000000000000005	valid	0.3665863640017051	51200	0	0	1	51200	1	51200	1	53248	0	0.7	51200	brown	green	1	6	ml	2.7.3	lorasick	sub-09_ses-02_task-ml_proj-lorasick_2021-02-10-13-57-33.693845
243	9	2	5	244	volatile	3	40	24	sv	brown	green	brown	green	left	right	0.7	0.30000000000000004	2	2	1.4	0.6000000000000001	0	1	0.7	0.30000000000000004	2	2	1.4	0.6000000000000001	invalid	0.3499245700004394	51200	0	0	1	51200	1	51200	1	53248	0	0.7	51200	brown	green	1	0	ml	2.7.3	lorasick	sub-09_ses-02_task-ml_proj-lorasick_2021-02-10-13-57-33.693845
244	9	2	5	245	volatile	3	40	25	sv	green	brown	brown	green	right	left	0.7	0.30000000000000004	4	6	2.8	1.8000000000000005	1	0	0.30000000000000004	0.7	6	4	1.8000000000000005	2.8	valid	0.3999198090023128	53248	0	1	1	53248	1	53248	1	51200	0	0.7	53248	brown	green	0	4	ml	2.7.3	lorasick	sub-09_ses-02_task-ml_proj-lorasick_2021-02-10-13-57-33.693845
245	9	2	5	246	volatile	3	40	26	sv	green	brown	brown	green	right	left	0.7	0.30000000000000004	6	2	4.199999999999998	0.6000000000000001	1	0	0.30000000000000004	0.7	2	6	0.6000000000000001	4.199999999999998	valid	0.4165759909992629	53248	0	1	1	53248	1	53248	1	53248	1	0.7	53248	brown	green	1	6	ml	2.7.3	lorasick	sub-09_ses-02_task-ml_proj-lorasick_2021-02-10-13-57-33.693845
246	9	2	5	247	volatile	3	40	27	sv	green	brown	brown	green	right	left	0.7	0.30000000000000004	6	6	4.199999999999998	1.8000000000000005	1	0	0.30000000000000004	0.7	6	6	1.8000000000000005	4.199999999999998	valid	0.3665995219998877	53248	0	1	1	53248	1	53248	1	53248	1	0.7	53248	brown	green	0	6	ml	2.7.3	lorasick	sub-09_ses-02_task-ml_proj-lorasick_2021-02-10-13-57-33.693845
247	9	2	5	248	volatile	3	40	28	sv	brown	green	brown	green	left	right	0.7	0.30000000000000004	6	4	4.199999999999998	1.2000000000000002	0	1	0.7	0.30000000000000004	6	4	4.199999999999998	1.2000000000000002	invalid	0.5332108149996202	51200	0	0	1	51200	1	51200	1	51200	1	0.7	51200	brown	green	1	0	ml	2.7.3	lorasick	sub-09_ses-02_task-ml_proj-lorasick_2021-02-10-13-57-33.693845
248	9	2	5	249	volatile	3	40	29	sv	green	brown	brown	green	right	left	0.7	0.30000000000000004	2	2	1.4	0.6000000000000001	1	0	0.30000000000000004	0.7	2	2	0.6000000000000001	1.4	valid	0.4165828750010405	53248	0	1	1	53248	1	53248	1	53248	1	0.7	53248	brown	green	0	2	ml	2.7.3	lorasick	sub-09_ses-02_task-ml_proj-lorasick_2021-02-10-13-57-33.693845
249	9	2	5	250	volatile	3	40	30	sv	green	brown	brown	green	right	left	0.7	0.30000000000000004	2	4	1.4	1.2000000000000002	0	1	0.30000000000000004	0.7	4	2	1.2000000000000002	1.4	invalid	0.3666009049993591	53248	0	1	1	53248	1	53248	1	51200	0	0.7	53248	brown	green	0	0	ml	2.7.3	lorasick	sub-09_ses-02_task-ml_proj-lorasick_2021-02-10-13-57-33.693845
250	9	2	6	251	volatile	3	40	31	sv	green	brown	brown	green	right	left	0.7	0.30000000000000004	4	6	2.8	1.8000000000000005	1	0	0.30000000000000004	0.7	6	4	1.8000000000000005	2.8	valid	0.4832153269999253	51200	0	0	2	53248	0	53248	0	51200	1	0.7	53248	brown	green	0	0	ml	2.7.3	lorasick	sub-09_ses-02_task-ml_proj-lorasick_2021-02-10-13-57-33.693845
251	9	2	6	252	volatile	3	40	32	sv	brown	green	brown	green	left	right	0.7	0.30000000000000004	4	2	2.8	0.6000000000000001	1	0	0.7	0.30000000000000004	4	2	2.8	0.6000000000000001	valid	0.3166088909965765	51200	0	0	1	51200	1	51200	1	51200	1	0.7	51200	brown	green	1	4	ml	2.7.3	lorasick	sub-09_ses-02_task-ml_proj-lorasick_2021-02-10-13-57-33.693845
252	9	2	6	253	volatile	3	40	33	sv	green	brown	brown	green	right	left	0.7	0.30000000000000004	6	4	4.199999999999998	1.2000000000000002	1	0	0.30000000000000004	0.7	4	6	1.2000000000000002	4.199999999999998	valid	0.3832594339983189	53248	0	1	1	53248	1	53248	1	53248	1	0.7	53248	brown	green	1	6	ml	2.7.3	lorasick	sub-09_ses-02_task-ml_proj-lorasick_2021-02-10-13-57-33.693845
253	9	2	6	254	volatile	3	40	34	sv	brown	green	brown	green	left	right	0.7	0.30000000000000004	6	2	4.199999999999998	0.6000000000000001	1	0	0.7	0.30000000000000004	6	2	4.199999999999998	0.6000000000000001	valid	0.3832505589998618	51200	0	0	1	51200	1	51200	1	51200	1	0.7	51200	brown	green	1	6	ml	2.7.3	lorasick	sub-09_ses-02_task-ml_proj-lorasick_2021-02-10-13-57-33.693845
254	9	2	6	255	volatile	3	40	35	sv	green	brown	brown	green	right	left	0.7	0.30000000000000004	6	6	4.199999999999998	1.8000000000000005	0	1	0.30000000000000004	0.7	6	6	1.8000000000000005	4.199999999999998	invalid	0.5665387349981756	53248	0	1	1	53248	1	53248	1	53248	1	0.7	53248	brown	green	0	0	ml	2.7.3	lorasick	sub-09_ses-02_task-ml_proj-lorasick_2021-02-10-13-57-33.693845
255	9	2	6	256	volatile	3	40	36	sv	brown	green	brown	green	left	right	0.7	0.30000000000000004	6	6	4.199999999999998	1.8000000000000005	0	1	0.7	0.30000000000000004	6	6	4.199999999999998	1.8000000000000005	invalid	0.29994048300068243	51200	0	0	1	51200	1	51200	1	53248	0	0.7	51200	brown	green	1	0	ml	2.7.3	lorasick	sub-09_ses-02_task-ml_proj-lorasick_2021-02-10-13-57-33.693845
256	9	2	6	257	volatile	3	40	37	sv	green	brown	brown	green	right	left	0.7	0.30000000000000004	4	6	2.8	1.8000000000000005	0	1	0.30000000000000004	0.7	6	4	1.8000000000000005	2.8	invalid	0.3832682210013445	53248	0	1	1	53248	1	53248	1	51200	0	0.7	53248	brown	green	0	0	ml	2.7.3	lorasick	sub-09_ses-02_task-ml_proj-lorasick_2021-02-10-13-57-33.693845
257	9	2	6	258	volatile	3	40	38	sv	green	brown	brown	green	right	left	0.7	0.30000000000000004	2	10	1.4	3.0000000000000004	1	0	0.30000000000000004	0.7	10	2	3.0000000000000004	1.4	valid	0.4332450809997681	53248	0	1	1	51200	0	53248	1	51200	0	0.7	53248	brown	green	0	2	ml	2.7.3	lorasick	sub-09_ses-02_task-ml_proj-lorasick_2021-02-10-13-57-33.693845
258	9	2	6	259	volatile	3	40	39	sv	brown	green	brown	green	left	right	0.7	0.30000000000000004	4	2	2.8	0.6000000000000001	1	0	0.7	0.30000000000000004	4	2	2.8	0.6000000000000001	valid	0.2832806740007072	51200	0	0	1	51200	1	51200	1	51200	1	0.7	51200	brown	green	1	4	ml	2.7.3	lorasick	sub-09_ses-02_task-ml_proj-lorasick_2021-02-10-13-57-33.693845
259	9	2	6	260	volatile	3	40	40	sv	brown	green	brown	green	left	right	0.7	0.30000000000000004	6	2	4.199999999999998	0.6000000000000001	0	1	0.7	0.30000000000000004	6	2	4.199999999999998	0.6000000000000001	invalid	0.4665582359994005	51200	0	0	1	51200	1	51200	1	51200	1	0.7	51200	brown	green	1	0	ml	2.7.3	lorasick	sub-09_ses-02_task-ml_proj-lorasick_2021-02-10-13-57-33.693845
260	9	2	6	261	volatile	4	20	1	sv	green	brown	brown	green	right	left	0.30000000000000004	0.7	2	2	0.6000000000000001	1.4	0	1	0.7	0.30000000000000004	2	2	1.4	0.6000000000000001	valid	0.4165739599993685	51200	0	0	2	51200	1	51200	1	53248	0	0.7	51200	green	brown	1	2	ml	2.7.3	lorasick	sub-09_ses-02_task-ml_proj-lorasick_2021-02-10-13-57-33.693845
261	9	2	6	262	volatile	4	20	2	sv	green	brown	brown	green	right	left	0.30000000000000004	0.7	2	10	0.6000000000000001	7.0	0	1	0.7	0.30000000000000004	10	2	7.0	0.6000000000000001	valid	0.3832498640003905	51200	0	0	2	51200	1	51200	1	51200	1	0.7	51200	green	brown	1	10	ml	2.7.3	lorasick	sub-09_ses-02_task-ml_proj-lorasick_2021-02-10-13-57-33.693845
262	9	2	6	263	volatile	4	20	3	sv	green	brown	brown	green	right	left	0.30000000000000004	0.7	6	6	1.8000000000000005	4.199999999999998	1	0	0.7	0.30000000000000004	6	6	4.199999999999998	1.8000000000000005	invalid	0.4665703989994654	53248	0	1	1	51200	0	51200	0	53248	1	0.7	51200	green	brown	1	6	ml	2.7.3	lorasick	sub-09_ses-02_task-ml_proj-lorasick_2021-02-10-13-57-33.693845
263	9	2	6	264	volatile	4	20	4	sv	green	brown	brown	green	right	left	0.30000000000000004	0.7	6	4	1.8000000000000005	2.8	0	1	0.7	0.30000000000000004	4	6	2.8	1.8000000000000005	valid	0.333275663000677	53248	0	1	1	51200	0	51200	0	53248	1	0.7	51200	green	brown	0	0	ml	2.7.3	lorasick	sub-09_ses-02_task-ml_proj-lorasick_2021-02-10-13-57-33.693845
264	9	2	6	265	volatile	4	20	5	sv	brown	green	brown	green	left	right	0.30000000000000004	0.7	2	2	0.6000000000000001	1.4	0	1	0.30000000000000004	0.7	2	2	0.6000000000000001	1.4	valid	0.5332145989996206	51200	0	0	1	53248	0	53248	0	53248	0	0.7	53248	green	brown	0	0	ml	2.7.3	lorasick	sub-09_ses-02_task-ml_proj-lorasick_2021-02-10-13-57-33.693845
265	9	2	6	266	volatile	4	20	6	sv	brown	green	brown	green	left	right	0.30000000000000004	0.7	4	2	1.2000000000000002	1.4	1	0	0.30000000000000004	0.7	4	2	1.2000000000000002	1.4	invalid	0.3499388290001661	53248	0	1	2	53248	1	53248	1	51200	0	0.7	53248	green	brown	0	0	ml	2.7.3	lorasick	sub-09_ses-02_task-ml_proj-lorasick_2021-02-10-13-57-33.693845
266	9	2	6	267	volatile	4	20	7	sv	green	brown	brown	green	right	left	0.30000000000000004	0.7	2	4	0.6000000000000001	2.8	1	0	0.7	0.30000000000000004	4	2	2.8	0.6000000000000001	invalid	0.4832210989989108	51200	0	0	2	51200	1	51200	1	51200	1	0.7	51200	green	brown	1	0	ml	2.7.3	lorasick	sub-09_ses-02_task-ml_proj-lorasick_2021-02-10-13-57-33.693845
267	9	2	6	268	volatile	4	20	8	sv	green	brown	brown	green	right	left	0.30000000000000004	0.7	2	6	0.6000000000000001	4.199999999999998	0	1	0.7	0.30000000000000004	6	2	4.199999999999998	0.6000000000000001	valid	0.4332367049973982	51200	0	0	2	51200	1	51200	1	51200	1	0.7	51200	green	brown	1	6	ml	2.7.3	lorasick	sub-09_ses-02_task-ml_proj-lorasick_2021-02-10-13-57-33.693845
268	9	2	6	269	volatile	4	20	9	sv	green	brown	brown	green	right	left	0.30000000000000004	0.7	10	2	3.0000000000000004	1.4	0	1	0.7	0.30000000000000004	2	10	1.4	3.0000000000000004	valid	0.3999121119995834	51200	0	0	2	53248	0	51200	1	53248	0	0.7	51200	green	brown	0	2	ml	2.7.3	lorasick	sub-09_ses-02_task-ml_proj-lorasick_2021-02-10-13-57-33.693845
269	9	2	6	270	volatile	4	20	10	sv	brown	green	brown	green	left	right	0.30000000000000004	0.7	6	6	1.8000000000000005	4.199999999999998	1	0	0.30000000000000004	0.7	6	6	1.8000000000000005	4.199999999999998	invalid	0.366604457001813	53248	0	1	2	53248	1	53248	1	53248	1	0.7	53248	green	brown	0	0	ml	2.7.3	lorasick	sub-09_ses-02_task-ml_proj-lorasick_2021-02-10-13-57-33.693845
270	9	2	6	271	volatile	4	20	11	sv	brown	green	brown	green	left	right	0.30000000000000004	0.7	2	6	0.6000000000000001	4.199999999999998	0	1	0.30000000000000004	0.7	2	6	0.6000000000000001	4.199999999999998	valid	0.5831867130000319	51200	0	0	1	53248	0	53248	0	53248	0	0.7	53248	green	brown	1	0	ml	2.7.3	lorasick	sub-09_ses-02_task-ml_proj-lorasick_2021-02-10-13-57-33.693845
271	9	2	6	272	volatile	4	20	12	sv	green	brown	brown	green	right	left	0.30000000000000004	0.7	4	2	1.2000000000000002	1.4	1	0	0.7	0.30000000000000004	2	4	1.4	1.2000000000000002	invalid	0.7165029370007687	53248	0	1	1	51200	0	51200	0	53248	1	0.7	51200	green	brown	0	4	ml	2.7.3	lorasick	sub-09_ses-02_task-ml_proj-lorasick_2021-02-10-13-57-33.693845
272	9	2	6	273	volatile	4	20	13	sv	brown	green	brown	green	left	right	0.30000000000000004	0.7	2	6	0.6000000000000001	4.199999999999998	0	1	0.30000000000000004	0.7	2	6	0.6000000000000001	4.199999999999998	valid	0.3499258779993397	51200	0	0	1	53248	0	53248	0	53248	0	0.7	53248	green	brown	1	0	ml	2.7.3	lorasick	sub-09_ses-02_task-ml_proj-lorasick_2021-02-10-13-57-33.693845
273	9	2	6	274	volatile	4	20	14	sv	brown	green	brown	green	left	right	0.30000000000000004	0.7	2	4	0.6000000000000001	2.8	1	0	0.30000000000000004	0.7	2	4	0.6000000000000001	2.8	invalid	0.3999113480022061	51200	0	0	1	53248	0	53248	0	53248	0	0.7	53248	green	brown	1	2	ml	2.7.3	lorasick	sub-09_ses-02_task-ml_proj-lorasick_2021-02-10-13-57-33.693845
274	9	2	6	275	volatile	4	20	15	sv	brown	green	brown	green	left	right	0.30000000000000004	0.7	4	6	1.2000000000000002	4.199999999999998	0	1	0.30000000000000004	0.7	4	6	1.2000000000000002	4.199999999999998	valid	0.3332776749994082	53248	0	1	2	53248	1	53248	1	53248	1	0.7	53248	green	brown	1	6	ml	2.7.3	lorasick	sub-09_ses-02_task-ml_proj-lorasick_2021-02-10-13-57-33.693845
275	9	2	6	276	volatile	4	20	16	sv	brown	green	brown	green	left	right	0.30000000000000004	0.7	6	4	1.8000000000000005	2.8	0	1	0.30000000000000004	0.7	6	4	1.8000000000000005	2.8	valid	0.36657856899910257	51200	0	0	1	53248	0	53248	0	51200	1	0.7	53248	green	brown	0	0	ml	2.7.3	lorasick	sub-09_ses-02_task-ml_proj-lorasick_2021-02-10-13-57-33.693845
276	9	2	6	277	volatile	4	20	17	sv	brown	green	brown	green	left	right	0.30000000000000004	0.7	2	10	0.6000000000000001	7.0	0	1	0.30000000000000004	0.7	2	10	0.6000000000000001	7.0	valid	0.23329273800118244	51200	0	0	1	53248	0	53248	0	53248	0	0.7	53248	green	brown	1	0	ml	2.7.3	lorasick	sub-09_ses-02_task-ml_proj-lorasick_2021-02-10-13-57-33.693845
277	9	2	6	278	volatile	4	20	18	sv	brown	green	brown	green	left	right	0.30000000000000004	0.7	6	2	1.8000000000000005	1.4	0	1	0.30000000000000004	0.7	6	2	1.8000000000000005	1.4	valid	0.3999208039967925	53248	0	1	2	51200	0	53248	1	51200	0	0.7	53248	green	brown	0	2	ml	2.7.3	lorasick	sub-09_ses-02_task-ml_proj-lorasick_2021-02-10-13-57-33.693845
278	9	2	6	279	volatile	4	20	19	sv	green	brown	brown	green	right	left	0.30000000000000004	0.7	4	6	1.2000000000000002	4.199999999999998	0	1	0.7	0.30000000000000004	6	4	4.199999999999998	1.2000000000000002	valid	0.36658900800102856	51200	0	0	2	51200	1	51200	1	51200	1	0.7	51200	green	brown	1	6	ml	2.7.3	lorasick	sub-09_ses-02_task-ml_proj-lorasick_2021-02-10-13-57-33.693845
279	9	2	6	280	volatile	4	20	20	sv	green	brown	brown	green	right	left	0.30000000000000004	0.7	2	10	0.6000000000000001	7.0	0	1	0.7	0.30000000000000004	10	2	7.0	0.6000000000000001	valid	0.3499244859995088	51200	0	0	2	51200	1	51200	1	51200	1	0.7	51200	green	brown	1	10	ml	2.7.3	lorasick	sub-09_ses-02_task-ml_proj-lorasick_2021-02-10-13-57-33.693845
280	9	2	6	281	volatile	5	20	1	sv	green	brown	brown	green	right	left	0.7	0.30000000000000004	2	2	1.4	0.6000000000000001	0	1	0.30000000000000004	0.7	2	2	0.6000000000000001	1.4	invalid	0.34993529799976386	53248	0	1	1	53248	1	53248	1	53248	1	0.7	53248	brown	green	0	0	ml	2.7.3	lorasick	sub-09_ses-02_task-ml_proj-lorasick_2021-02-10-13-57-33.693845
281	9	2	6	282	volatile	5	20	2	sv	green	brown	brown	green	right	left	0.7	0.30000000000000004	10	2	7.0	0.6000000000000001	1	0	0.30000000000000004	0.7	2	10	0.6000000000000001	7.0	valid	0.3666005720006069	53248	0	1	1	53248	1	53248	1	53248	1	0.7	53248	brown	green	1	10	ml	2.7.3	lorasick	sub-09_ses-02_task-ml_proj-lorasick_2021-02-10-13-57-33.693845
282	9	2	6	283	volatile	5	20	3	sv	green	brown	brown	green	right	left	0.7	0.30000000000000004	2	6	1.4	1.8000000000000005	1	0	0.30000000000000004	0.7	6	2	1.8000000000000005	1.4	valid	0.3999385210008768	53248	0	1	1	51200	0	53248	1	51200	0	0.7	53248	brown	green	0	2	ml	2.7.3	lorasick	sub-09_ses-02_task-ml_proj-lorasick_2021-02-10-13-57-33.693845
