Unnamed: 0	sub_id	ses_id	block_no	trial_no	phase_type	phase_no	phase_length	trialInPhase_no	phase_type_order	color_left	color_right	color1	color2	position1	position2	prob1	prob2	mag1	mag2	ev1	ev2	outcome1	outcome2	prob_left	prob_right	mag_left	mag_right	ev_left	ev_right	reward_validity	resp_time	resp_key	timeout	choice_side	choice	ev_corr_resp	ev_correct	prob_corr_resp	prob_correct	mag_corr_resp	mag_correct	high_prob	high_prob_side	high_prob_color	low_prob_color	no_brain	reward	name	version	proj_id	logFileID
0	12	2	1	1	volatile	1	20	1	vs	red	blue	red	blue	left	right	0.7	0.30000000000000004	6	4	4.199999999999998	1.2000000000000002	0	1	0.7	0.30000000000000004	6	4	4.199999999999998	1.2000000000000002	invalid	0.9830733870039694	51200	0	0	1	51200	1	51200	1	51200	1	0.7	51200	red	blue	1	0	ml	2.7.3	lorasick	sub-12_ses-02_task-ml_proj-lorasick_2021-03-09-16-48-01.501773
1	12	2	1	2	volatile	1	20	2	vs	blue	red	red	blue	right	left	0.7	0.30000000000000004	2	2	1.4	0.6000000000000001	1	0	0.30000000000000004	0.7	2	2	0.6000000000000001	1.4	valid	0.5998450779952691	51200	0	0	2	53248	0	53248	0	53248	0	0.7	53248	red	blue	0	0	ml	2.7.3	lorasick	sub-12_ses-02_task-ml_proj-lorasick_2021-03-09-16-48-01.501773
2	12	2	1	3	volatile	1	20	3	vs	red	blue	red	blue	left	right	0.7	0.30000000000000004	6	6	4.199999999999998	1.8000000000000005	1	0	0.7	0.30000000000000004	6	6	4.199999999999998	1.8000000000000005	valid	0.4332410779970815	51200	0	0	1	51200	1	51200	1	53248	0	0.7	51200	red	blue	1	6	ml	2.7.3	lorasick	sub-12_ses-02_task-ml_proj-lorasick_2021-03-09-16-48-01.501773
3	12	2	1	4	volatile	1	20	4	vs	red	blue	red	blue	left	right	0.7	0.30000000000000004	4	6	2.8	1.8000000000000005	1	0	0.7	0.30000000000000004	4	6	2.8	1.8000000000000005	valid	0.33326563000446185	51200	0	0	1	51200	1	51200	1	53248	0	0.7	51200	red	blue	0	4	ml	2.7.3	lorasick	sub-12_ses-02_task-ml_proj-lorasick_2021-03-09-16-48-01.501773
4	12	2	1	5	volatile	1	20	5	vs	red	blue	red	blue	left	right	0.7	0.30000000000000004	2	4	1.4	1.2000000000000002	1	0	0.7	0.30000000000000004	2	4	1.4	1.2000000000000002	valid	0.299939643999096	51200	0	0	1	51200	1	51200	1	53248	0	0.7	51200	red	blue	0	2	ml	2.7.3	lorasick	sub-12_ses-02_task-ml_proj-lorasick_2021-03-09-16-48-01.501773
5	12	2	1	6	volatile	1	20	6	vs	blue	red	red	blue	right	left	0.7	0.30000000000000004	10	2	7.0	0.6000000000000001	0	1	0.30000000000000004	0.7	2	10	0.6000000000000001	7.0	invalid	0.4832273960055318	53248	0	1	1	53248	1	53248	1	53248	1	0.7	53248	red	blue	1	0	ml	2.7.3	lorasick	sub-12_ses-02_task-ml_proj-lorasick_2021-03-09-16-48-01.501773
6	12	2	1	7	volatile	1	20	7	vs	blue	red	red	blue	right	left	0.7	0.30000000000000004	2	6	1.4	1.8000000000000005	0	1	0.30000000000000004	0.7	6	2	1.8000000000000005	1.4	invalid	0.5332181289995788	53248	0	1	1	51200	0	53248	1	51200	0	0.7	53248	red	blue	0	0	ml	2.7.3	lorasick	sub-12_ses-02_task-ml_proj-lorasick_2021-03-09-16-48-01.501773
7	12	2	1	8	volatile	1	20	8	vs	blue	red	red	blue	right	left	0.7	0.30000000000000004	2	10	1.4	3.0000000000000004	1	0	0.30000000000000004	0.7	10	2	3.0000000000000004	1.4	valid	0.29993949399795383	51200	0	0	2	51200	1	53248	0	51200	1	0.7	53248	red	blue	0	0	ml	2.7.3	lorasick	sub-12_ses-02_task-ml_proj-lorasick_2021-03-09-16-48-01.501773
8	12	2	1	9	volatile	1	20	9	vs	red	blue	red	blue	left	right	0.7	0.30000000000000004	2	6	1.4	1.8000000000000005	1	0	0.7	0.30000000000000004	2	6	1.4	1.8000000000000005	valid	0.3999092909944011	51200	0	0	1	53248	0	51200	1	53248	0	0.7	51200	red	blue	0	2	ml	2.7.3	lorasick	sub-12_ses-02_task-ml_proj-lorasick_2021-03-09-16-48-01.501773
9	12	2	1	10	volatile	1	20	10	vs	red	blue	red	blue	left	right	0.7	0.30000000000000004	2	6	1.4	1.8000000000000005	0	1	0.7	0.30000000000000004	2	6	1.4	1.8000000000000005	invalid	0.3332707150038914	51200	0	0	1	53248	0	51200	1	53248	0	0.7	51200	red	blue	0	0	ml	2.7.3	lorasick	sub-12_ses-02_task-ml_proj-lorasick_2021-03-09-16-48-01.501773
10	12	2	1	11	volatile	1	20	11	vs	red	blue	red	blue	left	right	0.7	0.30000000000000004	10	2	7.0	0.6000000000000001	0	1	0.7	0.30000000000000004	10	2	7.0	0.6000000000000001	invalid	0.3999208759996691	53248	0	1	2	51200	0	51200	0	51200	0	0.7	51200	red	blue	1	2	ml	2.7.3	lorasick	sub-12_ses-02_task-ml_proj-lorasick_2021-03-09-16-48-01.501773
11	12	2	1	12	volatile	1	20	12	vs	red	blue	red	blue	left	right	0.7	0.30000000000000004	4	6	2.8	1.8000000000000005	1	0	0.7	0.30000000000000004	4	6	2.8	1.8000000000000005	valid	0.6165256089952891	53248	0	1	2	51200	0	51200	0	53248	1	0.7	51200	red	blue	0	0	ml	2.7.3	lorasick	sub-12_ses-02_task-ml_proj-lorasick_2021-03-09-16-48-01.501773
12	12	2	1	13	volatile	1	20	13	vs	blue	red	red	blue	right	left	0.7	0.30000000000000004	4	2	2.8	0.6000000000000001	1	0	0.30000000000000004	0.7	2	4	0.6000000000000001	2.8	valid	0.383251076003944	51200	0	0	2	53248	0	53248	0	53248	0	0.7	53248	red	blue	1	0	ml	2.7.3	lorasick	sub-12_ses-02_task-ml_proj-lorasick_2021-03-09-16-48-01.501773
13	12	2	1	14	volatile	1	20	14	vs	red	blue	red	blue	left	right	0.7	0.30000000000000004	2	2	1.4	0.6000000000000001	1	0	0.7	0.30000000000000004	2	2	1.4	0.6000000000000001	valid	0.6831623769976432	51200	0	0	1	51200	1	51200	1	53248	0	0.7	51200	red	blue	1	2	ml	2.7.3	lorasick	sub-12_ses-02_task-ml_proj-lorasick_2021-03-09-16-48-01.501773
14	12	2	1	15	volatile	1	20	15	vs	blue	red	red	blue	right	left	0.7	0.30000000000000004	2	4	1.4	1.2000000000000002	1	0	0.30000000000000004	0.7	4	2	1.2000000000000002	1.4	valid	0.4165860509965569	53248	0	1	1	53248	1	53248	1	51200	0	0.7	53248	red	blue	0	2	ml	2.7.3	lorasick	sub-12_ses-02_task-ml_proj-lorasick_2021-03-09-16-48-01.501773
15	12	2	1	16	volatile	1	20	16	vs	blue	red	red	blue	right	left	0.7	0.30000000000000004	2	6	1.4	1.8000000000000005	1	0	0.30000000000000004	0.7	6	2	1.8000000000000005	1.4	valid	0.41658436699799495	53248	0	1	1	51200	0	53248	1	51200	0	0.7	53248	red	blue	0	2	ml	2.7.3	lorasick	sub-12_ses-02_task-ml_proj-lorasick_2021-03-09-16-48-01.501773
16	12	2	1	17	volatile	1	20	17	vs	blue	red	red	blue	right	left	0.7	0.30000000000000004	4	6	2.8	1.8000000000000005	0	1	0.30000000000000004	0.7	6	4	1.8000000000000005	2.8	invalid	0.3832542750024004	53248	0	1	1	53248	1	53248	1	51200	0	0.7	53248	red	blue	0	0	ml	2.7.3	lorasick	sub-12_ses-02_task-ml_proj-lorasick_2021-03-09-16-48-01.501773
17	12	2	1	18	volatile	1	20	18	vs	red	blue	red	blue	left	right	0.7	0.30000000000000004	4	2	2.8	0.6000000000000001	1	0	0.7	0.30000000000000004	4	2	2.8	0.6000000000000001	valid	0.633174942995538	51200	0	0	1	51200	1	51200	1	51200	1	0.7	51200	red	blue	1	4	ml	2.7.3	lorasick	sub-12_ses-02_task-ml_proj-lorasick_2021-03-09-16-48-01.501773
18	12	2	1	19	volatile	1	20	19	vs	blue	red	red	blue	right	left	0.7	0.30000000000000004	10	2	7.0	0.6000000000000001	1	0	0.30000000000000004	0.7	2	10	0.6000000000000001	7.0	valid	0.399924060999183	53248	0	1	1	53248	1	53248	1	53248	1	0.7	53248	red	blue	1	10	ml	2.7.3	lorasick	sub-12_ses-02_task-ml_proj-lorasick_2021-03-09-16-48-01.501773
19	12	2	1	20	volatile	1	20	20	vs	blue	red	red	blue	right	left	0.7	0.30000000000000004	6	6	4.199999999999998	1.8000000000000005	1	0	0.30000000000000004	0.7	6	6	1.8000000000000005	4.199999999999998	valid	0.3832584800038603	53248	0	1	1	53248	1	53248	1	53248	1	0.7	53248	red	blue	0	6	ml	2.7.3	lorasick	sub-12_ses-02_task-ml_proj-lorasick_2021-03-09-16-48-01.501773
20	12	2	1	21	volatile	2	20	1	vs	red	blue	red	blue	left	right	0.30000000000000004	0.7	2	6	0.6000000000000001	4.199999999999998	0	1	0.30000000000000004	0.7	2	6	0.6000000000000001	4.199999999999998	valid	0.36663206099910894	51200	0	0	1	53248	0	53248	0	53248	0	0.7	53248	blue	red	1	0	ml	2.7.3	lorasick	sub-12_ses-02_task-ml_proj-lorasick_2021-03-09-16-48-01.501773
21	12	2	1	22	volatile	2	20	2	vs	blue	red	red	blue	right	left	0.30000000000000004	0.7	6	6	1.8000000000000005	4.199999999999998	0	1	0.7	0.30000000000000004	6	6	4.199999999999998	1.8000000000000005	valid	0.5332160190009745	53248	0	1	1	51200	0	51200	0	53248	1	0.7	51200	blue	red	1	0	ml	2.7.3	lorasick	sub-12_ses-02_task-ml_proj-lorasick_2021-03-09-16-48-01.501773
22	12	2	1	23	volatile	2	20	3	vs	red	blue	red	blue	left	right	0.30000000000000004	0.7	2	2	0.6000000000000001	1.4	0	1	0.30000000000000004	0.7	2	2	0.6000000000000001	1.4	valid	0.41657135899731657	51200	0	0	1	53248	0	53248	0	53248	0	0.7	53248	blue	red	0	0	ml	2.7.3	lorasick	sub-12_ses-02_task-ml_proj-lorasick_2021-03-09-16-48-01.501773
23	12	2	1	24	volatile	2	20	4	vs	blue	red	red	blue	right	left	0.30000000000000004	0.7	6	2	1.8000000000000005	1.4	0	1	0.7	0.30000000000000004	2	6	1.4	1.8000000000000005	valid	0.3665872120036511	51200	0	0	2	53248	0	51200	1	53248	0	0.7	51200	blue	red	0	2	ml	2.7.3	lorasick	sub-12_ses-02_task-ml_proj-lorasick_2021-03-09-16-48-01.501773
24	12	2	1	25	volatile	2	20	5	vs	blue	red	red	blue	right	left	0.30000000000000004	0.7	6	4	1.8000000000000005	2.8	1	0	0.7	0.30000000000000004	4	6	2.8	1.8000000000000005	invalid	0.34993478899559705	51200	0	0	2	51200	1	51200	1	53248	0	0.7	51200	blue	red	0	0	ml	2.7.3	lorasick	sub-12_ses-02_task-ml_proj-lorasick_2021-03-09-16-48-01.501773
25	12	2	1	26	volatile	2	20	6	vs	red	blue	red	blue	left	right	0.30000000000000004	0.7	10	2	3.0000000000000004	1.4	1	0	0.30000000000000004	0.7	10	2	3.0000000000000004	1.4	invalid	0.5831891269990592	51200	0	0	1	51200	1	53248	0	51200	1	0.7	53248	blue	red	0	10	ml	2.7.3	lorasick	sub-12_ses-02_task-ml_proj-lorasick_2021-03-09-16-48-01.501773
26	12	2	1	27	volatile	2	20	7	vs	red	blue	red	blue	left	right	0.30000000000000004	0.7	6	2	1.8000000000000005	1.4	0	1	0.30000000000000004	0.7	6	2	1.8000000000000005	1.4	valid	0.5831913980000536	51200	0	0	1	51200	1	53248	0	51200	1	0.7	53248	blue	red	0	0	ml	2.7.3	lorasick	sub-12_ses-02_task-ml_proj-lorasick_2021-03-09-16-48-01.501773
27	12	2	1	28	volatile	2	20	8	vs	blue	red	red	blue	right	left	0.30000000000000004	0.7	2	2	0.6000000000000001	1.4	1	0	0.7	0.30000000000000004	2	2	1.4	0.6000000000000001	invalid	0.6498498950022622	53248	0	1	1	51200	0	51200	0	53248	1	0.7	51200	blue	red	1	2	ml	2.7.3	lorasick	sub-12_ses-02_task-ml_proj-lorasick_2021-03-09-16-48-01.501773
28	12	2	1	29	volatile	2	20	9	vs	red	blue	red	blue	left	right	0.30000000000000004	0.7	4	6	1.2000000000000002	4.199999999999998	0	1	0.30000000000000004	0.7	4	6	1.2000000000000002	4.199999999999998	valid	0.3499267750012223	51200	0	0	1	53248	0	53248	0	53248	0	0.7	53248	blue	red	1	0	ml	2.7.3	lorasick	sub-12_ses-02_task-ml_proj-lorasick_2021-03-09-16-48-01.501773
29	12	2	1	30	volatile	2	20	10	vs	blue	red	red	blue	right	left	0.30000000000000004	0.7	4	6	1.2000000000000002	4.199999999999998	0	1	0.7	0.30000000000000004	6	4	4.199999999999998	1.2000000000000002	valid	0.6165183279954363	53248	0	1	1	51200	0	51200	0	51200	0	0.7	51200	blue	red	1	0	ml	2.7.3	lorasick	sub-12_ses-02_task-ml_proj-lorasick_2021-03-09-16-48-01.501773
30	12	2	1	31	volatile	2	20	11	vs	red	blue	red	blue	left	right	0.30000000000000004	0.7	2	10	0.6000000000000001	7.0	0	1	0.30000000000000004	0.7	2	10	0.6000000000000001	7.0	valid	0.5665293029960594	51200	0	0	1	53248	0	53248	0	53248	0	0.7	53248	blue	red	1	0	ml	2.7.3	lorasick	sub-12_ses-02_task-ml_proj-lorasick_2021-03-09-16-48-01.501773
31	12	2	1	32	volatile	2	20	12	vs	blue	red	red	blue	right	left	0.30000000000000004	0.7	4	6	1.2000000000000002	4.199999999999998	0	1	0.7	0.30000000000000004	6	4	4.199999999999998	1.2000000000000002	valid	0.4165686790001928	51200	0	0	2	51200	1	51200	1	51200	1	0.7	51200	blue	red	1	6	ml	2.7.3	lorasick	sub-12_ses-02_task-ml_proj-lorasick_2021-03-09-16-48-01.501773
32	12	2	1	33	volatile	2	20	13	vs	red	blue	red	blue	left	right	0.30000000000000004	0.7	2	10	0.6000000000000001	7.0	0	1	0.30000000000000004	0.7	2	10	0.6000000000000001	7.0	valid	0.3999206590015092	53248	0	1	2	53248	1	53248	1	53248	1	0.7	53248	blue	red	1	10	ml	2.7.3	lorasick	sub-12_ses-02_task-ml_proj-lorasick_2021-03-09-16-48-01.501773
33	12	2	1	34	volatile	2	20	14	vs	red	blue	red	blue	left	right	0.30000000000000004	0.7	6	2	1.8000000000000005	1.4	1	0	0.30000000000000004	0.7	6	2	1.8000000000000005	1.4	invalid	0.4665691089976463	53248	0	1	2	51200	0	53248	1	51200	0	0.7	53248	blue	red	0	0	ml	2.7.3	lorasick	sub-12_ses-02_task-ml_proj-lorasick_2021-03-09-16-48-01.501773
34	12	2	1	35	volatile	2	20	15	vs	red	blue	red	blue	left	right	0.30000000000000004	0.7	2	4	0.6000000000000001	2.8	0	1	0.30000000000000004	0.7	2	4	0.6000000000000001	2.8	valid	0.499892585001362	53248	0	1	2	53248	1	53248	1	53248	1	0.7	53248	blue	red	1	4	ml	2.7.3	lorasick	sub-12_ses-02_task-ml_proj-lorasick_2021-03-09-16-48-01.501773
35	12	2	1	36	volatile	2	20	16	vs	blue	red	red	blue	right	left	0.30000000000000004	0.7	2	10	0.6000000000000001	7.0	0	1	0.7	0.30000000000000004	10	2	7.0	0.6000000000000001	valid	0.4165724810009124	51200	0	0	2	51200	1	51200	1	51200	1	0.7	51200	blue	red	1	10	ml	2.7.3	lorasick	sub-12_ses-02_task-ml_proj-lorasick_2021-03-09-16-48-01.501773
36	12	2	1	37	volatile	2	20	17	vs	blue	red	red	blue	right	left	0.30000000000000004	0.7	4	2	1.2000000000000002	1.4	0	1	0.7	0.30000000000000004	2	4	1.4	1.2000000000000002	valid	0.3832432049966883	51200	0	0	2	51200	1	51200	1	53248	0	0.7	51200	blue	red	0	2	ml	2.7.3	lorasick	sub-12_ses-02_task-ml_proj-lorasick_2021-03-09-16-48-01.501773
37	12	2	1	38	volatile	2	20	18	vs	red	blue	red	blue	left	right	0.30000000000000004	0.7	6	6	1.8000000000000005	4.199999999999998	1	0	0.30000000000000004	0.7	6	6	1.8000000000000005	4.199999999999998	invalid	0.44991358799597947	53248	0	1	2	53248	1	53248	1	53248	1	0.7	53248	blue	red	0	0	ml	2.7.3	lorasick	sub-12_ses-02_task-ml_proj-lorasick_2021-03-09-16-48-01.501773
38	12	2	1	39	volatile	2	20	19	vs	blue	red	red	blue	right	left	0.30000000000000004	0.7	2	4	0.6000000000000001	2.8	0	1	0.7	0.30000000000000004	4	2	2.8	0.6000000000000001	valid	0.4165731820030487	51200	0	0	2	51200	1	51200	1	51200	1	0.7	51200	blue	red	1	4	ml	2.7.3	lorasick	sub-12_ses-02_task-ml_proj-lorasick_2021-03-09-16-48-01.501773
39	12	2	1	40	volatile	2	20	20	vs	blue	red	red	blue	right	left	0.30000000000000004	0.7	2	4	0.6000000000000001	2.8	1	0	0.7	0.30000000000000004	4	2	2.8	0.6000000000000001	invalid	0.3999136610000278	51200	0	0	2	51200	1	51200	1	51200	1	0.7	51200	blue	red	1	0	ml	2.7.3	lorasick	sub-12_ses-02_task-ml_proj-lorasick_2021-03-09-16-48-01.501773
40	12	2	1	41	volatile	3	40	1	vs	red	blue	red	blue	left	right	0.7	0.30000000000000004	10	2	7.0	0.6000000000000001	0	1	0.7	0.30000000000000004	10	2	7.0	0.6000000000000001	invalid	0.5165563409973402	53248	0	1	2	51200	0	51200	0	51200	0	0.7	51200	red	blue	1	2	ml	2.7.3	lorasick	sub-12_ses-02_task-ml_proj-lorasick_2021-03-09-16-48-01.501773
41	12	2	1	42	volatile	3	40	2	vs	red	blue	red	blue	left	right	0.7	0.30000000000000004	6	6	4.199999999999998	1.8000000000000005	1	0	0.7	0.30000000000000004	6	6	4.199999999999998	1.8000000000000005	valid	0.4998936420015525	53248	0	1	2	51200	0	51200	0	53248	1	0.7	51200	red	blue	1	0	ml	2.7.3	lorasick	sub-12_ses-02_task-ml_proj-lorasick_2021-03-09-16-48-01.501773
42	12	2	1	43	volatile	3	40	3	vs	red	blue	red	blue	left	right	0.7	0.30000000000000004	6	2	4.199999999999998	0.6000000000000001	1	0	0.7	0.30000000000000004	6	2	4.199999999999998	0.6000000000000001	valid	0.5498807900003158	53248	0	1	2	51200	0	51200	0	51200	0	0.7	51200	red	blue	1	0	ml	2.7.3	lorasick	sub-12_ses-02_task-ml_proj-lorasick_2021-03-09-16-48-01.501773
43	12	2	1	44	volatile	3	40	4	vs	red	blue	red	blue	left	right	0.7	0.30000000000000004	10	2	7.0	0.6000000000000001	1	0	0.7	0.30000000000000004	10	2	7.0	0.6000000000000001	valid	0.2999369219978689	51200	0	0	1	51200	1	51200	1	51200	1	0.7	51200	red	blue	1	10	ml	2.7.3	lorasick	sub-12_ses-02_task-ml_proj-lorasick_2021-03-09-16-48-01.501773
44	12	2	1	45	volatile	3	40	5	vs	blue	red	red	blue	right	left	0.7	0.30000000000000004	2	2	1.4	0.6000000000000001	0	1	0.30000000000000004	0.7	2	2	0.6000000000000001	1.4	invalid	0.4499054530024296	53248	0	1	1	53248	1	53248	1	53248	1	0.7	53248	red	blue	0	0	ml	2.7.3	lorasick	sub-12_ses-02_task-ml_proj-lorasick_2021-03-09-16-48-01.501773
45	12	2	1	46	volatile	3	40	6	vs	blue	red	red	blue	right	left	0.7	0.30000000000000004	2	2	1.4	0.6000000000000001	1	0	0.30000000000000004	0.7	2	2	0.6000000000000001	1.4	valid	0.6165067959955195	51200	0	0	2	53248	0	53248	0	53248	0	0.7	53248	red	blue	0	0	ml	2.7.3	lorasick	sub-12_ses-02_task-ml_proj-lorasick_2021-03-09-16-48-01.501773
46	12	2	1	47	volatile	3	40	7	vs	red	blue	red	blue	left	right	0.7	0.30000000000000004	2	6	1.4	1.8000000000000005	1	0	0.7	0.30000000000000004	2	6	1.4	1.8000000000000005	valid	0.3999122330060345	51200	0	0	1	53248	0	51200	1	53248	0	0.7	51200	red	blue	0	2	ml	2.7.3	lorasick	sub-12_ses-02_task-ml_proj-lorasick_2021-03-09-16-48-01.501773
47	12	2	1	48	volatile	3	40	8	vs	blue	red	red	blue	right	left	0.7	0.30000000000000004	2	4	1.4	1.2000000000000002	0	1	0.30000000000000004	0.7	4	2	1.2000000000000002	1.4	invalid	0.3999182150000706	53248	0	1	1	53248	1	53248	1	51200	0	0.7	53248	red	blue	0	0	ml	2.7.3	lorasick	sub-12_ses-02_task-ml_proj-lorasick_2021-03-09-16-48-01.501773
48	12	2	1	49	volatile	3	40	9	vs	red	blue	red	blue	left	right	0.7	0.30000000000000004	4	6	2.8	1.8000000000000005	0	1	0.7	0.30000000000000004	4	6	2.8	1.8000000000000005	invalid	0.3832461919955677	51200	0	0	1	51200	1	51200	1	53248	0	0.7	51200	red	blue	0	0	ml	2.7.3	lorasick	sub-12_ses-02_task-ml_proj-lorasick_2021-03-09-16-48-01.501773
49	12	2	1	50	volatile	3	40	10	vs	blue	red	red	blue	right	left	0.7	0.30000000000000004	2	2	1.4	0.6000000000000001	1	0	0.30000000000000004	0.7	2	2	0.6000000000000001	1.4	valid	0.39995497199561214	53248	0	1	1	53248	1	53248	1	53248	1	0.7	53248	red	blue	0	2	ml	2.7.3	lorasick	sub-12_ses-02_task-ml_proj-lorasick_2021-03-09-16-48-01.501773
50	12	2	2	51	volatile	3	40	11	vs	red	blue	red	blue	left	right	0.7	0.30000000000000004	4	6	2.8	1.8000000000000005	0	1	0.7	0.30000000000000004	4	6	2.8	1.8000000000000005	invalid	0.7164968280048924	53248	0	1	2	51200	0	51200	0	53248	1	0.7	51200	red	blue	0	6	ml	2.7.3	lorasick	sub-12_ses-02_task-ml_proj-lorasick_2021-03-09-16-48-01.501773
51	12	2	2	52	volatile	3	40	12	vs	red	blue	red	blue	left	right	0.7	0.30000000000000004	2	6	1.4	1.8000000000000005	1	0	0.7	0.30000000000000004	2	6	1.4	1.8000000000000005	valid	0.4665697109958274	53248	0	1	2	53248	1	51200	0	53248	1	0.7	51200	red	blue	0	0	ml	2.7.3	lorasick	sub-12_ses-02_task-ml_proj-lorasick_2021-03-09-16-48-01.501773
52	12	2	2	53	volatile	3	40	13	vs	blue	red	red	blue	right	left	0.7	0.30000000000000004	6	6	4.199999999999998	1.8000000000000005	1	0	0.30000000000000004	0.7	6	6	1.8000000000000005	4.199999999999998	valid	0.3665870979966712	51200	0	0	2	53248	0	53248	0	53248	0	0.7	53248	red	blue	0	0	ml	2.7.3	lorasick	sub-12_ses-02_task-ml_proj-lorasick_2021-03-09-16-48-01.501773
53	12	2	2	54	volatile	3	40	14	vs	blue	red	red	blue	right	left	0.7	0.30000000000000004	10	2	7.0	0.6000000000000001	1	0	0.30000000000000004	0.7	2	10	0.6000000000000001	7.0	valid	0.3665966050029965	53248	0	1	1	53248	1	53248	1	53248	1	0.7	53248	red	blue	1	10	ml	2.7.3	lorasick	sub-12_ses-02_task-ml_proj-lorasick_2021-03-09-16-48-01.501773
54	12	2	2	55	volatile	3	40	15	vs	blue	red	red	blue	right	left	0.7	0.30000000000000004	6	6	4.199999999999998	1.8000000000000005	1	0	0.30000000000000004	0.7	6	6	1.8000000000000005	4.199999999999998	valid	0.34993672400014475	53248	0	1	1	53248	1	53248	1	53248	1	0.7	53248	red	blue	0	6	ml	2.7.3	lorasick	sub-12_ses-02_task-ml_proj-lorasick_2021-03-09-16-48-01.501773
55	12	2	2	56	volatile	3	40	16	vs	red	blue	red	blue	left	right	0.7	0.30000000000000004	10	2	7.0	0.6000000000000001	1	0	0.7	0.30000000000000004	10	2	7.0	0.6000000000000001	valid	0.3666000239973073	51200	0	0	1	51200	1	51200	1	51200	1	0.7	51200	red	blue	1	10	ml	2.7.3	lorasick	sub-12_ses-02_task-ml_proj-lorasick_2021-03-09-16-48-01.501773
56	12	2	2	57	volatile	3	40	17	vs	red	blue	red	blue	left	right	0.7	0.30000000000000004	2	4	1.4	1.2000000000000002	1	0	0.7	0.30000000000000004	2	4	1.4	1.2000000000000002	valid	0.3999087859992869	51200	0	0	1	51200	1	51200	1	53248	0	0.7	51200	red	blue	0	2	ml	2.7.3	lorasick	sub-12_ses-02_task-ml_proj-lorasick_2021-03-09-16-48-01.501773
57	12	2	2	58	volatile	3	40	18	vs	blue	red	red	blue	right	left	0.7	0.30000000000000004	4	6	2.8	1.8000000000000005	1	0	0.30000000000000004	0.7	6	4	1.8000000000000005	2.8	valid	0.3665991039961227	53248	0	1	1	53248	1	53248	1	51200	0	0.7	53248	red	blue	0	4	ml	2.7.3	lorasick	sub-12_ses-02_task-ml_proj-lorasick_2021-03-09-16-48-01.501773
58	12	2	2	59	volatile	3	40	19	vs	blue	red	red	blue	right	left	0.7	0.30000000000000004	6	2	4.199999999999998	0.6000000000000001	1	0	0.30000000000000004	0.7	2	6	0.6000000000000001	4.199999999999998	valid	0.4165863520029234	53248	0	1	1	53248	1	53248	1	53248	1	0.7	53248	red	blue	1	6	ml	2.7.3	lorasick	sub-12_ses-02_task-ml_proj-lorasick_2021-03-09-16-48-01.501773
59	12	2	2	60	volatile	3	40	20	vs	red	blue	red	blue	left	right	0.7	0.30000000000000004	4	2	2.8	0.6000000000000001	1	0	0.7	0.30000000000000004	4	2	2.8	0.6000000000000001	valid	0.3665889900003094	51200	0	0	1	51200	1	51200	1	51200	1	0.7	51200	red	blue	1	4	ml	2.7.3	lorasick	sub-12_ses-02_task-ml_proj-lorasick_2021-03-09-16-48-01.501773
60	12	2	2	61	volatile	3	40	21	vs	blue	red	red	blue	right	left	0.7	0.30000000000000004	4	2	2.8	0.6000000000000001	1	0	0.30000000000000004	0.7	2	4	0.6000000000000001	2.8	valid	0.3665984760009451	53248	0	1	1	53248	1	53248	1	53248	1	0.7	53248	red	blue	1	4	ml	2.7.3	lorasick	sub-12_ses-02_task-ml_proj-lorasick_2021-03-09-16-48-01.501773
61	12	2	2	62	volatile	3	40	22	vs	blue	red	red	blue	right	left	0.7	0.30000000000000004	4	6	2.8	1.8000000000000005	1	0	0.30000000000000004	0.7	6	4	1.8000000000000005	2.8	valid	0.4332451619993663	53248	0	1	1	53248	1	53248	1	51200	0	0.7	53248	red	blue	0	4	ml	2.7.3	lorasick	sub-12_ses-02_task-ml_proj-lorasick_2021-03-09-16-48-01.501773
62	12	2	2	63	volatile	3	40	23	vs	red	blue	red	blue	left	right	0.7	0.30000000000000004	4	2	2.8	0.6000000000000001	1	0	0.7	0.30000000000000004	4	2	2.8	0.6000000000000001	valid	0.34993192899855785	51200	0	0	1	51200	1	51200	1	51200	1	0.7	51200	red	blue	1	4	ml	2.7.3	lorasick	sub-12_ses-02_task-ml_proj-lorasick_2021-03-09-16-48-01.501773
63	12	2	2	64	volatile	3	40	24	vs	red	blue	red	blue	left	right	0.7	0.30000000000000004	6	4	4.199999999999998	1.2000000000000002	1	0	0.7	0.30000000000000004	6	4	4.199999999999998	1.2000000000000002	valid	0.3499289309984306	51200	0	0	1	51200	1	51200	1	51200	1	0.7	51200	red	blue	1	6	ml	2.7.3	lorasick	sub-12_ses-02_task-ml_proj-lorasick_2021-03-09-16-48-01.501773
64	12	2	2	65	volatile	3	40	25	vs	blue	red	red	blue	right	left	0.7	0.30000000000000004	2	2	1.4	0.6000000000000001	1	0	0.30000000000000004	0.7	2	2	0.6000000000000001	1.4	valid	0.4165839130000677	53248	0	1	1	53248	1	53248	1	53248	1	0.7	53248	red	blue	0	2	ml	2.7.3	lorasick	sub-12_ses-02_task-ml_proj-lorasick_2021-03-09-16-48-01.501773
65	12	2	2	66	volatile	3	40	26	vs	red	blue	red	blue	left	right	0.7	0.30000000000000004	2	10	1.4	3.0000000000000004	0	1	0.7	0.30000000000000004	2	10	1.4	3.0000000000000004	invalid	0.3665883219946409	51200	0	0	1	53248	0	51200	1	53248	0	0.7	51200	red	blue	0	0	ml	2.7.3	lorasick	sub-12_ses-02_task-ml_proj-lorasick_2021-03-09-16-48-01.501773
66	12	2	2	67	volatile	3	40	27	vs	red	blue	red	blue	left	right	0.7	0.30000000000000004	2	4	1.4	1.2000000000000002	0	1	0.7	0.30000000000000004	2	4	1.4	1.2000000000000002	invalid	0.5665384820022155	53248	0	1	2	51200	0	51200	0	53248	1	0.7	51200	red	blue	0	4	ml	2.7.3	lorasick	sub-12_ses-02_task-ml_proj-lorasick_2021-03-09-16-48-01.501773
67	12	2	2	68	volatile	3	40	28	vs	red	blue	red	blue	left	right	0.7	0.30000000000000004	6	2	4.199999999999998	0.6000000000000001	1	0	0.7	0.30000000000000004	6	2	4.199999999999998	0.6000000000000001	valid	0.6165126640044036	51200	0	0	1	51200	1	51200	1	51200	1	0.7	51200	red	blue	1	6	ml	2.7.3	lorasick	sub-12_ses-02_task-ml_proj-lorasick_2021-03-09-16-48-01.501773
68	12	2	2	69	volatile	3	40	29	vs	red	blue	red	blue	left	right	0.7	0.30000000000000004	6	2	4.199999999999998	0.6000000000000001	1	0	0.7	0.30000000000000004	6	2	4.199999999999998	0.6000000000000001	valid	0.5498669549997429	51200	0	0	1	51200	1	51200	1	51200	1	0.7	51200	red	blue	1	6	ml	2.7.3	lorasick	sub-12_ses-02_task-ml_proj-lorasick_2021-03-09-16-48-01.501773
69	12	2	2	70	volatile	3	40	30	vs	blue	red	red	blue	right	left	0.7	0.30000000000000004	6	6	4.199999999999998	1.8000000000000005	1	0	0.30000000000000004	0.7	6	6	1.8000000000000005	4.199999999999998	valid	1.0830488680003327	51200	0	0	2	53248	0	53248	0	53248	0	0.7	53248	red	blue	0	0	ml	2.7.3	lorasick	sub-12_ses-02_task-ml_proj-lorasick_2021-03-09-16-48-01.501773
70	12	2	2	71	volatile	3	40	31	vs	blue	red	red	blue	right	left	0.7	0.30000000000000004	4	2	2.8	0.6000000000000001	0	1	0.30000000000000004	0.7	2	4	0.6000000000000001	2.8	invalid	0.4332433759991545	53248	0	1	1	53248	1	53248	1	53248	1	0.7	53248	red	blue	1	0	ml	2.7.3	lorasick	sub-12_ses-02_task-ml_proj-lorasick_2021-03-09-16-48-01.501773
71	12	2	2	72	volatile	3	40	32	vs	blue	red	red	blue	right	left	0.7	0.30000000000000004	2	10	1.4	3.0000000000000004	1	0	0.30000000000000004	0.7	10	2	3.0000000000000004	1.4	valid	0.4665669640016858	51200	0	0	2	51200	1	53248	0	51200	1	0.7	53248	red	blue	0	0	ml	2.7.3	lorasick	sub-12_ses-02_task-ml_proj-lorasick_2021-03-09-16-48-01.501773
72	12	2	2	73	volatile	3	40	33	vs	blue	red	red	blue	right	left	0.7	0.30000000000000004	10	2	7.0	0.6000000000000001	1	0	0.30000000000000004	0.7	2	10	0.6000000000000001	7.0	valid	0.5832023300026776	53248	0	1	1	53248	1	53248	1	53248	1	0.7	53248	red	blue	1	10	ml	2.7.3	lorasick	sub-12_ses-02_task-ml_proj-lorasick_2021-03-09-16-48-01.501773
73	12	2	2	74	volatile	3	40	34	vs	red	blue	red	blue	left	right	0.7	0.30000000000000004	6	4	4.199999999999998	1.2000000000000002	1	0	0.7	0.30000000000000004	6	4	4.199999999999998	1.2000000000000002	valid	0.5665316220038221	51200	0	0	1	51200	1	51200	1	51200	1	0.7	51200	red	blue	1	6	ml	2.7.3	lorasick	sub-12_ses-02_task-ml_proj-lorasick_2021-03-09-16-48-01.501773
74	12	2	2	75	volatile	3	40	35	vs	red	blue	red	blue	left	right	0.7	0.30000000000000004	6	2	4.199999999999998	0.6000000000000001	1	0	0.7	0.30000000000000004	6	2	4.199999999999998	0.6000000000000001	valid	0.33326600299915304	51200	0	0	1	51200	1	51200	1	51200	1	0.7	51200	red	blue	1	6	ml	2.7.3	lorasick	sub-12_ses-02_task-ml_proj-lorasick_2021-03-09-16-48-01.501773
75	12	2	2	76	volatile	3	40	36	vs	blue	red	red	blue	right	left	0.7	0.30000000000000004	6	4	4.199999999999998	1.2000000000000002	0	1	0.30000000000000004	0.7	4	6	1.2000000000000002	4.199999999999998	invalid	0.4165840860005119	53248	0	1	1	53248	1	53248	1	53248	1	0.7	53248	red	blue	1	0	ml	2.7.3	lorasick	sub-12_ses-02_task-ml_proj-lorasick_2021-03-09-16-48-01.501773
76	12	2	2	77	volatile	3	40	37	vs	red	blue	red	blue	left	right	0.7	0.30000000000000004	4	2	2.8	0.6000000000000001	0	1	0.7	0.30000000000000004	4	2	2.8	0.6000000000000001	invalid	0.4832188729997142	51200	0	0	1	51200	1	51200	1	51200	1	0.7	51200	red	blue	1	0	ml	2.7.3	lorasick	sub-12_ses-02_task-ml_proj-lorasick_2021-03-09-16-48-01.501773
77	12	2	2	78	volatile	3	40	38	vs	blue	red	red	blue	right	left	0.7	0.30000000000000004	6	4	4.199999999999998	1.2000000000000002	0	1	0.30000000000000004	0.7	4	6	1.2000000000000002	4.199999999999998	invalid	0.7498176360022626	53248	0	1	1	53248	1	53248	1	53248	1	0.7	53248	red	blue	1	0	ml	2.7.3	lorasick	sub-12_ses-02_task-ml_proj-lorasick_2021-03-09-16-48-01.501773
78	12	2	2	79	volatile	3	40	39	vs	blue	red	red	blue	right	left	0.7	0.30000000000000004	6	2	4.199999999999998	0.6000000000000001	1	0	0.30000000000000004	0.7	2	6	0.6000000000000001	4.199999999999998	valid	0.41657239999767626	51200	0	0	2	53248	0	53248	0	53248	0	0.7	53248	red	blue	1	0	ml	2.7.3	lorasick	sub-12_ses-02_task-ml_proj-lorasick_2021-03-09-16-48-01.501773
79	12	2	2	80	volatile	3	40	40	vs	blue	red	red	blue	right	left	0.7	0.30000000000000004	10	2	7.0	0.6000000000000001	0	1	0.30000000000000004	0.7	2	10	0.6000000000000001	7.0	invalid	0.3499375510000391	53248	0	1	1	53248	1	53248	1	53248	1	0.7	53248	red	blue	1	0	ml	2.7.3	lorasick	sub-12_ses-02_task-ml_proj-lorasick_2021-03-09-16-48-01.501773
80	12	2	2	81	volatile	4	20	1	vs	red	blue	red	blue	left	right	0.30000000000000004	0.7	2	6	0.6000000000000001	4.199999999999998	1	0	0.30000000000000004	0.7	2	6	0.6000000000000001	4.199999999999998	invalid	0.4999016869987827	53248	0	1	2	53248	1	53248	1	53248	1	0.7	53248	blue	red	1	0	ml	2.7.3	lorasick	sub-12_ses-02_task-ml_proj-lorasick_2021-03-09-16-48-01.501773
81	12	2	2	82	volatile	4	20	2	vs	blue	red	red	blue	right	left	0.30000000000000004	0.7	6	6	1.8000000000000005	4.199999999999998	1	0	0.7	0.30000000000000004	6	6	4.199999999999998	1.8000000000000005	invalid	0.9830702459948952	51200	0	0	2	51200	1	51200	1	53248	0	0.7	51200	blue	red	1	0	ml	2.7.3	lorasick	sub-12_ses-02_task-ml_proj-lorasick_2021-03-09-16-48-01.501773
82	12	2	2	83	volatile	4	20	3	vs	red	blue	red	blue	left	right	0.30000000000000004	0.7	4	6	1.2000000000000002	4.199999999999998	0	1	0.30000000000000004	0.7	4	6	1.2000000000000002	4.199999999999998	valid	0.5332244000019273	53248	0	1	2	53248	1	53248	1	53248	1	0.7	53248	blue	red	1	6	ml	2.7.3	lorasick	sub-12_ses-02_task-ml_proj-lorasick_2021-03-09-16-48-01.501773
83	12	2	2	84	volatile	4	20	4	vs	blue	red	red	blue	right	left	0.30000000000000004	0.7	4	6	1.2000000000000002	4.199999999999998	1	0	0.7	0.30000000000000004	6	4	4.199999999999998	1.2000000000000002	invalid	0.5498670090019004	51200	0	0	2	51200	1	51200	1	51200	1	0.7	51200	blue	red	1	0	ml	2.7.3	lorasick	sub-12_ses-02_task-ml_proj-lorasick_2021-03-09-16-48-01.501773
84	12	2	2	85	volatile	4	20	5	vs	blue	red	red	blue	right	left	0.30000000000000004	0.7	2	2	0.6000000000000001	1.4	0	1	0.7	0.30000000000000004	2	2	1.4	0.6000000000000001	valid	0.449908045004122	53248	0	1	1	51200	0	51200	0	53248	1	0.7	51200	blue	red	1	0	ml	2.7.3	lorasick	sub-12_ses-02_task-ml_proj-lorasick_2021-03-09-16-48-01.501773
85	12	2	2	86	volatile	4	20	6	vs	blue	red	red	blue	right	left	0.30000000000000004	0.7	2	4	0.6000000000000001	2.8	0	1	0.7	0.30000000000000004	4	2	2.8	0.6000000000000001	valid	0.4332483860052889	53248	0	1	1	51200	0	51200	0	51200	0	0.7	51200	blue	red	1	0	ml	2.7.3	lorasick	sub-12_ses-02_task-ml_proj-lorasick_2021-03-09-16-48-01.501773
86	12	2	2	87	volatile	4	20	7	vs	blue	red	red	blue	right	left	0.30000000000000004	0.7	4	2	1.2000000000000002	1.4	0	1	0.7	0.30000000000000004	2	4	1.4	1.2000000000000002	valid	0.3999144999979761	51200	0	0	2	51200	1	51200	1	53248	0	0.7	51200	blue	red	0	2	ml	2.7.3	lorasick	sub-12_ses-02_task-ml_proj-lorasick_2021-03-09-16-48-01.501773
87	12	2	2	88	volatile	4	20	8	vs	blue	red	red	blue	right	left	0.30000000000000004	0.7	2	6	0.6000000000000001	4.199999999999998	1	0	0.7	0.30000000000000004	6	2	4.199999999999998	0.6000000000000001	invalid	0.34992351200344274	51200	0	0	2	51200	1	51200	1	51200	1	0.7	51200	blue	red	1	0	ml	2.7.3	lorasick	sub-12_ses-02_task-ml_proj-lorasick_2021-03-09-16-48-01.501773
88	12	2	2	89	volatile	4	20	9	vs	blue	red	red	blue	right	left	0.30000000000000004	0.7	4	6	1.2000000000000002	4.199999999999998	0	1	0.7	0.30000000000000004	6	4	4.199999999999998	1.2000000000000002	valid	0.43323670500103617	51200	0	0	2	51200	1	51200	1	51200	1	0.7	51200	blue	red	1	6	ml	2.7.3	lorasick	sub-12_ses-02_task-ml_proj-lorasick_2021-03-09-16-48-01.501773
89	12	2	2	90	volatile	4	20	10	vs	blue	red	red	blue	right	left	0.30000000000000004	0.7	6	6	1.8000000000000005	4.199999999999998	0	1	0.7	0.30000000000000004	6	6	4.199999999999998	1.8000000000000005	valid	0.4832134829994175	51200	0	0	2	51200	1	51200	1	53248	0	0.7	51200	blue	red	1	6	ml	2.7.3	lorasick	sub-12_ses-02_task-ml_proj-lorasick_2021-03-09-16-48-01.501773
90	12	2	2	91	volatile	4	20	11	vs	red	blue	red	blue	left	right	0.30000000000000004	0.7	10	2	3.0000000000000004	1.4	1	0	0.30000000000000004	0.7	10	2	3.0000000000000004	1.4	invalid	0.9330926510010612	51200	0	0	1	51200	1	53248	0	51200	1	0.7	53248	blue	red	0	10	ml	2.7.3	lorasick	sub-12_ses-02_task-ml_proj-lorasick_2021-03-09-16-48-01.501773
91	12	2	2	92	volatile	4	20	12	vs	red	blue	red	blue	left	right	0.30000000000000004	0.7	2	6	0.6000000000000001	4.199999999999998	0	1	0.30000000000000004	0.7	2	6	0.6000000000000001	4.199999999999998	valid	0.6498471429949859	53248	0	1	2	53248	1	53248	1	53248	1	0.7	53248	blue	red	1	6	ml	2.7.3	lorasick	sub-12_ses-02_task-ml_proj-lorasick_2021-03-09-16-48-01.501773
92	12	2	2	93	volatile	4	20	13	vs	red	blue	red	blue	left	right	0.30000000000000004	0.7	2	4	0.6000000000000001	2.8	1	0	0.30000000000000004	0.7	2	4	0.6000000000000001	2.8	invalid	0.6165252869977849	53248	0	1	2	53248	1	53248	1	53248	1	0.7	53248	blue	red	1	0	ml	2.7.3	lorasick	sub-12_ses-02_task-ml_proj-lorasick_2021-03-09-16-48-01.501773
93	12	2	2	94	volatile	4	20	14	vs	blue	red	red	blue	right	left	0.30000000000000004	0.7	6	4	1.8000000000000005	2.8	0	1	0.7	0.30000000000000004	4	6	2.8	1.8000000000000005	valid	0.4665641640021931	51200	0	0	2	51200	1	51200	1	53248	0	0.7	51200	blue	red	0	4	ml	2.7.3	lorasick	sub-12_ses-02_task-ml_proj-lorasick_2021-03-09-16-48-01.501773
94	12	2	2	95	volatile	4	20	15	vs	red	blue	red	blue	left	right	0.30000000000000004	0.7	6	2	1.8000000000000005	1.4	0	1	0.30000000000000004	0.7	6	2	1.8000000000000005	1.4	valid	0.4332289970043348	51200	0	0	1	51200	1	53248	0	51200	1	0.7	53248	blue	red	0	0	ml	2.7.3	lorasick	sub-12_ses-02_task-ml_proj-lorasick_2021-03-09-16-48-01.501773
95	12	2	2	96	volatile	4	20	16	vs	blue	red	red	blue	right	left	0.30000000000000004	0.7	2	10	0.6000000000000001	7.0	0	1	0.7	0.30000000000000004	10	2	7.0	0.6000000000000001	valid	0.3666006040002685	53248	0	1	1	51200	0	51200	0	51200	0	0.7	51200	blue	red	1	0	ml	2.7.3	lorasick	sub-12_ses-02_task-ml_proj-lorasick_2021-03-09-16-48-01.501773
96	12	2	2	97	volatile	4	20	17	vs	red	blue	red	blue	left	right	0.30000000000000004	0.7	2	10	0.6000000000000001	7.0	0	1	0.30000000000000004	0.7	2	10	0.6000000000000001	7.0	valid	0.4832300849957392	53248	0	1	2	53248	1	53248	1	53248	1	0.7	53248	blue	red	1	10	ml	2.7.3	lorasick	sub-12_ses-02_task-ml_proj-lorasick_2021-03-09-16-48-01.501773
97	12	2	2	98	volatile	4	20	18	vs	red	blue	red	blue	left	right	0.30000000000000004	0.7	4	2	1.2000000000000002	1.4	0	1	0.30000000000000004	0.7	4	2	1.2000000000000002	1.4	valid	0.4332321390029392	51200	0	0	1	53248	0	53248	0	51200	1	0.7	53248	blue	red	0	0	ml	2.7.3	lorasick	sub-12_ses-02_task-ml_proj-lorasick_2021-03-09-16-48-01.501773
98	12	2	2	99	volatile	4	20	19	vs	red	blue	red	blue	left	right	0.30000000000000004	0.7	2	10	0.6000000000000001	7.0	0	1	0.30000000000000004	0.7	2	10	0.6000000000000001	7.0	valid	0.4832249089959078	53248	0	1	2	53248	1	53248	1	53248	1	0.7	53248	blue	red	1	10	ml	2.7.3	lorasick	sub-12_ses-02_task-ml_proj-lorasick_2021-03-09-16-48-01.501773
99	12	2	2	100	volatile	4	20	20	vs	red	blue	red	blue	left	right	0.30000000000000004	0.7	2	2	0.6000000000000001	1.4	0	1	0.30000000000000004	0.7	2	2	0.6000000000000001	1.4	valid	0.4665627180002048	51200	0	0	1	53248	0	53248	0	53248	0	0.7	53248	blue	red	0	0	ml	2.7.3	lorasick	sub-12_ses-02_task-ml_proj-lorasick_2021-03-09-16-48-01.501773
100	12	2	3	101	volatile	5	40	1	vs	red	blue	red	blue	left	right	0.7	0.30000000000000004	6	2	4.199999999999998	0.6000000000000001	1	0	0.7	0.30000000000000004	6	2	4.199999999999998	0.6000000000000001	valid	0.5831924629965215	51200	0	0	1	51200	1	51200	1	51200	1	0.7	51200	red	blue	1	6	ml	2.7.3	lorasick	sub-12_ses-02_task-ml_proj-lorasick_2021-03-09-16-48-01.501773
101	12	2	3	102	volatile	5	40	2	vs	red	blue	red	blue	left	right	0.7	0.30000000000000004	6	2	4.199999999999998	0.6000000000000001	1	0	0.7	0.30000000000000004	6	2	4.199999999999998	0.6000000000000001	valid	0.44990393699845294	51200	0	0	1	51200	1	51200	1	51200	1	0.7	51200	red	blue	1	6	ml	2.7.3	lorasick	sub-12_ses-02_task-ml_proj-lorasick_2021-03-09-16-48-01.501773
102	12	2	3	103	volatile	5	40	3	vs	blue	red	red	blue	right	left	0.7	0.30000000000000004	2	6	1.4	1.8000000000000005	1	0	0.30000000000000004	0.7	6	2	1.8000000000000005	1.4	valid	0.533204098996066	51200	0	0	2	51200	1	53248	0	51200	1	0.7	53248	red	blue	0	0	ml	2.7.3	lorasick	sub-12_ses-02_task-ml_proj-lorasick_2021-03-09-16-48-01.501773
103	12	2	3	104	volatile	5	40	4	vs	blue	red	red	blue	right	left	0.7	0.30000000000000004	2	2	1.4	0.6000000000000001	1	0	0.30000000000000004	0.7	2	2	0.6000000000000001	1.4	valid	0.4499081300018588	53248	0	1	1	53248	1	53248	1	53248	1	0.7	53248	red	blue	0	2	ml	2.7.3	lorasick	sub-12_ses-02_task-ml_proj-lorasick_2021-03-09-16-48-01.501773
104	12	2	3	105	volatile	5	40	5	vs	red	blue	red	blue	left	right	0.7	0.30000000000000004	6	4	4.199999999999998	1.2000000000000002	0	1	0.7	0.30000000000000004	6	4	4.199999999999998	1.2000000000000002	invalid	0.7164845759980379	51200	0	0	1	51200	1	51200	1	51200	1	0.7	51200	red	blue	1	0	ml	2.7.3	lorasick	sub-12_ses-02_task-ml_proj-lorasick_2021-03-09-16-48-01.501773
105	12	2	3	106	volatile	5	40	6	vs	blue	red	red	blue	right	left	0.7	0.30000000000000004	6	4	4.199999999999998	1.2000000000000002	0	1	0.30000000000000004	0.7	4	6	1.2000000000000002	4.199999999999998	invalid	0.8164682890055701	53248	0	1	1	53248	1	53248	1	53248	1	0.7	53248	red	blue	1	0	ml	2.7.3	lorasick	sub-12_ses-02_task-ml_proj-lorasick_2021-03-09-16-48-01.501773
106	12	2	3	107	volatile	5	40	7	vs	red	blue	red	blue	left	right	0.7	0.30000000000000004	2	4	1.4	1.2000000000000002	1	0	0.7	0.30000000000000004	2	4	1.4	1.2000000000000002	valid	0.7498205730007612	53248	0	1	2	51200	0	51200	0	53248	1	0.7	51200	red	blue	0	0	ml	2.7.3	lorasick	sub-12_ses-02_task-ml_proj-lorasick_2021-03-09-16-48-01.501773
107	12	2	3	108	volatile	5	40	8	vs	red	blue	red	blue	left	right	0.7	0.30000000000000004	4	6	2.8	1.8000000000000005	1	0	0.7	0.30000000000000004	4	6	2.8	1.8000000000000005	valid	0.5998635349969845	53248	0	1	2	51200	0	51200	0	53248	1	0.7	51200	red	blue	0	0	ml	2.7.3	lorasick	sub-12_ses-02_task-ml_proj-lorasick_2021-03-09-16-48-01.501773
108	12	2	3	109	volatile	5	40	9	vs	red	blue	red	blue	left	right	0.7	0.30000000000000004	6	6	4.199999999999998	1.8000000000000005	1	0	0.7	0.30000000000000004	6	6	4.199999999999998	1.8000000000000005	valid	0.5331822220032336	51200	0	0	1	51200	1	51200	1	53248	0	0.7	51200	red	blue	1	6	ml	2.7.3	lorasick	sub-12_ses-02_task-ml_proj-lorasick_2021-03-09-16-48-01.501773
109	12	2	3	110	volatile	5	40	10	vs	blue	red	red	blue	right	left	0.7	0.30000000000000004	2	10	1.4	3.0000000000000004	0	1	0.30000000000000004	0.7	10	2	3.0000000000000004	1.4	invalid	0.38324895500409184	51200	0	0	2	51200	1	53248	0	51200	1	0.7	53248	red	blue	0	10	ml	2.7.3	lorasick	sub-12_ses-02_task-ml_proj-lorasick_2021-03-09-16-48-01.501773
110	12	2	3	111	volatile	5	40	11	vs	red	blue	red	blue	left	right	0.7	0.30000000000000004	6	2	4.199999999999998	0.6000000000000001	1	0	0.7	0.30000000000000004	6	2	4.199999999999998	0.6000000000000001	valid	0.5831894189977902	51200	0	0	1	51200	1	51200	1	51200	1	0.7	51200	red	blue	1	6	ml	2.7.3	lorasick	sub-12_ses-02_task-ml_proj-lorasick_2021-03-09-16-48-01.501773
111	12	2	3	112	volatile	5	40	12	vs	red	blue	red	blue	left	right	0.7	0.30000000000000004	6	4	4.199999999999998	1.2000000000000002	0	1	0.7	0.30000000000000004	6	4	4.199999999999998	1.2000000000000002	invalid	0.499881882002228	51200	0	0	1	51200	1	51200	1	51200	1	0.7	51200	red	blue	1	0	ml	2.7.3	lorasick	sub-12_ses-02_task-ml_proj-lorasick_2021-03-09-16-48-01.501773
112	12	2	3	113	volatile	5	40	13	vs	red	blue	red	blue	left	right	0.7	0.30000000000000004	2	6	1.4	1.8000000000000005	1	0	0.7	0.30000000000000004	2	6	1.4	1.8000000000000005	valid	0.3999215740041109	53248	0	1	2	53248	1	51200	0	53248	1	0.7	51200	red	blue	0	0	ml	2.7.3	lorasick	sub-12_ses-02_task-ml_proj-lorasick_2021-03-09-16-48-01.501773
113	12	2	3	114	volatile	5	40	14	vs	blue	red	red	blue	right	left	0.7	0.30000000000000004	10	2	7.0	0.6000000000000001	1	0	0.30000000000000004	0.7	2	10	0.6000000000000001	7.0	valid	0.5498782819995539	53248	0	1	1	53248	1	53248	1	53248	1	0.7	53248	red	blue	1	10	ml	2.7.3	lorasick	sub-12_ses-02_task-ml_proj-lorasick_2021-03-09-16-48-01.501773
114	12	2	3	115	volatile	5	40	15	vs	blue	red	red	blue	right	left	0.7	0.30000000000000004	4	2	2.8	0.6000000000000001	1	0	0.30000000000000004	0.7	2	4	0.6000000000000001	2.8	valid	0.4499081079993629	53248	0	1	1	53248	1	53248	1	53248	1	0.7	53248	red	blue	1	4	ml	2.7.3	lorasick	sub-12_ses-02_task-ml_proj-lorasick_2021-03-09-16-48-01.501773
115	12	2	3	116	volatile	5	40	16	vs	red	blue	red	blue	left	right	0.7	0.30000000000000004	6	4	4.199999999999998	1.2000000000000002	1	0	0.7	0.30000000000000004	6	4	4.199999999999998	1.2000000000000002	valid	0.3832510509964777	51200	0	0	1	51200	1	51200	1	51200	1	0.7	51200	red	blue	1	6	ml	2.7.3	lorasick	sub-12_ses-02_task-ml_proj-lorasick_2021-03-09-16-48-01.501773
116	12	2	3	117	volatile	5	40	17	vs	blue	red	red	blue	right	left	0.7	0.30000000000000004	2	2	1.4	0.6000000000000001	1	0	0.30000000000000004	0.7	2	2	0.6000000000000001	1.4	valid	0.5832037889995263	53248	0	1	1	53248	1	53248	1	53248	1	0.7	53248	red	blue	0	2	ml	2.7.3	lorasick	sub-12_ses-02_task-ml_proj-lorasick_2021-03-09-16-48-01.501773
117	12	2	3	118	volatile	5	40	18	vs	blue	red	red	blue	right	left	0.7	0.30000000000000004	6	2	4.199999999999998	0.6000000000000001	1	0	0.30000000000000004	0.7	2	6	0.6000000000000001	4.199999999999998	valid	0.4665675450014533	53248	0	1	1	53248	1	53248	1	53248	1	0.7	53248	red	blue	1	6	ml	2.7.3	lorasick	sub-12_ses-02_task-ml_proj-lorasick_2021-03-09-16-48-01.501773
118	12	2	3	119	volatile	5	40	19	vs	blue	red	red	blue	right	left	0.7	0.30000000000000004	4	6	2.8	1.8000000000000005	1	0	0.30000000000000004	0.7	6	4	1.8000000000000005	2.8	valid	0.38324753799679456	51200	0	0	2	53248	0	53248	0	51200	1	0.7	53248	red	blue	0	0	ml	2.7.3	lorasick	sub-12_ses-02_task-ml_proj-lorasick_2021-03-09-16-48-01.501773
119	12	2	3	120	volatile	5	40	20	vs	blue	red	red	blue	right	left	0.7	0.30000000000000004	6	6	4.199999999999998	1.8000000000000005	1	0	0.30000000000000004	0.7	6	6	1.8000000000000005	4.199999999999998	valid	0.4332459560027928	53248	0	1	1	53248	1	53248	1	53248	1	0.7	53248	red	blue	0	6	ml	2.7.3	lorasick	sub-12_ses-02_task-ml_proj-lorasick_2021-03-09-16-48-01.501773
120	12	2	3	121	volatile	5	40	21	vs	red	blue	red	blue	left	right	0.7	0.30000000000000004	10	2	7.0	0.6000000000000001	1	0	0.7	0.30000000000000004	10	2	7.0	0.6000000000000001	valid	0.3832494849993964	51200	0	0	1	51200	1	51200	1	51200	1	0.7	51200	red	blue	1	10	ml	2.7.3	lorasick	sub-12_ses-02_task-ml_proj-lorasick_2021-03-09-16-48-01.501773
121	12	2	3	122	volatile	5	40	22	vs	blue	red	red	blue	right	left	0.7	0.30000000000000004	6	6	4.199999999999998	1.8000000000000005	1	0	0.30000000000000004	0.7	6	6	1.8000000000000005	4.199999999999998	valid	0.433243922998372	53248	0	1	1	53248	1	53248	1	53248	1	0.7	53248	red	blue	0	6	ml	2.7.3	lorasick	sub-12_ses-02_task-ml_proj-lorasick_2021-03-09-16-48-01.501773
122	12	2	3	123	volatile	5	40	23	vs	blue	red	red	blue	right	left	0.7	0.30000000000000004	10	2	7.0	0.6000000000000001	1	0	0.30000000000000004	0.7	2	10	0.6000000000000001	7.0	valid	0.4665657080040546	53248	0	1	1	53248	1	53248	1	53248	1	0.7	53248	red	blue	1	10	ml	2.7.3	lorasick	sub-12_ses-02_task-ml_proj-lorasick_2021-03-09-16-48-01.501773
123	12	2	3	124	volatile	5	40	24	vs	blue	red	red	blue	right	left	0.7	0.30000000000000004	2	2	1.4	0.6000000000000001	1	0	0.30000000000000004	0.7	2	2	0.6000000000000001	1.4	valid	0.499894378001045	53248	0	1	1	53248	1	53248	1	53248	1	0.7	53248	red	blue	0	2	ml	2.7.3	lorasick	sub-12_ses-02_task-ml_proj-lorasick_2021-03-09-16-48-01.501773
124	12	2	3	125	volatile	5	40	25	vs	red	blue	red	blue	left	right	0.7	0.30000000000000004	2	10	1.4	3.0000000000000004	1	0	0.7	0.30000000000000004	2	10	1.4	3.0000000000000004	valid	0.4998934280010872	53248	0	1	2	53248	1	51200	0	53248	1	0.7	51200	red	blue	0	0	ml	2.7.3	lorasick	sub-12_ses-02_task-ml_proj-lorasick_2021-03-09-16-48-01.501773
125	12	2	3	126	volatile	5	40	26	vs	red	blue	red	blue	left	right	0.7	0.30000000000000004	2	4	1.4	1.2000000000000002	0	1	0.7	0.30000000000000004	2	4	1.4	1.2000000000000002	invalid	0.4165732389956247	51200	0	0	1	51200	1	51200	1	53248	0	0.7	51200	red	blue	0	0	ml	2.7.3	lorasick	sub-12_ses-02_task-ml_proj-lorasick_2021-03-09-16-48-01.501773
126	12	2	3	127	volatile	5	40	27	vs	red	blue	red	blue	left	right	0.7	0.30000000000000004	2	10	1.4	3.0000000000000004	1	0	0.7	0.30000000000000004	2	10	1.4	3.0000000000000004	valid	0.5332061299995985	51200	0	0	1	53248	0	51200	1	53248	0	0.7	51200	red	blue	0	2	ml	2.7.3	lorasick	sub-12_ses-02_task-ml_proj-lorasick_2021-03-09-16-48-01.501773
127	12	2	3	128	volatile	5	40	28	vs	blue	red	red	blue	right	left	0.7	0.30000000000000004	6	6	4.199999999999998	1.8000000000000005	0	1	0.30000000000000004	0.7	6	6	1.8000000000000005	4.199999999999998	invalid	0.4165803299983963	53248	0	1	1	53248	1	53248	1	53248	1	0.7	53248	red	blue	0	0	ml	2.7.3	lorasick	sub-12_ses-02_task-ml_proj-lorasick_2021-03-09-16-48-01.501773
128	12	2	3	129	volatile	5	40	29	vs	red	blue	red	blue	left	right	0.7	0.30000000000000004	2	2	1.4	0.6000000000000001	1	0	0.7	0.30000000000000004	2	2	1.4	0.6000000000000001	valid	0.4998924659957993	53248	0	1	2	51200	0	51200	0	53248	1	0.7	51200	red	blue	1	0	ml	2.7.3	lorasick	sub-12_ses-02_task-ml_proj-lorasick_2021-03-09-16-48-01.501773
129	12	2	3	130	volatile	5	40	30	vs	red	blue	red	blue	left	right	0.7	0.30000000000000004	4	6	2.8	1.8000000000000005	1	0	0.7	0.30000000000000004	4	6	2.8	1.8000000000000005	valid	0.399911038002756	51200	0	0	1	51200	1	51200	1	53248	0	0.7	51200	red	blue	0	4	ml	2.7.3	lorasick	sub-12_ses-02_task-ml_proj-lorasick_2021-03-09-16-48-01.501773
130	12	2	3	131	volatile	5	40	31	vs	blue	red	red	blue	right	left	0.7	0.30000000000000004	6	2	4.199999999999998	0.6000000000000001	0	1	0.30000000000000004	0.7	2	6	0.6000000000000001	4.199999999999998	invalid	0.4499168149995967	53248	0	1	1	53248	1	53248	1	53248	1	0.7	53248	red	blue	1	0	ml	2.7.3	lorasick	sub-12_ses-02_task-ml_proj-lorasick_2021-03-09-16-48-01.501773
131	12	2	3	132	volatile	5	40	32	vs	red	blue	red	blue	left	right	0.7	0.30000000000000004	4	2	2.8	0.6000000000000001	1	0	0.7	0.30000000000000004	4	2	2.8	0.6000000000000001	valid	0.36658787399937853	51200	0	0	1	51200	1	51200	1	51200	1	0.7	51200	red	blue	1	4	ml	2.7.3	lorasick	sub-12_ses-02_task-ml_proj-lorasick_2021-03-09-16-48-01.501773
132	12	2	3	133	volatile	5	40	33	vs	blue	red	red	blue	right	left	0.7	0.30000000000000004	2	4	1.4	1.2000000000000002	1	0	0.30000000000000004	0.7	4	2	1.2000000000000002	1.4	valid	0.39992053899914026	53248	0	1	1	53248	1	53248	1	51200	0	0.7	53248	red	blue	0	2	ml	2.7.3	lorasick	sub-12_ses-02_task-ml_proj-lorasick_2021-03-09-16-48-01.501773
133	12	2	3	134	volatile	5	40	34	vs	blue	red	red	blue	right	left	0.7	0.30000000000000004	4	2	2.8	0.6000000000000001	1	0	0.30000000000000004	0.7	2	4	0.6000000000000001	2.8	valid	0.3832600949972402	53248	0	1	1	53248	1	53248	1	53248	1	0.7	53248	red	blue	1	4	ml	2.7.3	lorasick	sub-12_ses-02_task-ml_proj-lorasick_2021-03-09-16-48-01.501773
134	12	2	3	135	volatile	5	40	35	vs	red	blue	red	blue	left	right	0.7	0.30000000000000004	2	6	1.4	1.8000000000000005	0	1	0.7	0.30000000000000004	2	6	1.4	1.8000000000000005	invalid	0.4332384070003173	51200	0	0	1	53248	0	51200	1	53248	0	0.7	51200	red	blue	0	0	ml	2.7.3	lorasick	sub-12_ses-02_task-ml_proj-lorasick_2021-03-09-16-48-01.501773
135	12	2	3	136	volatile	5	40	36	vs	blue	red	red	blue	right	left	0.7	0.30000000000000004	2	10	1.4	3.0000000000000004	0	1	0.30000000000000004	0.7	10	2	3.0000000000000004	1.4	invalid	0.3499371299985796	53248	0	1	1	51200	0	53248	1	51200	0	0.7	53248	red	blue	0	0	ml	2.7.3	lorasick	sub-12_ses-02_task-ml_proj-lorasick_2021-03-09-16-48-01.501773
136	12	2	3	137	volatile	5	40	37	vs	red	blue	red	blue	left	right	0.7	0.30000000000000004	4	6	2.8	1.8000000000000005	0	1	0.7	0.30000000000000004	4	6	2.8	1.8000000000000005	invalid	0.483231872000033	53248	0	1	2	51200	0	51200	0	53248	1	0.7	51200	red	blue	0	6	ml	2.7.3	lorasick	sub-12_ses-02_task-ml_proj-lorasick_2021-03-09-16-48-01.501773
137	12	2	3	138	volatile	5	40	38	vs	red	blue	red	blue	left	right	0.7	0.30000000000000004	4	2	2.8	0.6000000000000001	0	1	0.7	0.30000000000000004	4	2	2.8	0.6000000000000001	invalid	0.43325203499989584	53248	0	1	2	51200	0	51200	0	51200	0	0.7	51200	red	blue	1	2	ml	2.7.3	lorasick	sub-12_ses-02_task-ml_proj-lorasick_2021-03-09-16-48-01.501773
138	12	2	3	139	volatile	5	40	39	vs	blue	red	red	blue	right	left	0.7	0.30000000000000004	2	4	1.4	1.2000000000000002	1	0	0.30000000000000004	0.7	4	2	1.2000000000000002	1.4	valid	0.6331872319933609	53248	0	1	1	53248	1	53248	1	51200	0	0.7	53248	red	blue	0	2	ml	2.7.3	lorasick	sub-12_ses-02_task-ml_proj-lorasick_2021-03-09-16-48-01.501773
139	12	2	3	140	volatile	5	40	40	vs	blue	red	red	blue	right	left	0.7	0.30000000000000004	2	10	1.4	3.0000000000000004	0	1	0.30000000000000004	0.7	10	2	3.0000000000000004	1.4	invalid	0.4998782760012546	51200	0	0	2	51200	1	53248	0	51200	1	0.7	53248	red	blue	0	10	ml	2.7.3	lorasick	sub-12_ses-02_task-ml_proj-lorasick_2021-03-09-16-48-01.501773
140	12	2	3	141	volatile	6	40	1	vs	red	blue	red	blue	left	right	0.30000000000000004	0.7	6	2	1.8000000000000005	1.4	1	0	0.30000000000000004	0.7	6	2	1.8000000000000005	1.4	invalid	0.4998767989964108	51200	0	0	1	51200	1	53248	0	51200	1	0.7	53248	blue	red	0	6	ml	2.7.3	lorasick	sub-12_ses-02_task-ml_proj-lorasick_2021-03-09-16-48-01.501773
141	12	2	3	142	volatile	6	40	2	vs	blue	red	red	blue	right	left	0.30000000000000004	0.7	10	2	3.0000000000000004	1.4	1	0	0.7	0.30000000000000004	2	10	1.4	3.0000000000000004	invalid	0.4499057240027469	53248	0	1	1	53248	1	51200	0	53248	1	0.7	51200	blue	red	0	10	ml	2.7.3	lorasick	sub-12_ses-02_task-ml_proj-lorasick_2021-03-09-16-48-01.501773
142	12	2	3	143	volatile	6	40	3	vs	blue	red	red	blue	right	left	0.30000000000000004	0.7	6	4	1.8000000000000005	2.8	1	0	0.7	0.30000000000000004	4	6	2.8	1.8000000000000005	invalid	0.4498992420049035	53248	0	1	1	51200	0	51200	0	53248	1	0.7	51200	blue	red	0	6	ml	2.7.3	lorasick	sub-12_ses-02_task-ml_proj-lorasick_2021-03-09-16-48-01.501773
143	12	2	3	144	volatile	6	40	4	vs	red	blue	red	blue	left	right	0.30000000000000004	0.7	6	4	1.8000000000000005	2.8	0	1	0.30000000000000004	0.7	6	4	1.8000000000000005	2.8	valid	0.3499247750005452	51200	0	0	1	53248	0	53248	0	51200	1	0.7	53248	blue	red	0	0	ml	2.7.3	lorasick	sub-12_ses-02_task-ml_proj-lorasick_2021-03-09-16-48-01.501773
144	12	2	3	145	volatile	6	40	5	vs	red	blue	red	blue	left	right	0.30000000000000004	0.7	4	6	1.2000000000000002	4.199999999999998	0	1	0.30000000000000004	0.7	4	6	1.2000000000000002	4.199999999999998	valid	0.44990877300006105	53248	0	1	2	53248	1	53248	1	53248	1	0.7	53248	blue	red	1	6	ml	2.7.3	lorasick	sub-12_ses-02_task-ml_proj-lorasick_2021-03-09-16-48-01.501773
145	12	2	3	146	volatile	6	40	6	vs	red	blue	red	blue	left	right	0.30000000000000004	0.7	2	4	0.6000000000000001	2.8	0	1	0.30000000000000004	0.7	2	4	0.6000000000000001	2.8	valid	0.4665682670020033	53248	0	1	2	53248	1	53248	1	53248	1	0.7	53248	blue	red	1	4	ml	2.7.3	lorasick	sub-12_ses-02_task-ml_proj-lorasick_2021-03-09-16-48-01.501773
146	12	2	3	147	volatile	6	40	7	vs	red	blue	red	blue	left	right	0.30000000000000004	0.7	6	4	1.8000000000000005	2.8	0	1	0.30000000000000004	0.7	6	4	1.8000000000000005	2.8	valid	0.4665678749952349	51200	0	0	1	53248	0	53248	0	51200	1	0.7	53248	blue	red	0	0	ml	2.7.3	lorasick	sub-12_ses-02_task-ml_proj-lorasick_2021-03-09-16-48-01.501773
147	12	2	3	148	volatile	6	40	8	vs	blue	red	red	blue	right	left	0.30000000000000004	0.7	2	4	0.6000000000000001	2.8	0	1	0.7	0.30000000000000004	4	2	2.8	0.6000000000000001	valid	0.3665867189993151	51200	0	0	2	51200	1	51200	1	51200	1	0.7	51200	blue	red	1	4	ml	2.7.3	lorasick	sub-12_ses-02_task-ml_proj-lorasick_2021-03-09-16-48-01.501773
148	12	2	3	149	volatile	6	40	9	vs	red	blue	red	blue	left	right	0.30000000000000004	0.7	6	4	1.8000000000000005	2.8	1	0	0.30000000000000004	0.7	6	4	1.8000000000000005	2.8	invalid	0.4998828590032645	51200	0	0	1	53248	0	53248	0	51200	1	0.7	53248	blue	red	0	6	ml	2.7.3	lorasick	sub-12_ses-02_task-ml_proj-lorasick_2021-03-09-16-48-01.501773
149	12	2	3	150	volatile	6	40	10	vs	blue	red	red	blue	right	left	0.30000000000000004	0.7	6	6	1.8000000000000005	4.199999999999998	0	1	0.7	0.30000000000000004	6	6	4.199999999999998	1.8000000000000005	valid	0.4498974580055801	51200	0	0	2	51200	1	51200	1	53248	0	0.7	51200	blue	red	1	6	ml	2.7.3	lorasick	sub-12_ses-02_task-ml_proj-lorasick_2021-03-09-16-48-01.501773
150	12	2	4	151	volatile	6	40	11	vs	blue	red	red	blue	right	left	0.30000000000000004	0.7	6	4	1.8000000000000005	2.8	0	1	0.7	0.30000000000000004	4	6	2.8	1.8000000000000005	valid	0.6831801849984913	53248	0	1	1	51200	0	51200	0	53248	1	0.7	51200	blue	red	0	0	ml	2.7.3	lorasick	sub-12_ses-02_task-ml_proj-lorasick_2021-03-09-16-48-01.501773
151	12	2	4	152	volatile	6	40	12	vs	blue	red	red	blue	right	left	0.30000000000000004	0.7	2	2	0.6000000000000001	1.4	1	0	0.7	0.30000000000000004	2	2	1.4	0.6000000000000001	invalid	0.43323393200262217	51200	0	0	2	51200	1	51200	1	53248	0	0.7	51200	blue	red	1	0	ml	2.7.3	lorasick	sub-12_ses-02_task-ml_proj-lorasick_2021-03-09-16-48-01.501773
152	12	2	4	153	volatile	6	40	13	vs	blue	red	red	blue	right	left	0.30000000000000004	0.7	2	10	0.6000000000000001	7.0	0	1	0.7	0.30000000000000004	10	2	7.0	0.6000000000000001	valid	0.3499242669931846	51200	0	0	2	51200	1	51200	1	51200	1	0.7	51200	blue	red	1	10	ml	2.7.3	lorasick	sub-12_ses-02_task-ml_proj-lorasick_2021-03-09-16-48-01.501773
153	12	2	4	154	volatile	6	40	14	vs	red	blue	red	blue	left	right	0.30000000000000004	0.7	2	2	0.6000000000000001	1.4	0	1	0.30000000000000004	0.7	2	2	0.6000000000000001	1.4	valid	0.3999119829968549	51200	0	0	1	53248	0	53248	0	53248	0	0.7	53248	blue	red	0	0	ml	2.7.3	lorasick	sub-12_ses-02_task-ml_proj-lorasick_2021-03-09-16-48-01.501773
154	12	2	4	155	volatile	6	40	15	vs	red	blue	red	blue	left	right	0.30000000000000004	0.7	6	6	1.8000000000000005	4.199999999999998	0	1	0.30000000000000004	0.7	6	6	1.8000000000000005	4.199999999999998	valid	0.44990780999796703	53248	0	1	2	53248	1	53248	1	53248	1	0.7	53248	blue	red	0	6	ml	2.7.3	lorasick	sub-12_ses-02_task-ml_proj-lorasick_2021-03-09-16-48-01.501773
155	12	2	4	156	volatile	6	40	16	vs	blue	red	red	blue	right	left	0.30000000000000004	0.7	2	10	0.6000000000000001	7.0	0	1	0.7	0.30000000000000004	10	2	7.0	0.6000000000000001	valid	0.3832503569938126	51200	0	0	2	51200	1	51200	1	51200	1	0.7	51200	blue	red	1	10	ml	2.7.3	lorasick	sub-12_ses-02_task-ml_proj-lorasick_2021-03-09-16-48-01.501773
156	12	2	4	157	volatile	6	40	17	vs	red	blue	red	blue	left	right	0.30000000000000004	0.7	10	2	3.0000000000000004	1.4	0	1	0.30000000000000004	0.7	10	2	3.0000000000000004	1.4	valid	0.5165540669986513	53248	0	1	2	51200	0	53248	1	51200	0	0.7	53248	blue	red	0	2	ml	2.7.3	lorasick	sub-12_ses-02_task-ml_proj-lorasick_2021-03-09-16-48-01.501773
157	12	2	4	158	volatile	6	40	18	vs	red	blue	red	blue	left	right	0.30000000000000004	0.7	6	2	1.8000000000000005	1.4	1	0	0.30000000000000004	0.7	6	2	1.8000000000000005	1.4	invalid	0.44990690299891867	53248	0	1	2	51200	0	53248	1	51200	0	0.7	53248	blue	red	0	0	ml	2.7.3	lorasick	sub-12_ses-02_task-ml_proj-lorasick_2021-03-09-16-48-01.501773
158	12	2	4	159	volatile	6	40	19	vs	red	blue	red	blue	left	right	0.30000000000000004	0.7	6	4	1.8000000000000005	2.8	0	1	0.30000000000000004	0.7	6	4	1.8000000000000005	2.8	valid	0.3832579390000319	53248	0	1	2	53248	1	53248	1	51200	0	0.7	53248	blue	red	0	4	ml	2.7.3	lorasick	sub-12_ses-02_task-ml_proj-lorasick_2021-03-09-16-48-01.501773
159	12	2	4	160	volatile	6	40	20	vs	red	blue	red	blue	left	right	0.30000000000000004	0.7	2	4	0.6000000000000001	2.8	0	1	0.30000000000000004	0.7	2	4	0.6000000000000001	2.8	valid	0.4499070410020067	53248	0	1	2	53248	1	53248	1	53248	1	0.7	53248	blue	red	1	4	ml	2.7.3	lorasick	sub-12_ses-02_task-ml_proj-lorasick_2021-03-09-16-48-01.501773
160	12	2	4	161	volatile	6	40	21	vs	blue	red	red	blue	right	left	0.30000000000000004	0.7	10	2	3.0000000000000004	1.4	1	0	0.7	0.30000000000000004	2	10	1.4	3.0000000000000004	invalid	0.9330939020001096	53248	0	1	1	53248	1	51200	0	53248	1	0.7	51200	blue	red	0	10	ml	2.7.3	lorasick	sub-12_ses-02_task-ml_proj-lorasick_2021-03-09-16-48-01.501773
161	12	2	4	162	volatile	6	40	22	vs	blue	red	red	blue	right	left	0.30000000000000004	0.7	2	10	0.6000000000000001	7.0	0	1	0.7	0.30000000000000004	10	2	7.0	0.6000000000000001	valid	0.43323727999813855	51200	0	0	2	51200	1	51200	1	51200	1	0.7	51200	blue	red	1	10	ml	2.7.3	lorasick	sub-12_ses-02_task-ml_proj-lorasick_2021-03-09-16-48-01.501773
162	12	2	4	163	volatile	6	40	23	vs	red	blue	red	blue	left	right	0.30000000000000004	0.7	6	6	1.8000000000000005	4.199999999999998	1	0	0.30000000000000004	0.7	6	6	1.8000000000000005	4.199999999999998	invalid	0.5498778420005692	53248	0	1	2	53248	1	53248	1	53248	1	0.7	53248	blue	red	0	0	ml	2.7.3	lorasick	sub-12_ses-02_task-ml_proj-lorasick_2021-03-09-16-48-01.501773
163	12	2	4	164	volatile	6	40	24	vs	red	blue	red	blue	left	right	0.30000000000000004	0.7	2	2	0.6000000000000001	1.4	0	1	0.30000000000000004	0.7	2	2	0.6000000000000001	1.4	valid	0.7998060709942365	53248	0	1	2	53248	1	53248	1	53248	1	0.7	53248	blue	red	0	2	ml	2.7.3	lorasick	sub-12_ses-02_task-ml_proj-lorasick_2021-03-09-16-48-01.501773
164	12	2	4	165	volatile	6	40	25	vs	red	blue	red	blue	left	right	0.30000000000000004	0.7	2	6	0.6000000000000001	4.199999999999998	0	1	0.30000000000000004	0.7	2	6	0.6000000000000001	4.199999999999998	valid	0.4665663659980055	53248	0	1	2	53248	1	53248	1	53248	1	0.7	53248	blue	red	1	6	ml	2.7.3	lorasick	sub-12_ses-02_task-ml_proj-lorasick_2021-03-09-16-48-01.501773
165	12	2	4	166	volatile	6	40	26	vs	blue	red	red	blue	right	left	0.30000000000000004	0.7	4	2	1.2000000000000002	1.4	0	1	0.7	0.30000000000000004	2	4	1.4	1.2000000000000002	valid	0.5165413400027319	51200	0	0	2	51200	1	51200	1	53248	0	0.7	51200	blue	red	0	2	ml	2.7.3	lorasick	sub-12_ses-02_task-ml_proj-lorasick_2021-03-09-16-48-01.501773
166	12	2	4	167	volatile	6	40	27	vs	red	blue	red	blue	left	right	0.30000000000000004	0.7	2	6	0.6000000000000001	4.199999999999998	1	0	0.30000000000000004	0.7	2	6	0.6000000000000001	4.199999999999998	invalid	0.3665983459941344	53248	0	1	2	53248	1	53248	1	53248	1	0.7	53248	blue	red	1	0	ml	2.7.3	lorasick	sub-12_ses-02_task-ml_proj-lorasick_2021-03-09-16-48-01.501773
167	12	2	4	168	volatile	6	40	28	vs	blue	red	red	blue	right	left	0.30000000000000004	0.7	6	4	1.8000000000000005	2.8	1	0	0.7	0.30000000000000004	4	6	2.8	1.8000000000000005	invalid	0.4665588499992737	51200	0	0	2	51200	1	51200	1	53248	0	0.7	51200	blue	red	0	0	ml	2.7.3	lorasick	sub-12_ses-02_task-ml_proj-lorasick_2021-03-09-16-48-01.501773
168	12	2	4	169	volatile	6	40	29	vs	blue	red	red	blue	right	left	0.30000000000000004	0.7	2	6	0.6000000000000001	4.199999999999998	0	1	0.7	0.30000000000000004	6	2	4.199999999999998	0.6000000000000001	valid	0.7331488880008692	51200	0	0	2	51200	1	51200	1	51200	1	0.7	51200	blue	red	1	6	ml	2.7.3	lorasick	sub-12_ses-02_task-ml_proj-lorasick_2021-03-09-16-48-01.501773
169	12	2	4	170	volatile	6	40	30	vs	blue	red	red	blue	right	left	0.30000000000000004	0.7	2	4	0.6000000000000001	2.8	0	1	0.7	0.30000000000000004	4	2	2.8	0.6000000000000001	valid	0.4332348500029184	51200	0	0	2	51200	1	51200	1	51200	1	0.7	51200	blue	red	1	4	ml	2.7.3	lorasick	sub-12_ses-02_task-ml_proj-lorasick_2021-03-09-16-48-01.501773
170	12	2	4	171	volatile	6	40	31	vs	blue	red	red	blue	right	left	0.30000000000000004	0.7	4	2	1.2000000000000002	1.4	0	1	0.7	0.30000000000000004	2	4	1.4	1.2000000000000002	valid	0.38325499100028537	51200	0	0	2	51200	1	51200	1	53248	0	0.7	51200	blue	red	0	2	ml	2.7.3	lorasick	sub-12_ses-02_task-ml_proj-lorasick_2021-03-09-16-48-01.501773
171	12	2	4	172	volatile	6	40	32	vs	red	blue	red	blue	left	right	0.30000000000000004	0.7	6	2	1.8000000000000005	1.4	0	1	0.30000000000000004	0.7	6	2	1.8000000000000005	1.4	valid	0.9330896370011031	51200	0	0	1	51200	1	53248	0	51200	1	0.7	53248	blue	red	0	0	ml	2.7.3	lorasick	sub-12_ses-02_task-ml_proj-lorasick_2021-03-09-16-48-01.501773
172	12	2	4	173	volatile	6	40	33	vs	blue	red	red	blue	right	left	0.30000000000000004	0.7	10	2	3.0000000000000004	1.4	1	0	0.7	0.30000000000000004	2	10	1.4	3.0000000000000004	invalid	0.7164954840045539	53248	0	1	1	53248	1	51200	0	53248	1	0.7	51200	blue	red	0	10	ml	2.7.3	lorasick	sub-12_ses-02_task-ml_proj-lorasick_2021-03-09-16-48-01.501773
173	12	2	4	174	volatile	6	40	34	vs	red	blue	red	blue	left	right	0.30000000000000004	0.7	4	2	1.2000000000000002	1.4	1	0	0.30000000000000004	0.7	4	2	1.2000000000000002	1.4	invalid	0.5831934880043264	51200	0	0	1	53248	0	53248	0	51200	1	0.7	53248	blue	red	0	4	ml	2.7.3	lorasick	sub-12_ses-02_task-ml_proj-lorasick_2021-03-09-16-48-01.501773
174	12	2	4	175	volatile	6	40	35	vs	red	blue	red	blue	left	right	0.30000000000000004	0.7	2	2	0.6000000000000001	1.4	0	1	0.30000000000000004	0.7	2	2	0.6000000000000001	1.4	valid	0.3332573080042493	51200	0	0	1	53248	0	53248	0	53248	0	0.7	53248	blue	red	0	0	ml	2.7.3	lorasick	sub-12_ses-02_task-ml_proj-lorasick_2021-03-09-16-48-01.501773
175	12	2	4	176	volatile	6	40	36	vs	blue	red	red	blue	right	left	0.30000000000000004	0.7	6	2	1.8000000000000005	1.4	0	1	0.7	0.30000000000000004	2	6	1.4	1.8000000000000005	valid	0.7664840400029789	53248	0	1	1	53248	1	51200	0	53248	1	0.7	51200	blue	red	0	0	ml	2.7.3	lorasick	sub-12_ses-02_task-ml_proj-lorasick_2021-03-09-16-48-01.501773
176	12	2	4	177	volatile	6	40	37	vs	red	blue	red	blue	left	right	0.30000000000000004	0.7	4	2	1.2000000000000002	1.4	0	1	0.30000000000000004	0.7	4	2	1.2000000000000002	1.4	valid	0.6331889010034502	53248	0	1	2	53248	1	53248	1	51200	0	0.7	53248	blue	red	0	2	ml	2.7.3	lorasick	sub-12_ses-02_task-ml_proj-lorasick_2021-03-09-16-48-01.501773
177	12	2	4	178	volatile	6	40	38	vs	blue	red	red	blue	right	left	0.30000000000000004	0.7	6	2	1.8000000000000005	1.4	0	1	0.7	0.30000000000000004	2	6	1.4	1.8000000000000005	valid	0.3832469699991634	51200	0	0	2	53248	0	51200	1	53248	0	0.7	51200	blue	red	0	2	ml	2.7.3	lorasick	sub-12_ses-02_task-ml_proj-lorasick_2021-03-09-16-48-01.501773
178	12	2	4	179	volatile	6	40	39	vs	blue	red	red	blue	right	left	0.30000000000000004	0.7	10	2	3.0000000000000004	1.4	0	1	0.7	0.30000000000000004	2	10	1.4	3.0000000000000004	valid	0.4165723849946517	51200	0	0	2	53248	0	51200	1	53248	0	0.7	51200	blue	red	0	2	ml	2.7.3	lorasick	sub-12_ses-02_task-ml_proj-lorasick_2021-03-09-16-48-01.501773
179	12	2	4	180	volatile	6	40	40	vs	blue	red	red	blue	right	left	0.30000000000000004	0.7	6	6	1.8000000000000005	4.199999999999998	0	1	0.7	0.30000000000000004	6	6	4.199999999999998	1.8000000000000005	valid	0.4498951070054318	51200	0	0	2	51200	1	51200	1	53248	0	0.7	51200	blue	red	1	6	ml	2.7.3	lorasick	sub-12_ses-02_task-ml_proj-lorasick_2021-03-09-16-48-01.501773
180	12	2	4	181	volatile	7	20	1	vs	red	blue	red	blue	left	right	0.7	0.30000000000000004	4	2	2.8	0.6000000000000001	1	0	0.7	0.30000000000000004	4	2	2.8	0.6000000000000001	valid	0.4165904269975727	53248	0	1	2	51200	0	51200	0	51200	0	0.7	51200	red	blue	1	0	ml	2.7.3	lorasick	sub-12_ses-02_task-ml_proj-lorasick_2021-03-09-16-48-01.501773
181	12	2	4	182	volatile	7	20	2	vs	blue	red	red	blue	right	left	0.7	0.30000000000000004	4	2	2.8	0.6000000000000001	1	0	0.30000000000000004	0.7	2	4	0.6000000000000001	2.8	valid	0.4165731059983955	51200	0	0	2	53248	0	53248	0	53248	0	0.7	53248	red	blue	1	0	ml	2.7.3	lorasick	sub-12_ses-02_task-ml_proj-lorasick_2021-03-09-16-48-01.501773
182	12	2	4	183	volatile	7	20	3	vs	blue	red	red	blue	right	left	0.7	0.30000000000000004	10	2	7.0	0.6000000000000001	0	1	0.30000000000000004	0.7	2	10	0.6000000000000001	7.0	invalid	0.4165727840008913	51200	0	0	2	53248	0	53248	0	53248	0	0.7	53248	red	blue	1	2	ml	2.7.3	lorasick	sub-12_ses-02_task-ml_proj-lorasick_2021-03-09-16-48-01.501773
183	12	2	4	184	volatile	7	20	4	vs	blue	red	red	blue	right	left	0.7	0.30000000000000004	4	6	2.8	1.8000000000000005	1	0	0.30000000000000004	0.7	6	4	1.8000000000000005	2.8	valid	0.4498785660034628	51200	0	0	2	53248	0	53248	0	51200	1	0.7	53248	red	blue	0	0	ml	2.7.3	lorasick	sub-12_ses-02_task-ml_proj-lorasick_2021-03-09-16-48-01.501773
184	12	2	4	185	volatile	7	20	5	vs	red	blue	red	blue	left	right	0.7	0.30000000000000004	2	6	1.4	1.8000000000000005	0	1	0.7	0.30000000000000004	2	6	1.4	1.8000000000000005	invalid	0.44990804199915146	53248	0	1	2	53248	1	51200	0	53248	1	0.7	51200	red	blue	0	6	ml	2.7.3	lorasick	sub-12_ses-02_task-ml_proj-lorasick_2021-03-09-16-48-01.501773
185	12	2	4	186	volatile	7	20	6	vs	blue	red	red	blue	right	left	0.7	0.30000000000000004	6	2	4.199999999999998	0.6000000000000001	1	0	0.30000000000000004	0.7	2	6	0.6000000000000001	4.199999999999998	valid	0.5665319949985133	51200	0	0	2	53248	0	53248	0	53248	0	0.7	53248	red	blue	1	0	ml	2.7.3	lorasick	sub-12_ses-02_task-ml_proj-lorasick_2021-03-09-16-48-01.501773
186	12	2	4	187	volatile	7	20	7	vs	red	blue	red	blue	left	right	0.7	0.30000000000000004	10	2	7.0	0.6000000000000001	1	0	0.7	0.30000000000000004	10	2	7.0	0.6000000000000001	valid	0.6831613940012176	51200	0	0	1	51200	1	51200	1	51200	1	0.7	51200	red	blue	1	10	ml	2.7.3	lorasick	sub-12_ses-02_task-ml_proj-lorasick_2021-03-09-16-48-01.501773
187	12	2	4	188	volatile	7	20	8	vs	red	blue	red	blue	left	right	0.7	0.30000000000000004	6	4	4.199999999999998	1.2000000000000002	1	0	0.7	0.30000000000000004	6	4	4.199999999999998	1.2000000000000002	valid	0.4332367300012265	51200	0	0	1	51200	1	51200	1	51200	1	0.7	51200	red	blue	1	6	ml	2.7.3	lorasick	sub-12_ses-02_task-ml_proj-lorasick_2021-03-09-16-48-01.501773
188	12	2	4	189	volatile	7	20	9	vs	blue	red	red	blue	right	left	0.7	0.30000000000000004	2	4	1.4	1.2000000000000002	1	0	0.30000000000000004	0.7	4	2	1.2000000000000002	1.4	valid	0.4998856840029475	51200	0	0	2	53248	0	53248	0	51200	1	0.7	53248	red	blue	0	0	ml	2.7.3	lorasick	sub-12_ses-02_task-ml_proj-lorasick_2021-03-09-16-48-01.501773
189	12	2	4	190	volatile	7	20	10	vs	blue	red	red	blue	right	left	0.7	0.30000000000000004	2	6	1.4	1.8000000000000005	1	0	0.30000000000000004	0.7	6	2	1.8000000000000005	1.4	valid	0.6998258529929444	51200	0	0	2	51200	1	53248	0	51200	1	0.7	53248	red	blue	0	0	ml	2.7.3	lorasick	sub-12_ses-02_task-ml_proj-lorasick_2021-03-09-16-48-01.501773
190	12	2	4	191	volatile	7	20	11	vs	red	blue	red	blue	left	right	0.7	0.30000000000000004	2	10	1.4	3.0000000000000004	1	0	0.7	0.30000000000000004	2	10	1.4	3.0000000000000004	valid	0.6664983909940929	51200	0	0	1	53248	0	51200	1	53248	0	0.7	51200	red	blue	0	2	ml	2.7.3	lorasick	sub-12_ses-02_task-ml_proj-lorasick_2021-03-09-16-48-01.501773
191	12	2	4	192	volatile	7	20	12	vs	red	blue	red	blue	left	right	0.7	0.30000000000000004	6	6	4.199999999999998	1.8000000000000005	1	0	0.7	0.30000000000000004	6	6	4.199999999999998	1.8000000000000005	valid	0.4332418300036807	51200	0	0	1	51200	1	51200	1	53248	0	0.7	51200	red	blue	1	6	ml	2.7.3	lorasick	sub-12_ses-02_task-ml_proj-lorasick_2021-03-09-16-48-01.501773
192	12	2	4	193	volatile	7	20	13	vs	red	blue	red	blue	left	right	0.7	0.30000000000000004	6	6	4.199999999999998	1.8000000000000005	0	1	0.7	0.30000000000000004	6	6	4.199999999999998	1.8000000000000005	invalid	0.3832507390034152	51200	0	0	1	51200	1	51200	1	53248	0	0.7	51200	red	blue	1	0	ml	2.7.3	lorasick	sub-12_ses-02_task-ml_proj-lorasick_2021-03-09-16-48-01.501773
193	12	2	4	194	volatile	7	20	14	vs	blue	red	red	blue	right	left	0.7	0.30000000000000004	2	2	1.4	0.6000000000000001	0	1	0.30000000000000004	0.7	2	2	0.6000000000000001	1.4	invalid	0.4498949290064047	51200	0	0	2	53248	0	53248	0	53248	0	0.7	53248	red	blue	0	2	ml	2.7.3	lorasick	sub-12_ses-02_task-ml_proj-lorasick_2021-03-09-16-48-01.501773
194	12	2	4	195	volatile	7	20	15	vs	red	blue	red	blue	left	right	0.7	0.30000000000000004	4	6	2.8	1.8000000000000005	1	0	0.7	0.30000000000000004	4	6	2.8	1.8000000000000005	valid	0.3999211109985481	53248	0	1	2	51200	0	51200	0	53248	1	0.7	51200	red	blue	0	0	ml	2.7.3	lorasick	sub-12_ses-02_task-ml_proj-lorasick_2021-03-09-16-48-01.501773
195	12	2	4	196	volatile	7	20	16	vs	blue	red	red	blue	right	left	0.7	0.30000000000000004	6	4	4.199999999999998	1.2000000000000002	1	0	0.30000000000000004	0.7	4	6	1.2000000000000002	4.199999999999998	valid	0.3832494329981273	51200	0	0	2	53248	0	53248	0	53248	0	0.7	53248	red	blue	1	0	ml	2.7.3	lorasick	sub-12_ses-02_task-ml_proj-lorasick_2021-03-09-16-48-01.501773
196	12	2	4	197	volatile	7	20	17	vs	red	blue	red	blue	left	right	0.7	0.30000000000000004	2	2	1.4	0.6000000000000001	1	0	0.7	0.30000000000000004	2	2	1.4	0.6000000000000001	valid	0.6165153090041713	51200	0	0	1	51200	1	51200	1	53248	0	0.7	51200	red	blue	1	2	ml	2.7.3	lorasick	sub-12_ses-02_task-ml_proj-lorasick_2021-03-09-16-48-01.501773
197	12	2	4	198	volatile	7	20	18	vs	red	blue	red	blue	left	right	0.7	0.30000000000000004	2	4	1.4	1.2000000000000002	0	1	0.7	0.30000000000000004	2	4	1.4	1.2000000000000002	invalid	0.8664432649966329	51200	0	0	1	51200	1	51200	1	53248	0	0.7	51200	red	blue	0	0	ml	2.7.3	lorasick	sub-12_ses-02_task-ml_proj-lorasick_2021-03-09-16-48-01.501773
198	12	2	4	199	volatile	7	20	19	vs	blue	red	red	blue	right	left	0.7	0.30000000000000004	2	10	1.4	3.0000000000000004	0	1	0.30000000000000004	0.7	10	2	3.0000000000000004	1.4	invalid	0.6831721780035878	51200	0	0	2	51200	1	53248	0	51200	1	0.7	53248	red	blue	0	10	ml	2.7.3	lorasick	sub-12_ses-02_task-ml_proj-lorasick_2021-03-09-16-48-01.501773
199	12	2	4	200	volatile	7	20	20	vs	blue	red	red	blue	right	left	0.7	0.30000000000000004	2	6	1.4	1.8000000000000005	1	0	0.30000000000000004	0.7	6	2	1.8000000000000005	1.4	valid	0.5998522800000501	51200	0	0	2	51200	1	53248	0	51200	1	0.7	53248	red	blue	0	0	ml	2.7.3	lorasick	sub-12_ses-02_task-ml_proj-lorasick_2021-03-09-16-48-01.501773
200	12	2	5	201	stable	8	200	1	vs	red	blue	red	blue	left	right	0.30000000000000004	0.7	2	2	0.6000000000000001	1.4	1	0	0.30000000000000004	0.7	2	2	0.6000000000000001	1.4	invalid	0.8331304349994753	53248	0	1	2	53248	1	53248	1	53248	1	0.7	53248	blue	red	0	0	ml	2.7.3	lorasick	sub-12_ses-02_task-ml_proj-lorasick_2021-03-09-16-48-01.501773
201	12	2	5	202	stable	8	200	2	vs	red	blue	red	blue	left	right	0.30000000000000004	0.7	2	2	0.6000000000000001	1.4	0	1	0.30000000000000004	0.7	2	2	0.6000000000000001	1.4	valid	0.4832179430013639	51200	0	0	1	53248	0	53248	0	53248	0	0.7	53248	blue	red	0	0	ml	2.7.3	lorasick	sub-12_ses-02_task-ml_proj-lorasick_2021-03-09-16-48-01.501773
202	12	2	5	203	stable	8	200	3	vs	blue	red	red	blue	right	left	0.30000000000000004	0.7	2	10	0.6000000000000001	7.0	0	1	0.7	0.30000000000000004	10	2	7.0	0.6000000000000001	valid	0.6998142199954599	51200	0	0	2	51200	1	51200	1	51200	1	0.7	51200	blue	red	1	10	ml	2.7.3	lorasick	sub-12_ses-02_task-ml_proj-lorasick_2021-03-09-16-48-01.501773
203	12	2	5	204	stable	8	200	4	vs	blue	red	red	blue	right	left	0.30000000000000004	0.7	6	2	1.8000000000000005	1.4	0	1	0.7	0.30000000000000004	2	6	1.4	1.8000000000000005	valid	0.7998006780035212	51200	0	0	2	53248	0	51200	1	53248	0	0.7	51200	blue	red	0	2	ml	2.7.3	lorasick	sub-12_ses-02_task-ml_proj-lorasick_2021-03-09-16-48-01.501773
204	12	2	5	205	stable	8	200	5	vs	blue	red	red	blue	right	left	0.30000000000000004	0.7	4	2	1.2000000000000002	1.4	1	0	0.7	0.30000000000000004	2	4	1.4	1.2000000000000002	invalid	0.4498983520024922	51200	0	0	2	51200	1	51200	1	53248	0	0.7	51200	blue	red	0	0	ml	2.7.3	lorasick	sub-12_ses-02_task-ml_proj-lorasick_2021-03-09-16-48-01.501773
205	12	2	5	206	stable	8	200	6	vs	red	blue	red	blue	left	right	0.30000000000000004	0.7	2	4	0.6000000000000001	2.8	0	1	0.30000000000000004	0.7	2	4	0.6000000000000001	2.8	valid	0.4665710910048802	53248	0	1	2	53248	1	53248	1	53248	1	0.7	53248	blue	red	1	4	ml	2.7.3	lorasick	sub-12_ses-02_task-ml_proj-lorasick_2021-03-09-16-48-01.501773
206	12	2	5	207	stable	8	200	7	vs	red	blue	red	blue	left	right	0.30000000000000004	0.7	2	2	0.6000000000000001	1.4	0	1	0.30000000000000004	0.7	2	2	0.6000000000000001	1.4	valid	0.6165277209947817	53248	0	1	2	53248	1	53248	1	53248	1	0.7	53248	blue	red	0	2	ml	2.7.3	lorasick	sub-12_ses-02_task-ml_proj-lorasick_2021-03-09-16-48-01.501773
207	12	2	5	208	stable	8	200	8	vs	red	blue	red	blue	left	right	0.30000000000000004	0.7	2	2	0.6000000000000001	1.4	0	1	0.30000000000000004	0.7	2	2	0.6000000000000001	1.4	valid	0.5332133679985418	53248	0	1	2	53248	1	53248	1	53248	1	0.7	53248	blue	red	0	2	ml	2.7.3	lorasick	sub-12_ses-02_task-ml_proj-lorasick_2021-03-09-16-48-01.501773
208	12	2	5	209	stable	8	200	9	vs	blue	red	red	blue	right	left	0.30000000000000004	0.7	2	4	0.6000000000000001	2.8	1	0	0.7	0.30000000000000004	4	2	2.8	0.6000000000000001	invalid	0.4499297509973985	51200	0	0	2	51200	1	51200	1	51200	1	0.7	51200	blue	red	1	0	ml	2.7.3	lorasick	sub-12_ses-02_task-ml_proj-lorasick_2021-03-09-16-48-01.501773
209	12	2	5	210	stable	8	200	10	vs	red	blue	red	blue	left	right	0.30000000000000004	0.7	6	2	1.8000000000000005	1.4	0	1	0.30000000000000004	0.7	6	2	1.8000000000000005	1.4	valid	0.41657333799958	51200	0	0	1	51200	1	53248	0	51200	1	0.7	53248	blue	red	0	0	ml	2.7.3	lorasick	sub-12_ses-02_task-ml_proj-lorasick_2021-03-09-16-48-01.501773
210	12	2	5	211	stable	8	200	11	vs	red	blue	red	blue	left	right	0.30000000000000004	0.7	4	2	1.2000000000000002	1.4	1	0	0.30000000000000004	0.7	4	2	1.2000000000000002	1.4	invalid	0.4332353880017763	51200	0	0	1	53248	0	53248	0	51200	1	0.7	53248	blue	red	0	4	ml	2.7.3	lorasick	sub-12_ses-02_task-ml_proj-lorasick_2021-03-09-16-48-01.501773
211	12	2	5	212	stable	8	200	12	vs	red	blue	red	blue	left	right	0.30000000000000004	0.7	2	4	0.6000000000000001	2.8	0	1	0.30000000000000004	0.7	2	4	0.6000000000000001	2.8	valid	0.3832435660006013	51200	0	0	1	53248	0	53248	0	53248	0	0.7	53248	blue	red	1	0	ml	2.7.3	lorasick	sub-12_ses-02_task-ml_proj-lorasick_2021-03-09-16-48-01.501773
212	12	2	5	213	stable	8	200	13	vs	blue	red	red	blue	right	left	0.30000000000000004	0.7	4	6	1.2000000000000002	4.199999999999998	0	1	0.7	0.30000000000000004	6	4	4.199999999999998	1.2000000000000002	valid	0.4665691080008401	53248	0	1	1	51200	0	51200	0	51200	0	0.7	51200	blue	red	1	0	ml	2.7.3	lorasick	sub-12_ses-02_task-ml_proj-lorasick_2021-03-09-16-48-01.501773
213	12	2	5	214	stable	8	200	14	vs	blue	red	red	blue	right	left	0.30000000000000004	0.7	6	2	1.8000000000000005	1.4	0	1	0.7	0.30000000000000004	2	6	1.4	1.8000000000000005	valid	0.7664847889973316	53248	0	1	1	53248	1	51200	0	53248	1	0.7	51200	blue	red	0	0	ml	2.7.3	lorasick	sub-12_ses-02_task-ml_proj-lorasick_2021-03-09-16-48-01.501773
214	12	2	5	215	stable	8	200	15	vs	blue	red	red	blue	right	left	0.30000000000000004	0.7	2	10	0.6000000000000001	7.0	0	1	0.7	0.30000000000000004	10	2	7.0	0.6000000000000001	valid	0.4832199369993759	51200	0	0	2	51200	1	51200	1	51200	1	0.7	51200	blue	red	1	10	ml	2.7.3	lorasick	sub-12_ses-02_task-ml_proj-lorasick_2021-03-09-16-48-01.501773
215	12	2	5	216	stable	8	200	16	vs	blue	red	red	blue	right	left	0.30000000000000004	0.7	6	2	1.8000000000000005	1.4	0	1	0.7	0.30000000000000004	2	6	1.4	1.8000000000000005	valid	0.5332093830002123	53248	0	1	1	53248	1	51200	0	53248	1	0.7	51200	blue	red	0	0	ml	2.7.3	lorasick	sub-12_ses-02_task-ml_proj-lorasick_2021-03-09-16-48-01.501773
216	12	2	5	217	stable	8	200	17	vs	red	blue	red	blue	left	right	0.30000000000000004	0.7	10	2	3.0000000000000004	1.4	0	1	0.30000000000000004	0.7	10	2	3.0000000000000004	1.4	valid	0.4498971610009903	51200	0	0	1	51200	1	53248	0	51200	1	0.7	53248	blue	red	0	0	ml	2.7.3	lorasick	sub-12_ses-02_task-ml_proj-lorasick_2021-03-09-16-48-01.501773
217	12	2	5	218	stable	8	200	18	vs	red	blue	red	blue	left	right	0.30000000000000004	0.7	6	4	1.8000000000000005	2.8	0	1	0.30000000000000004	0.7	6	4	1.8000000000000005	2.8	valid	0.4498956329989596	51200	0	0	1	53248	0	53248	0	51200	1	0.7	53248	blue	red	0	0	ml	2.7.3	lorasick	sub-12_ses-02_task-ml_proj-lorasick_2021-03-09-16-48-01.501773
218	12	2	5	219	stable	8	200	19	vs	blue	red	red	blue	right	left	0.30000000000000004	0.7	6	4	1.8000000000000005	2.8	0	1	0.7	0.30000000000000004	4	6	2.8	1.8000000000000005	valid	0.6665029470023001	53248	0	1	1	51200	0	51200	0	53248	1	0.7	51200	blue	red	0	0	ml	2.7.3	lorasick	sub-12_ses-02_task-ml_proj-lorasick_2021-03-09-16-48-01.501773
219	12	2	5	220	stable	8	200	20	vs	red	blue	red	blue	left	right	0.30000000000000004	0.7	2	2	0.6000000000000001	1.4	0	1	0.30000000000000004	0.7	2	2	0.6000000000000001	1.4	valid	0.5665340970008401	53248	0	1	2	53248	1	53248	1	53248	1	0.7	53248	blue	red	0	2	ml	2.7.3	lorasick	sub-12_ses-02_task-ml_proj-lorasick_2021-03-09-16-48-01.501773
220	12	2	5	221	stable	8	200	21	vs	blue	red	red	blue	right	left	0.30000000000000004	0.7	10	2	3.0000000000000004	1.4	0	1	0.7	0.30000000000000004	2	10	1.4	3.0000000000000004	valid	0.38325088899728144	51200	0	0	2	53248	0	51200	1	53248	0	0.7	51200	blue	red	0	2	ml	2.7.3	lorasick	sub-12_ses-02_task-ml_proj-lorasick_2021-03-09-16-48-01.501773
221	12	2	5	222	stable	8	200	22	vs	red	blue	red	blue	left	right	0.30000000000000004	0.7	2	6	0.6000000000000001	4.199999999999998	0	1	0.30000000000000004	0.7	2	6	0.6000000000000001	4.199999999999998	valid	0.46656842000084003	53248	0	1	2	53248	1	53248	1	53248	1	0.7	53248	blue	red	1	6	ml	2.7.3	lorasick	sub-12_ses-02_task-ml_proj-lorasick_2021-03-09-16-48-01.501773
222	12	2	5	223	stable	8	200	23	vs	red	blue	red	blue	left	right	0.30000000000000004	0.7	2	2	0.6000000000000001	1.4	0	1	0.30000000000000004	0.7	2	2	0.6000000000000001	1.4	valid	0.5165570749959443	53248	0	1	2	53248	1	53248	1	53248	1	0.7	53248	blue	red	0	2	ml	2.7.3	lorasick	sub-12_ses-02_task-ml_proj-lorasick_2021-03-09-16-48-01.501773
223	12	2	5	224	stable	8	200	24	vs	blue	red	red	blue	right	left	0.30000000000000004	0.7	6	6	1.8000000000000005	4.199999999999998	0	1	0.7	0.30000000000000004	6	6	4.199999999999998	1.8000000000000005	valid	0.5665301179978997	51200	0	0	2	51200	1	51200	1	53248	0	0.7	51200	blue	red	1	6	ml	2.7.3	lorasick	sub-12_ses-02_task-ml_proj-lorasick_2021-03-09-16-48-01.501773
224	12	2	5	225	stable	8	200	25	vs	red	blue	red	blue	left	right	0.30000000000000004	0.7	4	2	1.2000000000000002	1.4	1	0	0.30000000000000004	0.7	4	2	1.2000000000000002	1.4	invalid	0.4165729079977609	51200	0	0	1	53248	0	53248	0	51200	1	0.7	53248	blue	red	0	4	ml	2.7.3	lorasick	sub-12_ses-02_task-ml_proj-lorasick_2021-03-09-16-48-01.501773
225	12	2	5	226	stable	8	200	26	vs	red	blue	red	blue	left	right	0.30000000000000004	0.7	2	10	0.6000000000000001	7.0	0	1	0.30000000000000004	0.7	2	10	0.6000000000000001	7.0	valid	0.4165822159993695	53248	0	1	2	53248	1	53248	1	53248	1	0.7	53248	blue	red	1	10	ml	2.7.3	lorasick	sub-12_ses-02_task-ml_proj-lorasick_2021-03-09-16-48-01.501773
226	12	2	5	227	stable	8	200	27	vs	blue	red	red	blue	right	left	0.30000000000000004	0.7	2	6	0.6000000000000001	4.199999999999998	0	1	0.7	0.30000000000000004	6	2	4.199999999999998	0.6000000000000001	valid	0.4665747750041192	51200	0	0	2	51200	1	51200	1	51200	1	0.7	51200	blue	red	1	6	ml	2.7.3	lorasick	sub-12_ses-02_task-ml_proj-lorasick_2021-03-09-16-48-01.501773
227	12	2	5	228	stable	8	200	28	vs	blue	red	red	blue	right	left	0.30000000000000004	0.7	4	6	1.2000000000000002	4.199999999999998	0	1	0.7	0.30000000000000004	6	4	4.199999999999998	1.2000000000000002	valid	0.39990908900654176	51200	0	0	2	51200	1	51200	1	51200	1	0.7	51200	blue	red	1	6	ml	2.7.3	lorasick	sub-12_ses-02_task-ml_proj-lorasick_2021-03-09-16-48-01.501773
228	12	2	5	229	stable	8	200	29	vs	blue	red	red	blue	right	left	0.30000000000000004	0.7	6	6	1.8000000000000005	4.199999999999998	0	1	0.7	0.30000000000000004	6	6	4.199999999999998	1.8000000000000005	valid	0.41658074899896747	51200	0	0	2	51200	1	51200	1	53248	0	0.7	51200	blue	red	1	6	ml	2.7.3	lorasick	sub-12_ses-02_task-ml_proj-lorasick_2021-03-09-16-48-01.501773
229	12	2	5	230	stable	8	200	30	vs	blue	red	red	blue	right	left	0.30000000000000004	0.7	6	2	1.8000000000000005	1.4	1	0	0.7	0.30000000000000004	2	6	1.4	1.8000000000000005	invalid	0.8164694439983577	53248	0	1	1	53248	1	51200	0	53248	1	0.7	51200	blue	red	0	6	ml	2.7.3	lorasick	sub-12_ses-02_task-ml_proj-lorasick_2021-03-09-16-48-01.501773
230	12	2	5	231	stable	8	200	31	vs	red	blue	red	blue	left	right	0.30000000000000004	0.7	4	2	1.2000000000000002	1.4	1	0	0.30000000000000004	0.7	4	2	1.2000000000000002	1.4	invalid	0.4498963609948987	51200	0	0	1	53248	0	53248	0	51200	1	0.7	53248	blue	red	0	4	ml	2.7.3	lorasick	sub-12_ses-02_task-ml_proj-lorasick_2021-03-09-16-48-01.501773
231	12	2	5	232	stable	8	200	32	vs	blue	red	red	blue	right	left	0.30000000000000004	0.7	6	6	1.8000000000000005	4.199999999999998	0	1	0.7	0.30000000000000004	6	6	4.199999999999998	1.8000000000000005	valid	0.6498394530062797	51200	0	0	2	51200	1	51200	1	53248	0	0.7	51200	blue	red	1	6	ml	2.7.3	lorasick	sub-12_ses-02_task-ml_proj-lorasick_2021-03-09-16-48-01.501773
232	12	2	5	233	stable	8	200	33	vs	red	blue	red	blue	left	right	0.30000000000000004	0.7	6	2	1.8000000000000005	1.4	0	1	0.30000000000000004	0.7	6	2	1.8000000000000005	1.4	valid	0.5831908539985307	51200	0	0	1	51200	1	53248	0	51200	1	0.7	53248	blue	red	0	0	ml	2.7.3	lorasick	sub-12_ses-02_task-ml_proj-lorasick_2021-03-09-16-48-01.501773
233	12	2	5	234	stable	8	200	34	vs	red	blue	red	blue	left	right	0.30000000000000004	0.7	4	6	1.2000000000000002	4.199999999999998	0	1	0.30000000000000004	0.7	4	6	1.2000000000000002	4.199999999999998	valid	0.36659889700240456	53248	0	1	2	53248	1	53248	1	53248	1	0.7	53248	blue	red	1	6	ml	2.7.3	lorasick	sub-12_ses-02_task-ml_proj-lorasick_2021-03-09-16-48-01.501773
234	12	2	5	235	stable	8	200	35	vs	blue	red	red	blue	right	left	0.30000000000000004	0.7	4	2	1.2000000000000002	1.4	0	1	0.7	0.30000000000000004	2	4	1.4	1.2000000000000002	valid	0.7331600489997072	53248	0	1	1	51200	0	51200	0	53248	1	0.7	51200	blue	red	0	0	ml	2.7.3	lorasick	sub-12_ses-02_task-ml_proj-lorasick_2021-03-09-16-48-01.501773
235	12	2	5	236	stable	8	200	36	vs	blue	red	red	blue	right	left	0.30000000000000004	0.7	10	2	3.0000000000000004	1.4	1	0	0.7	0.30000000000000004	2	10	1.4	3.0000000000000004	invalid	0.7498281230000431	51200	0	0	2	53248	0	51200	1	53248	0	0.7	51200	blue	red	0	0	ml	2.7.3	lorasick	sub-12_ses-02_task-ml_proj-lorasick_2021-03-09-16-48-01.501773
236	12	2	5	237	stable	8	200	37	vs	blue	red	red	blue	right	left	0.30000000000000004	0.7	6	6	1.8000000000000005	4.199999999999998	1	0	0.7	0.30000000000000004	6	6	4.199999999999998	1.8000000000000005	invalid	1.1496989860024769	53248	0	1	1	51200	0	51200	0	53248	1	0.7	51200	blue	red	1	6	ml	2.7.3	lorasick	sub-12_ses-02_task-ml_proj-lorasick_2021-03-09-16-48-01.501773
237	12	2	5	238	stable	8	200	38	vs	blue	red	red	blue	right	left	0.30000000000000004	0.7	10	2	3.0000000000000004	1.4	0	1	0.7	0.30000000000000004	2	10	1.4	3.0000000000000004	valid	0.34993605299678165	53248	0	1	1	53248	1	51200	0	53248	1	0.7	51200	blue	red	0	0	ml	2.7.3	lorasick	sub-12_ses-02_task-ml_proj-lorasick_2021-03-09-16-48-01.501773
238	12	2	5	239	stable	8	200	39	vs	red	blue	red	blue	left	right	0.30000000000000004	0.7	2	10	0.6000000000000001	7.0	1	0	0.30000000000000004	0.7	2	10	0.6000000000000001	7.0	invalid	0.3832469639964984	51200	0	0	1	53248	0	53248	0	53248	0	0.7	53248	blue	red	1	2	ml	2.7.3	lorasick	sub-12_ses-02_task-ml_proj-lorasick_2021-03-09-16-48-01.501773
239	12	2	5	240	stable	8	200	40	vs	blue	red	red	blue	right	left	0.30000000000000004	0.7	2	2	0.6000000000000001	1.4	0	1	0.7	0.30000000000000004	2	2	1.4	0.6000000000000001	valid	0.5332223879959201	53248	0	1	1	51200	0	51200	0	53248	1	0.7	51200	blue	red	1	0	ml	2.7.3	lorasick	sub-12_ses-02_task-ml_proj-lorasick_2021-03-09-16-48-01.501773
240	12	2	5	241	stable	8	200	41	vs	blue	red	red	blue	right	left	0.30000000000000004	0.7	4	2	1.2000000000000002	1.4	1	0	0.7	0.30000000000000004	2	4	1.4	1.2000000000000002	invalid	0.4332456100019044	53248	0	1	1	51200	0	51200	0	53248	1	0.7	51200	blue	red	0	4	ml	2.7.3	lorasick	sub-12_ses-02_task-ml_proj-lorasick_2021-03-09-16-48-01.501773
241	12	2	5	242	stable	8	200	42	vs	red	blue	red	blue	left	right	0.30000000000000004	0.7	2	10	0.6000000000000001	7.0	1	0	0.30000000000000004	0.7	2	10	0.6000000000000001	7.0	invalid	0.5332148390007205	53248	0	1	2	53248	1	53248	1	53248	1	0.7	53248	blue	red	1	0	ml	2.7.3	lorasick	sub-12_ses-02_task-ml_proj-lorasick_2021-03-09-16-48-01.501773
242	12	2	5	243	stable	8	200	43	vs	blue	red	red	blue	right	left	0.30000000000000004	0.7	6	4	1.8000000000000005	2.8	0	1	0.7	0.30000000000000004	4	6	2.8	1.8000000000000005	valid	0.6664992259975406	51200	0	0	2	51200	1	51200	1	53248	0	0.7	51200	blue	red	0	4	ml	2.7.3	lorasick	sub-12_ses-02_task-ml_proj-lorasick_2021-03-09-16-48-01.501773
243	12	2	5	244	stable	8	200	44	vs	blue	red	red	blue	right	left	0.30000000000000004	0.7	2	4	0.6000000000000001	2.8	1	0	0.7	0.30000000000000004	4	2	2.8	0.6000000000000001	invalid	1.249665758004994	51200	0	0	2	51200	1	51200	1	51200	1	0.7	51200	blue	red	1	0	ml	2.7.3	lorasick	sub-12_ses-02_task-ml_proj-lorasick_2021-03-09-16-48-01.501773
244	12	2	5	245	stable	8	200	45	vs	red	blue	red	blue	left	right	0.30000000000000004	0.7	2	6	0.6000000000000001	4.199999999999998	0	1	0.30000000000000004	0.7	2	6	0.6000000000000001	4.199999999999998	valid	0.4832326719988487	53248	0	1	2	53248	1	53248	1	53248	1	0.7	53248	blue	red	1	6	ml	2.7.3	lorasick	sub-12_ses-02_task-ml_proj-lorasick_2021-03-09-16-48-01.501773
245	12	2	5	246	stable	8	200	46	vs	blue	red	red	blue	right	left	0.30000000000000004	0.7	4	2	1.2000000000000002	1.4	1	0	0.7	0.30000000000000004	2	4	1.4	1.2000000000000002	invalid	1.0497278049952	51200	0	0	2	51200	1	51200	1	53248	0	0.7	51200	blue	red	0	0	ml	2.7.3	lorasick	sub-12_ses-02_task-ml_proj-lorasick_2021-03-09-16-48-01.501773
246	12	2	5	247	stable	8	200	47	vs	red	blue	red	blue	left	right	0.30000000000000004	0.7	6	6	1.8000000000000005	4.199999999999998	0	1	0.30000000000000004	0.7	6	6	1.8000000000000005	4.199999999999998	valid	0.4665641100000357	51200	0	0	1	53248	0	53248	0	53248	0	0.7	53248	blue	red	0	0	ml	2.7.3	lorasick	sub-12_ses-02_task-ml_proj-lorasick_2021-03-09-16-48-01.501773
247	12	2	5	248	stable	8	200	48	vs	blue	red	red	blue	right	left	0.30000000000000004	0.7	4	6	1.2000000000000002	4.199999999999998	0	1	0.7	0.30000000000000004	6	4	4.199999999999998	1.2000000000000002	valid	0.733153700006369	51200	0	0	2	51200	1	51200	1	51200	1	0.7	51200	blue	red	1	6	ml	2.7.3	lorasick	sub-12_ses-02_task-ml_proj-lorasick_2021-03-09-16-48-01.501773
248	12	2	5	249	stable	8	200	49	vs	red	blue	red	blue	left	right	0.30000000000000004	0.7	6	6	1.8000000000000005	4.199999999999998	0	1	0.30000000000000004	0.7	6	6	1.8000000000000005	4.199999999999998	valid	0.5165552519974881	53248	0	1	2	53248	1	53248	1	53248	1	0.7	53248	blue	red	0	6	ml	2.7.3	lorasick	sub-12_ses-02_task-ml_proj-lorasick_2021-03-09-16-48-01.501773
249	12	2	5	250	stable	8	200	50	vs	blue	red	red	blue	right	left	0.30000000000000004	0.7	10	2	3.0000000000000004	1.4	0	1	0.7	0.30000000000000004	2	10	1.4	3.0000000000000004	valid	0.8831114060012624	53248	0	1	1	53248	1	51200	0	53248	1	0.7	51200	blue	red	0	0	ml	2.7.3	lorasick	sub-12_ses-02_task-ml_proj-lorasick_2021-03-09-16-48-01.501773
250	12	2	6	251	stable	8	200	51	vs	red	blue	red	blue	left	right	0.30000000000000004	0.7	6	4	1.8000000000000005	2.8	1	0	0.30000000000000004	0.7	6	4	1.8000000000000005	2.8	invalid	0.7831259759987006	51200	0	0	1	53248	0	53248	0	51200	1	0.7	53248	blue	red	0	6	ml	2.7.3	lorasick	sub-12_ses-02_task-ml_proj-lorasick_2021-03-09-16-48-01.501773
251	12	2	6	252	stable	8	200	52	vs	red	blue	red	blue	left	right	0.30000000000000004	0.7	6	2	1.8000000000000005	1.4	0	1	0.30000000000000004	0.7	6	2	1.8000000000000005	1.4	valid	0.5165427140018437	51200	0	0	1	51200	1	53248	0	51200	1	0.7	53248	blue	red	0	0	ml	2.7.3	lorasick	sub-12_ses-02_task-ml_proj-lorasick_2021-03-09-16-48-01.501773
252	12	2	6	253	stable	8	200	53	vs	blue	red	red	blue	right	left	0.30000000000000004	0.7	4	2	1.2000000000000002	1.4	0	1	0.7	0.30000000000000004	2	4	1.4	1.2000000000000002	valid	0.4332450850051828	53248	0	1	1	51200	0	51200	0	53248	1	0.7	51200	blue	red	0	0	ml	2.7.3	lorasick	sub-12_ses-02_task-ml_proj-lorasick_2021-03-09-16-48-01.501773
253	12	2	6	254	stable	8	200	54	vs	blue	red	red	blue	right	left	0.30000000000000004	0.7	2	6	0.6000000000000001	4.199999999999998	0	1	0.7	0.30000000000000004	6	2	4.199999999999998	0.6000000000000001	valid	0.4832217599978321	51200	0	0	2	51200	1	51200	1	51200	1	0.7	51200	blue	red	1	6	ml	2.7.3	lorasick	sub-12_ses-02_task-ml_proj-lorasick_2021-03-09-16-48-01.501773
254	12	2	6	255	stable	8	200	55	vs	red	blue	red	blue	left	right	0.30000000000000004	0.7	2	2	0.6000000000000001	1.4	0	1	0.30000000000000004	0.7	2	2	0.6000000000000001	1.4	valid	0.5332123909975053	51200	0	0	1	53248	0	53248	0	53248	0	0.7	53248	blue	red	0	0	ml	2.7.3	lorasick	sub-12_ses-02_task-ml_proj-lorasick_2021-03-09-16-48-01.501773
255	12	2	6	256	stable	8	200	56	vs	red	blue	red	blue	left	right	0.30000000000000004	0.7	2	10	0.6000000000000001	7.0	1	0	0.30000000000000004	0.7	2	10	0.6000000000000001	7.0	invalid	0.4499069689991302	53248	0	1	2	53248	1	53248	1	53248	1	0.7	53248	blue	red	1	0	ml	2.7.3	lorasick	sub-12_ses-02_task-ml_proj-lorasick_2021-03-09-16-48-01.501773
256	12	2	6	257	stable	8	200	57	vs	blue	red	red	blue	right	left	0.30000000000000004	0.7	2	4	0.6000000000000001	2.8	0	1	0.7	0.30000000000000004	4	2	2.8	0.6000000000000001	valid	0.4165749170060735	51200	0	0	2	51200	1	51200	1	51200	1	0.7	51200	blue	red	1	4	ml	2.7.3	lorasick	sub-12_ses-02_task-ml_proj-lorasick_2021-03-09-16-48-01.501773
257	12	2	6	258	stable	8	200	58	vs	red	blue	red	blue	left	right	0.30000000000000004	0.7	2	4	0.6000000000000001	2.8	0	1	0.30000000000000004	0.7	2	4	0.6000000000000001	2.8	valid	0.5332223510049516	53248	0	1	2	53248	1	53248	1	53248	1	0.7	53248	blue	red	1	4	ml	2.7.3	lorasick	sub-12_ses-02_task-ml_proj-lorasick_2021-03-09-16-48-01.501773
258	12	2	6	259	stable	8	200	59	vs	red	blue	red	blue	left	right	0.30000000000000004	0.7	10	2	3.0000000000000004	1.4	0	1	0.30000000000000004	0.7	10	2	3.0000000000000004	1.4	valid	0.3832526849946589	51200	0	0	1	51200	1	53248	0	51200	1	0.7	53248	blue	red	0	0	ml	2.7.3	lorasick	sub-12_ses-02_task-ml_proj-lorasick_2021-03-09-16-48-01.501773
259	12	2	6	260	stable	8	200	60	vs	red	blue	red	blue	left	right	0.30000000000000004	0.7	10	2	3.0000000000000004	1.4	0	1	0.30000000000000004	0.7	10	2	3.0000000000000004	1.4	valid	0.366584953997517	51200	0	0	1	51200	1	53248	0	51200	1	0.7	53248	blue	red	0	0	ml	2.7.3	lorasick	sub-12_ses-02_task-ml_proj-lorasick_2021-03-09-16-48-01.501773
260	12	2	6	261	stable	8	200	61	vs	red	blue	red	blue	left	right	0.30000000000000004	0.7	6	4	1.8000000000000005	2.8	0	1	0.30000000000000004	0.7	6	4	1.8000000000000005	2.8	valid	0.4665716319941566	53248	0	1	2	53248	1	53248	1	51200	0	0.7	53248	blue	red	0	4	ml	2.7.3	lorasick	sub-12_ses-02_task-ml_proj-lorasick_2021-03-09-16-48-01.501773
261	12	2	6	262	stable	8	200	62	vs	blue	red	red	blue	right	left	0.30000000000000004	0.7	2	2	0.6000000000000001	1.4	0	1	0.7	0.30000000000000004	2	2	1.4	0.6000000000000001	valid	0.3665859850007109	51200	0	0	2	51200	1	51200	1	53248	0	0.7	51200	blue	red	1	2	ml	2.7.3	lorasick	sub-12_ses-02_task-ml_proj-lorasick_2021-03-09-16-48-01.501773
262	12	2	6	263	stable	8	200	63	vs	red	blue	red	blue	left	right	0.30000000000000004	0.7	6	4	1.8000000000000005	2.8	1	0	0.30000000000000004	0.7	6	4	1.8000000000000005	2.8	invalid	0.4665633100012201	53248	0	1	2	53248	1	53248	1	51200	0	0.7	53248	blue	red	0	0	ml	2.7.3	lorasick	sub-12_ses-02_task-ml_proj-lorasick_2021-03-09-16-48-01.501773
263	12	2	6	264	stable	8	200	64	vs	red	blue	red	blue	left	right	0.30000000000000004	0.7	6	2	1.8000000000000005	1.4	0	1	0.30000000000000004	0.7	6	2	1.8000000000000005	1.4	valid	0.46656949699536204	53248	0	1	2	51200	0	53248	1	51200	0	0.7	53248	blue	red	0	2	ml	2.7.3	lorasick	sub-12_ses-02_task-ml_proj-lorasick_2021-03-09-16-48-01.501773
264	12	2	6	265	stable	8	200	65	vs	blue	red	red	blue	right	left	0.30000000000000004	0.7	2	10	0.6000000000000001	7.0	0	1	0.7	0.30000000000000004	10	2	7.0	0.6000000000000001	valid	0.3999211160044069	53248	0	1	1	51200	0	51200	0	51200	0	0.7	51200	blue	red	1	0	ml	2.7.3	lorasick	sub-12_ses-02_task-ml_proj-lorasick_2021-03-09-16-48-01.501773
265	12	2	6	266	stable	8	200	66	vs	blue	red	red	blue	right	left	0.30000000000000004	0.7	6	4	1.8000000000000005	2.8	0	1	0.7	0.30000000000000004	4	6	2.8	1.8000000000000005	valid	0.4832151350055938	51200	0	0	2	51200	1	51200	1	53248	0	0.7	51200	blue	red	0	4	ml	2.7.3	lorasick	sub-12_ses-02_task-ml_proj-lorasick_2021-03-09-16-48-01.501773
266	12	2	6	267	stable	8	200	67	vs	red	blue	red	blue	left	right	0.30000000000000004	0.7	2	6	0.6000000000000001	4.199999999999998	1	0	0.30000000000000004	0.7	2	6	0.6000000000000001	4.199999999999998	invalid	0.4665700199984713	53248	0	1	2	53248	1	53248	1	53248	1	0.7	53248	blue	red	1	0	ml	2.7.3	lorasick	sub-12_ses-02_task-ml_proj-lorasick_2021-03-09-16-48-01.501773
267	12	2	6	268	stable	8	200	68	vs	blue	red	red	blue	right	left	0.30000000000000004	0.7	2	6	0.6000000000000001	4.199999999999998	1	0	0.7	0.30000000000000004	6	2	4.199999999999998	0.6000000000000001	invalid	0.383250341998064	51200	0	0	2	51200	1	51200	1	51200	1	0.7	51200	blue	red	1	0	ml	2.7.3	lorasick	sub-12_ses-02_task-ml_proj-lorasick_2021-03-09-16-48-01.501773
268	12	2	6	269	stable	8	200	69	vs	red	blue	red	blue	left	right	0.30000000000000004	0.7	2	4	0.6000000000000001	2.8	1	0	0.30000000000000004	0.7	2	4	0.6000000000000001	2.8	invalid	0.41658235100476304	53248	0	1	2	53248	1	53248	1	53248	1	0.7	53248	blue	red	1	0	ml	2.7.3	lorasick	sub-12_ses-02_task-ml_proj-lorasick_2021-03-09-16-48-01.501773
269	12	2	6	270	stable	8	200	70	vs	blue	red	red	blue	right	left	0.30000000000000004	0.7	10	2	3.0000000000000004	1.4	1	0	0.7	0.30000000000000004	2	10	1.4	3.0000000000000004	invalid	0.5665408640052192	53248	0	1	1	53248	1	51200	0	53248	1	0.7	51200	blue	red	0	10	ml	2.7.3	lorasick	sub-12_ses-02_task-ml_proj-lorasick_2021-03-09-16-48-01.501773
270	12	2	6	271	stable	8	200	71	vs	blue	red	red	blue	right	left	0.30000000000000004	0.7	6	2	1.8000000000000005	1.4	0	1	0.7	0.30000000000000004	2	6	1.4	1.8000000000000005	valid	0.3832599289962673	53248	0	1	1	53248	1	51200	0	53248	1	0.7	51200	blue	red	0	0	ml	2.7.3	lorasick	sub-12_ses-02_task-ml_proj-lorasick_2021-03-09-16-48-01.501773
271	12	2	6	272	stable	8	200	72	vs	red	blue	red	blue	left	right	0.30000000000000004	0.7	4	6	1.2000000000000002	4.199999999999998	1	0	0.30000000000000004	0.7	4	6	1.2000000000000002	4.199999999999998	invalid	0.899767390001216	51200	0	0	1	53248	0	53248	0	53248	0	0.7	53248	blue	red	1	4	ml	2.7.3	lorasick	sub-12_ses-02_task-ml_proj-lorasick_2021-03-09-16-48-01.501773
272	12	2	6	273	stable	8	200	73	vs	red	blue	red	blue	left	right	0.30000000000000004	0.7	2	6	0.6000000000000001	4.199999999999998	0	1	0.30000000000000004	0.7	2	6	0.6000000000000001	4.199999999999998	valid	0.3665902349966928	51200	0	0	1	53248	0	53248	0	53248	0	0.7	53248	blue	red	1	0	ml	2.7.3	lorasick	sub-12_ses-02_task-ml_proj-lorasick_2021-03-09-16-48-01.501773
273	12	2	6	274	stable	8	200	74	vs	blue	red	red	blue	right	left	0.30000000000000004	0.7	2	6	0.6000000000000001	4.199999999999998	0	1	0.7	0.30000000000000004	6	2	4.199999999999998	0.6000000000000001	valid	0.5665294949940289	51200	0	0	2	51200	1	51200	1	51200	1	0.7	51200	blue	red	1	6	ml	2.7.3	lorasick	sub-12_ses-02_task-ml_proj-lorasick_2021-03-09-16-48-01.501773
274	12	2	6	275	stable	8	200	75	vs	blue	red	red	blue	right	left	0.30000000000000004	0.7	6	4	1.8000000000000005	2.8	0	1	0.7	0.30000000000000004	4	6	2.8	1.8000000000000005	valid	0.399911405002058	51200	0	0	2	51200	1	51200	1	53248	0	0.7	51200	blue	red	0	4	ml	2.7.3	lorasick	sub-12_ses-02_task-ml_proj-lorasick_2021-03-09-16-48-01.501773
275	12	2	6	276	stable	8	200	76	vs	blue	red	red	blue	right	left	0.30000000000000004	0.7	6	6	1.8000000000000005	4.199999999999998	1	0	0.7	0.30000000000000004	6	6	4.199999999999998	1.8000000000000005	invalid	0.4998805399955018	51200	0	0	2	51200	1	51200	1	53248	0	0.7	51200	blue	red	1	0	ml	2.7.3	lorasick	sub-12_ses-02_task-ml_proj-lorasick_2021-03-09-16-48-01.501773
276	12	2	6	277	stable	8	200	77	vs	blue	red	red	blue	right	left	0.30000000000000004	0.7	4	2	1.2000000000000002	1.4	0	1	0.7	0.30000000000000004	2	4	1.4	1.2000000000000002	valid	0.5498849459982011	53248	0	1	1	51200	0	51200	0	53248	1	0.7	51200	blue	red	0	0	ml	2.7.3	lorasick	sub-12_ses-02_task-ml_proj-lorasick_2021-03-09-16-48-01.501773
277	12	2	6	278	stable	8	200	78	vs	red	blue	red	blue	left	right	0.30000000000000004	0.7	4	2	1.2000000000000002	1.4	0	1	0.30000000000000004	0.7	4	2	1.2000000000000002	1.4	valid	0.4499077170039527	51200	0	0	1	53248	0	53248	0	51200	1	0.7	53248	blue	red	0	0	ml	2.7.3	lorasick	sub-12_ses-02_task-ml_proj-lorasick_2021-03-09-16-48-01.501773
278	12	2	6	279	stable	8	200	79	vs	blue	red	red	blue	right	left	0.30000000000000004	0.7	4	2	1.2000000000000002	1.4	0	1	0.7	0.30000000000000004	2	4	1.4	1.2000000000000002	valid	0.4832193119946169	51200	0	0	2	51200	1	51200	1	53248	0	0.7	51200	blue	red	0	2	ml	2.7.3	lorasick	sub-12_ses-02_task-ml_proj-lorasick_2021-03-09-16-48-01.501773
279	12	2	6	280	stable	8	200	80	vs	blue	red	red	blue	right	left	0.30000000000000004	0.7	6	4	1.8000000000000005	2.8	1	0	0.7	0.30000000000000004	4	6	2.8	1.8000000000000005	invalid	0.4165726639985223	51200	0	0	2	51200	1	51200	1	53248	0	0.7	51200	blue	red	0	0	ml	2.7.3	lorasick	sub-12_ses-02_task-ml_proj-lorasick_2021-03-09-16-48-01.501773
280	12	2	6	281	stable	8	200	81	vs	red	blue	red	blue	left	right	0.30000000000000004	0.7	2	4	0.6000000000000001	2.8	0	1	0.30000000000000004	0.7	2	4	0.6000000000000001	2.8	valid	0.566537596998387	53248	0	1	2	53248	1	53248	1	53248	1	0.7	53248	blue	red	1	4	ml	2.7.3	lorasick	sub-12_ses-02_task-ml_proj-lorasick_2021-03-09-16-48-01.501773
281	12	2	6	282	stable	8	200	82	vs	blue	red	red	blue	right	left	0.30000000000000004	0.7	6	2	1.8000000000000005	1.4	0	1	0.7	0.30000000000000004	2	6	1.4	1.8000000000000005	valid	0.466558398999041	51200	0	0	2	53248	0	51200	1	53248	0	0.7	51200	blue	red	0	2	ml	2.7.3	lorasick	sub-12_ses-02_task-ml_proj-lorasick_2021-03-09-16-48-01.501773
282	12	2	6	283	stable	8	200	83	vs	red	blue	red	blue	left	right	0.30000000000000004	0.7	2	4	0.6000000000000001	2.8	1	0	0.30000000000000004	0.7	2	4	0.6000000000000001	2.8	invalid	0.4165721859972109	51200	0	0	1	53248	0	53248	0	53248	0	0.7	53248	blue	red	1	2	ml	2.7.3	lorasick	sub-12_ses-02_task-ml_proj-lorasick_2021-03-09-16-48-01.501773
283	12	2	6	284	stable	8	200	84	vs	blue	red	red	blue	right	left	0.30000000000000004	0.7	4	6	1.2000000000000002	4.199999999999998	0	1	0.7	0.30000000000000004	6	4	4.199999999999998	1.2000000000000002	valid	0.7997981759981485	51200	0	0	2	51200	1	51200	1	51200	1	0.7	51200	blue	red	1	6	ml	2.7.3	lorasick	sub-12_ses-02_task-ml_proj-lorasick_2021-03-09-16-48-01.501773
284	12	2	6	285	stable	8	200	85	vs	red	blue	red	blue	left	right	0.30000000000000004	0.7	2	2	0.6000000000000001	1.4	0	1	0.30000000000000004	0.7	2	2	0.6000000000000001	1.4	valid	0.5165548980003223	53248	0	1	2	53248	1	53248	1	53248	1	0.7	53248	blue	red	0	2	ml	2.7.3	lorasick	sub-12_ses-02_task-ml_proj-lorasick_2021-03-09-16-48-01.501773
285	12	2	6	286	stable	8	200	86	vs	red	blue	red	blue	left	right	0.30000000000000004	0.7	4	2	1.2000000000000002	1.4	1	0	0.30000000000000004	0.7	4	2	1.2000000000000002	1.4	invalid	9.83460049610585e-05	51200	0	0	1	53248	0	53248	0	51200	1	0.7	53248	blue	red	0	4	ml	2.7.3	lorasick	sub-12_ses-02_task-ml_proj-lorasick_2021-03-09-16-48-01.501773
286	12	2	6	287	stable	8	200	87	vs	red	blue	red	blue	left	right	0.30000000000000004	0.7	2	10	0.6000000000000001	7.0	0	1	0.30000000000000004	0.7	2	10	0.6000000000000001	7.0	valid	1.3663060590042733	53248	0	1	2	53248	1	53248	1	53248	1	0.7	53248	blue	red	1	10	ml	2.7.3	lorasick	sub-12_ses-02_task-ml_proj-lorasick_2021-03-09-16-48-01.501773
287	12	2	6	288	stable	8	200	88	vs	red	blue	red	blue	left	right	0.30000000000000004	0.7	10	2	3.0000000000000004	1.4	1	0	0.30000000000000004	0.7	10	2	3.0000000000000004	1.4	invalid	0.5998544519970892	51200	0	0	1	51200	1	53248	0	51200	1	0.7	53248	blue	red	0	10	ml	2.7.3	lorasick	sub-12_ses-02_task-ml_proj-lorasick_2021-03-09-16-48-01.501773
288	12	2	6	289	stable	8	200	89	vs	blue	red	red	blue	right	left	0.30000000000000004	0.7	6	6	1.8000000000000005	4.199999999999998	0	1	0.7	0.30000000000000004	6	6	4.199999999999998	1.8000000000000005	valid	0.4832200640012161	51200	0	0	2	51200	1	51200	1	53248	0	0.7	51200	blue	red	1	6	ml	2.7.3	lorasick	sub-12_ses-02_task-ml_proj-lorasick_2021-03-09-16-48-01.501773
289	12	2	6	290	stable	8	200	90	vs	red	blue	red	blue	left	right	0.30000000000000004	0.7	10	2	3.0000000000000004	1.4	0	1	0.30000000000000004	0.7	10	2	3.0000000000000004	1.4	valid	0.5831914470036281	51200	0	0	1	51200	1	53248	0	51200	1	0.7	53248	blue	red	0	0	ml	2.7.3	lorasick	sub-12_ses-02_task-ml_proj-lorasick_2021-03-09-16-48-01.501773
