Unnamed: 0	sub_id	ses_id	block_no	trial_no	phase_type	phase_no	phase_length	trialInPhase_no	phase_type_order	color_left	color_right	color1	color2	position1	position2	prob1	prob2	mag1	mag2	ev1	ev2	outcome1	outcome2	prob_left	prob_right	mag_left	mag_right	ev_left	ev_right	reward_validity	resp_time	resp_key	timeout	choice_side	choice	ev_corr_resp	ev_correct	prob_corr_resp	prob_correct	mag_corr_resp	mag_correct	high_prob	high_prob_side	high_prob_color	low_prob_color	no_brain	reward	name	version	proj_id	logFileID
0	3	2	1	1	volatile	1	40	1	vs	green	brown	green	brown	left	right	0.7	0.30000000000000004	2	2	1.4	0.6000000000000001	0	1	0.7	0.30000000000000004	2	2	1.4	0.6000000000000001	invalid	1.01638287699825	51200	0	0	1	51200	1	51200	1	53248	0	0.7	51200	green	brown	1	0	ml	2.7.3	lorasick	sub-03_ses-02_task-ml_proj-lorasick_2020-10-27-14-00-09.846491
1	3	2	1	2	volatile	1	40	2	vs	green	brown	green	brown	left	right	0.7	0.30000000000000004	2	10	1.4	3.0000000000000004	1	0	0.7	0.30000000000000004	2	10	1.4	3.0000000000000004	valid	0.6165223909993074	53248	0	1	2	53248	1	51200	0	53248	1	0.7	51200	green	brown	0	0	ml	2.7.3	lorasick	sub-03_ses-02_task-ml_proj-lorasick_2020-10-27-14-00-09.846491
2	3	2	1	3	volatile	1	40	3	vs	green	brown	green	brown	left	right	0.7	0.30000000000000004	2	6	1.4	1.8000000000000005	1	0	0.7	0.30000000000000004	2	6	1.4	1.8000000000000005	valid	0.4665654939999513	53248	0	1	2	53248	1	51200	0	53248	1	0.7	51200	green	brown	0	0	ml	2.7.3	lorasick	sub-03_ses-02_task-ml_proj-lorasick_2020-10-27-14-00-09.846491
3	3	2	1	4	volatile	1	40	4	vs	green	brown	green	brown	left	right	0.7	0.30000000000000004	4	6	2.8	1.8000000000000005	1	0	0.7	0.30000000000000004	4	6	2.8	1.8000000000000005	valid	0.5498621619990445	51200	0	0	1	51200	1	51200	1	53248	0	0.7	51200	green	brown	0	4	ml	2.7.3	lorasick	sub-03_ses-02_task-ml_proj-lorasick_2020-10-27-14-00-09.846491
4	3	2	1	5	volatile	1	40	5	vs	brown	green	green	brown	right	left	0.7	0.30000000000000004	2	4	1.4	1.2000000000000002	1	0	0.30000000000000004	0.7	4	2	1.2000000000000002	1.4	valid	0.7997853069973644	51200	0	0	2	53248	0	53248	0	51200	1	0.7	53248	green	brown	0	0	ml	2.7.3	lorasick	sub-03_ses-02_task-ml_proj-lorasick_2020-10-27-14-00-09.846491
5	3	2	1	6	volatile	1	40	6	vs	brown	green	green	brown	right	left	0.7	0.30000000000000004	6	2	4.199999999999998	0.6000000000000001	0	1	0.30000000000000004	0.7	2	6	0.6000000000000001	4.199999999999998	invalid	0.4332498940020741	53248	0	1	1	53248	1	53248	1	53248	1	0.7	53248	green	brown	1	0	ml	2.7.3	lorasick	sub-03_ses-02_task-ml_proj-lorasick_2020-10-27-14-00-09.846491
6	3	2	1	7	volatile	1	40	7	vs	green	brown	green	brown	left	right	0.7	0.30000000000000004	10	2	7.0	0.6000000000000001	1	0	0.7	0.30000000000000004	10	2	7.0	0.6000000000000001	valid	0.4165702050013351	51200	0	0	1	51200	1	51200	1	51200	1	0.7	51200	green	brown	1	10	ml	2.7.3	lorasick	sub-03_ses-02_task-ml_proj-lorasick_2020-10-27-14-00-09.846491
7	3	2	1	8	volatile	1	40	8	vs	brown	green	green	brown	right	left	0.7	0.30000000000000004	4	6	2.8	1.8000000000000005	1	0	0.30000000000000004	0.7	6	4	1.8000000000000005	2.8	valid	0.5332126979992609	53248	0	1	1	53248	1	53248	1	51200	0	0.7	53248	green	brown	0	4	ml	2.7.3	lorasick	sub-03_ses-02_task-ml_proj-lorasick_2020-10-27-14-00-09.846491
8	3	2	1	9	volatile	1	40	9	vs	brown	green	green	brown	right	left	0.7	0.30000000000000004	2	6	1.4	1.8000000000000005	1	0	0.30000000000000004	0.7	6	2	1.8000000000000005	1.4	valid	0.5665289819989994	53248	0	1	1	51200	0	53248	1	51200	0	0.7	53248	green	brown	0	2	ml	2.7.3	lorasick	sub-03_ses-02_task-ml_proj-lorasick_2020-10-27-14-00-09.846491
9	3	2	1	10	volatile	1	40	10	vs	brown	green	green	brown	right	left	0.7	0.30000000000000004	6	6	4.199999999999998	1.8000000000000005	1	0	0.30000000000000004	0.7	6	6	1.8000000000000005	4.199999999999998	valid	0.39991718599776505	53248	0	1	1	53248	1	53248	1	53248	1	0.7	53248	green	brown	0	6	ml	2.7.3	lorasick	sub-03_ses-02_task-ml_proj-lorasick_2020-10-27-14-00-09.846491
10	3	2	1	11	volatile	1	40	11	vs	green	brown	green	brown	left	right	0.7	0.30000000000000004	2	4	1.4	1.2000000000000002	1	0	0.7	0.30000000000000004	2	4	1.4	1.2000000000000002	valid	0.4998764039992238	51200	0	0	1	51200	1	51200	1	53248	0	0.7	51200	green	brown	0	2	ml	2.7.3	lorasick	sub-03_ses-02_task-ml_proj-lorasick_2020-10-27-14-00-09.846491
11	3	2	1	12	volatile	1	40	12	vs	brown	green	green	brown	right	left	0.7	0.30000000000000004	2	6	1.4	1.8000000000000005	0	1	0.30000000000000004	0.7	6	2	1.8000000000000005	1.4	invalid	0.5332041189976735	51200	0	0	2	51200	1	53248	0	51200	1	0.7	53248	green	brown	0	6	ml	2.7.3	lorasick	sub-03_ses-02_task-ml_proj-lorasick_2020-10-27-14-00-09.846491
12	3	2	1	13	volatile	1	40	13	vs	green	brown	green	brown	left	right	0.7	0.30000000000000004	6	6	4.199999999999998	1.8000000000000005	0	1	0.7	0.30000000000000004	6	6	4.199999999999998	1.8000000000000005	invalid	0.4832197260002431	51200	0	0	1	51200	1	51200	1	53248	0	0.7	51200	green	brown	1	0	ml	2.7.3	lorasick	sub-03_ses-02_task-ml_proj-lorasick_2020-10-27-14-00-09.846491
13	3	2	1	14	volatile	1	40	14	vs	brown	green	green	brown	right	left	0.7	0.30000000000000004	4	6	2.8	1.8000000000000005	1	0	0.30000000000000004	0.7	6	4	1.8000000000000005	2.8	valid	0.516549120999116	53248	0	1	1	53248	1	53248	1	51200	0	0.7	53248	green	brown	0	4	ml	2.7.3	lorasick	sub-03_ses-02_task-ml_proj-lorasick_2020-10-27-14-00-09.846491
14	3	2	1	15	volatile	1	40	15	vs	green	brown	green	brown	left	right	0.7	0.30000000000000004	4	6	2.8	1.8000000000000005	1	0	0.7	0.30000000000000004	4	6	2.8	1.8000000000000005	valid	0.4998882680010866	53248	0	1	2	51200	0	51200	0	53248	1	0.7	51200	green	brown	0	0	ml	2.7.3	lorasick	sub-03_ses-02_task-ml_proj-lorasick_2020-10-27-14-00-09.846491
15	3	2	1	16	volatile	1	40	16	vs	green	brown	green	brown	left	right	0.7	0.30000000000000004	10	2	7.0	0.6000000000000001	0	1	0.7	0.30000000000000004	10	2	7.0	0.6000000000000001	invalid	0.5498596590005036	51200	0	0	1	51200	1	51200	1	51200	1	0.7	51200	green	brown	1	0	ml	2.7.3	lorasick	sub-03_ses-02_task-ml_proj-lorasick_2020-10-27-14-00-09.846491
16	3	2	1	17	volatile	1	40	17	vs	brown	green	green	brown	right	left	0.7	0.30000000000000004	10	2	7.0	0.6000000000000001	0	1	0.30000000000000004	0.7	2	10	0.6000000000000001	7.0	invalid	0.4665614510013256	53248	0	1	1	53248	1	53248	1	53248	1	0.7	53248	green	brown	1	0	ml	2.7.3	lorasick	sub-03_ses-02_task-ml_proj-lorasick_2020-10-27-14-00-09.846491
17	3	2	1	18	volatile	1	40	18	vs	brown	green	green	brown	right	left	0.7	0.30000000000000004	6	6	4.199999999999998	1.8000000000000005	1	0	0.30000000000000004	0.7	6	6	1.8000000000000005	4.199999999999998	valid	0.4332319620007184	51200	0	0	2	53248	0	53248	0	53248	0	0.7	53248	green	brown	0	0	ml	2.7.3	lorasick	sub-03_ses-02_task-ml_proj-lorasick_2020-10-27-14-00-09.846491
18	3	2	1	19	volatile	1	40	19	vs	brown	green	green	brown	right	left	0.7	0.30000000000000004	4	6	2.8	1.8000000000000005	1	0	0.30000000000000004	0.7	6	4	1.8000000000000005	2.8	valid	0.3832430289985496	51200	0	0	2	53248	0	53248	0	51200	1	0.7	53248	green	brown	0	0	ml	2.7.3	lorasick	sub-03_ses-02_task-ml_proj-lorasick_2020-10-27-14-00-09.846491
19	3	2	1	20	volatile	1	40	20	vs	green	brown	green	brown	left	right	0.7	0.30000000000000004	2	2	1.4	0.6000000000000001	1	0	0.7	0.30000000000000004	2	2	1.4	0.6000000000000001	valid	0.5831840669998201	51200	0	0	1	51200	1	51200	1	53248	0	0.7	51200	green	brown	1	2	ml	2.7.3	lorasick	sub-03_ses-02_task-ml_proj-lorasick_2020-10-27-14-00-09.846491
20	3	2	1	21	volatile	1	40	21	vs	brown	green	green	brown	right	left	0.7	0.30000000000000004	10	2	7.0	0.6000000000000001	1	0	0.30000000000000004	0.7	2	10	0.6000000000000001	7.0	valid	0.399920330997702	53248	0	1	1	53248	1	53248	1	53248	1	0.7	53248	green	brown	1	10	ml	2.7.3	lorasick	sub-03_ses-02_task-ml_proj-lorasick_2020-10-27-14-00-09.846491
21	3	2	1	22	volatile	1	40	22	vs	green	brown	green	brown	left	right	0.7	0.30000000000000004	10	2	7.0	0.6000000000000001	1	0	0.7	0.30000000000000004	10	2	7.0	0.6000000000000001	valid	0.36658167699715705	51200	0	0	1	51200	1	51200	1	51200	1	0.7	51200	green	brown	1	10	ml	2.7.3	lorasick	sub-03_ses-02_task-ml_proj-lorasick_2020-10-27-14-00-09.846491
22	3	2	1	23	volatile	1	40	23	vs	green	brown	green	brown	left	right	0.7	0.30000000000000004	2	6	1.4	1.8000000000000005	1	0	0.7	0.30000000000000004	2	6	1.4	1.8000000000000005	valid	0.4832210679996933	53248	0	1	2	53248	1	51200	0	53248	1	0.7	51200	green	brown	0	0	ml	2.7.3	lorasick	sub-03_ses-02_task-ml_proj-lorasick_2020-10-27-14-00-09.846491
23	3	2	1	24	volatile	1	40	24	vs	green	brown	green	brown	left	right	0.7	0.30000000000000004	2	4	1.4	1.2000000000000002	0	1	0.7	0.30000000000000004	2	4	1.4	1.2000000000000002	invalid	0.3499236250027025	51200	0	0	1	51200	1	51200	1	53248	0	0.7	51200	green	brown	0	0	ml	2.7.3	lorasick	sub-03_ses-02_task-ml_proj-lorasick_2020-10-27-14-00-09.846491
24	3	2	1	25	volatile	1	40	25	vs	brown	green	green	brown	right	left	0.7	0.30000000000000004	4	2	2.8	0.6000000000000001	1	0	0.30000000000000004	0.7	2	4	0.6000000000000001	2.8	valid	0.3999193719973846	53248	0	1	1	53248	1	53248	1	53248	1	0.7	53248	green	brown	1	4	ml	2.7.3	lorasick	sub-03_ses-02_task-ml_proj-lorasick_2020-10-27-14-00-09.846491
25	3	2	1	26	volatile	1	40	26	vs	green	brown	green	brown	left	right	0.7	0.30000000000000004	6	2	4.199999999999998	0.6000000000000001	1	0	0.7	0.30000000000000004	6	2	4.199999999999998	0.6000000000000001	valid	0.3665810899983626	51200	0	0	1	51200	1	51200	1	51200	1	0.7	51200	green	brown	1	6	ml	2.7.3	lorasick	sub-03_ses-02_task-ml_proj-lorasick_2020-10-27-14-00-09.846491
26	3	2	1	27	volatile	1	40	27	vs	green	brown	green	brown	left	right	0.7	0.30000000000000004	4	2	2.8	0.6000000000000001	1	0	0.7	0.30000000000000004	4	2	2.8	0.6000000000000001	valid	0.38325701899884734	51200	0	0	1	51200	1	51200	1	51200	1	0.7	51200	green	brown	1	4	ml	2.7.3	lorasick	sub-03_ses-02_task-ml_proj-lorasick_2020-10-27-14-00-09.846491
27	3	2	1	28	volatile	1	40	28	vs	brown	green	green	brown	right	left	0.7	0.30000000000000004	2	4	1.4	1.2000000000000002	0	1	0.30000000000000004	0.7	4	2	1.2000000000000002	1.4	invalid	0.366594505001558	53248	0	1	1	53248	1	53248	1	51200	0	0.7	53248	green	brown	0	0	ml	2.7.3	lorasick	sub-03_ses-02_task-ml_proj-lorasick_2020-10-27-14-00-09.846491
28	3	2	1	29	volatile	1	40	29	vs	brown	green	green	brown	right	left	0.7	0.30000000000000004	2	6	1.4	1.8000000000000005	1	0	0.30000000000000004	0.7	6	2	1.8000000000000005	1.4	valid	0.4998776960019313	51200	0	0	2	51200	1	53248	0	51200	1	0.7	53248	green	brown	0	0	ml	2.7.3	lorasick	sub-03_ses-02_task-ml_proj-lorasick_2020-10-27-14-00-09.846491
29	3	2	1	30	volatile	1	40	30	vs	brown	green	green	brown	right	left	0.7	0.30000000000000004	4	2	2.8	0.6000000000000001	0	1	0.30000000000000004	0.7	2	4	0.6000000000000001	2.8	invalid	0.4499094290003995	53248	0	1	1	53248	1	53248	1	53248	1	0.7	53248	green	brown	1	0	ml	2.7.3	lorasick	sub-03_ses-02_task-ml_proj-lorasick_2020-10-27-14-00-09.846491
30	3	2	1	31	volatile	1	40	31	vs	brown	green	green	brown	right	left	0.7	0.30000000000000004	4	6	2.8	1.8000000000000005	0	1	0.30000000000000004	0.7	6	4	1.8000000000000005	2.8	invalid	0.5165521779999835	53248	0	1	1	53248	1	53248	1	51200	0	0.7	53248	green	brown	0	0	ml	2.7.3	lorasick	sub-03_ses-02_task-ml_proj-lorasick_2020-10-27-14-00-09.846491
31	3	2	1	32	volatile	1	40	32	vs	green	brown	green	brown	left	right	0.7	0.30000000000000004	10	2	7.0	0.6000000000000001	1	0	0.7	0.30000000000000004	10	2	7.0	0.6000000000000001	valid	0.48322377599834004	51200	0	0	1	51200	1	51200	1	51200	1	0.7	51200	green	brown	1	10	ml	2.7.3	lorasick	sub-03_ses-02_task-ml_proj-lorasick_2020-10-27-14-00-09.846491
32	3	2	1	33	volatile	1	40	33	vs	green	brown	green	brown	left	right	0.7	0.30000000000000004	4	6	2.8	1.8000000000000005	1	0	0.7	0.30000000000000004	4	6	2.8	1.8000000000000005	valid	0.5998591269999451	53248	0	1	2	51200	0	51200	0	53248	1	0.7	51200	green	brown	0	0	ml	2.7.3	lorasick	sub-03_ses-02_task-ml_proj-lorasick_2020-10-27-14-00-09.846491
33	3	2	1	34	volatile	1	40	34	vs	brown	green	green	brown	right	left	0.7	0.30000000000000004	6	6	4.199999999999998	1.8000000000000005	1	0	0.30000000000000004	0.7	6	6	1.8000000000000005	4.199999999999998	valid	0.4832248120001168	53248	0	1	1	53248	1	53248	1	53248	1	0.7	53248	green	brown	0	6	ml	2.7.3	lorasick	sub-03_ses-02_task-ml_proj-lorasick_2020-10-27-14-00-09.846491
34	3	2	1	35	volatile	1	40	35	vs	green	brown	green	brown	left	right	0.7	0.30000000000000004	2	2	1.4	0.6000000000000001	0	1	0.7	0.30000000000000004	2	2	1.4	0.6000000000000001	invalid	0.3332615830004215	51200	0	0	1	51200	1	51200	1	53248	0	0.7	51200	green	brown	1	0	ml	2.7.3	lorasick	sub-03_ses-02_task-ml_proj-lorasick_2020-10-27-14-00-09.846491
35	3	2	1	36	volatile	1	40	36	vs	green	brown	green	brown	left	right	0.7	0.30000000000000004	4	2	2.8	0.6000000000000001	0	1	0.7	0.30000000000000004	4	2	2.8	0.6000000000000001	invalid	0.3832426310000301	51200	0	0	1	51200	1	51200	1	51200	1	0.7	51200	green	brown	1	0	ml	2.7.3	lorasick	sub-03_ses-02_task-ml_proj-lorasick_2020-10-27-14-00-09.846491
36	3	2	1	37	volatile	1	40	37	vs	brown	green	green	brown	right	left	0.7	0.30000000000000004	6	4	4.199999999999998	1.2000000000000002	1	0	0.30000000000000004	0.7	4	6	1.2000000000000002	4.199999999999998	valid	0.3665968259992951	53248	0	1	1	53248	1	53248	1	53248	1	0.7	53248	green	brown	1	6	ml	2.7.3	lorasick	sub-03_ses-02_task-ml_proj-lorasick_2020-10-27-14-00-09.846491
37	3	2	1	38	volatile	1	40	38	vs	brown	green	green	brown	right	left	0.7	0.30000000000000004	10	2	7.0	0.6000000000000001	1	0	0.30000000000000004	0.7	2	10	0.6000000000000001	7.0	valid	0.34993044000293594	53248	0	1	1	53248	1	53248	1	53248	1	0.7	53248	green	brown	1	10	ml	2.7.3	lorasick	sub-03_ses-02_task-ml_proj-lorasick_2020-10-27-14-00-09.846491
38	3	2	1	39	volatile	1	40	39	vs	green	brown	green	brown	left	right	0.7	0.30000000000000004	2	6	1.4	1.8000000000000005	1	0	0.7	0.30000000000000004	2	6	1.4	1.8000000000000005	valid	0.4165749749990937	51200	0	0	1	53248	0	51200	1	53248	0	0.7	51200	green	brown	0	2	ml	2.7.3	lorasick	sub-03_ses-02_task-ml_proj-lorasick_2020-10-27-14-00-09.846491
39	3	2	1	40	volatile	1	40	40	vs	brown	green	green	brown	right	left	0.7	0.30000000000000004	2	2	1.4	0.6000000000000001	1	0	0.30000000000000004	0.7	2	2	0.6000000000000001	1.4	valid	0.3999203259991191	53248	0	1	1	53248	1	53248	1	53248	1	0.7	53248	green	brown	0	2	ml	2.7.3	lorasick	sub-03_ses-02_task-ml_proj-lorasick_2020-10-27-14-00-09.846491
40	3	2	1	41	volatile	2	20	1	vs	brown	green	green	brown	right	left	0.30000000000000004	0.7	2	2	0.6000000000000001	1.4	0	1	0.7	0.30000000000000004	2	2	1.4	0.6000000000000001	valid	0.4832286719974945	53248	0	1	1	51200	0	51200	0	53248	1	0.7	51200	brown	green	1	0	ml	2.7.3	lorasick	sub-03_ses-02_task-ml_proj-lorasick_2020-10-27-14-00-09.846491
41	3	2	1	42	volatile	2	20	2	vs	brown	green	green	brown	right	left	0.30000000000000004	0.7	6	4	1.8000000000000005	2.8	1	0	0.7	0.30000000000000004	4	6	2.8	1.8000000000000005	invalid	0.31661054200230865	53248	0	1	1	51200	0	51200	0	53248	1	0.7	51200	brown	green	0	6	ml	2.7.3	lorasick	sub-03_ses-02_task-ml_proj-lorasick_2020-10-27-14-00-09.846491
42	3	2	1	43	volatile	2	20	3	vs	green	brown	green	brown	left	right	0.30000000000000004	0.7	6	2	1.8000000000000005	1.4	0	1	0.30000000000000004	0.7	6	2	1.8000000000000005	1.4	valid	0.366584661998786	51200	0	0	1	51200	1	53248	0	51200	1	0.7	53248	brown	green	0	0	ml	2.7.3	lorasick	sub-03_ses-02_task-ml_proj-lorasick_2020-10-27-14-00-09.846491
43	3	2	1	44	volatile	2	20	4	vs	brown	green	green	brown	right	left	0.30000000000000004	0.7	4	6	1.2000000000000002	4.199999999999998	0	1	0.7	0.30000000000000004	6	4	4.199999999999998	1.2000000000000002	valid	0.3665928789996542	53248	0	1	1	51200	0	51200	0	51200	0	0.7	51200	brown	green	1	0	ml	2.7.3	lorasick	sub-03_ses-02_task-ml_proj-lorasick_2020-10-27-14-00-09.846491
44	3	2	1	45	volatile	2	20	5	vs	brown	green	green	brown	right	left	0.30000000000000004	0.7	4	2	1.2000000000000002	1.4	1	0	0.7	0.30000000000000004	2	4	1.4	1.2000000000000002	invalid	0.3499321299968869	53248	0	1	1	51200	0	51200	0	53248	1	0.7	51200	brown	green	0	4	ml	2.7.3	lorasick	sub-03_ses-02_task-ml_proj-lorasick_2020-10-27-14-00-09.846491
45	3	2	1	46	volatile	2	20	6	vs	brown	green	green	brown	right	left	0.30000000000000004	0.7	6	2	1.8000000000000005	1.4	0	1	0.7	0.30000000000000004	2	6	1.4	1.8000000000000005	valid	0.3332703029991535	53248	0	1	1	53248	1	51200	0	53248	1	0.7	51200	brown	green	0	0	ml	2.7.3	lorasick	sub-03_ses-02_task-ml_proj-lorasick_2020-10-27-14-00-09.846491
46	3	2	1	47	volatile	2	20	7	vs	green	brown	green	brown	left	right	0.30000000000000004	0.7	2	10	0.6000000000000001	7.0	1	0	0.30000000000000004	0.7	2	10	0.6000000000000001	7.0	invalid	0.4665655989992956	53248	0	1	2	53248	1	53248	1	53248	1	0.7	53248	brown	green	1	0	ml	2.7.3	lorasick	sub-03_ses-02_task-ml_proj-lorasick_2020-10-27-14-00-09.846491
47	3	2	1	48	volatile	2	20	8	vs	brown	green	green	brown	right	left	0.30000000000000004	0.7	6	6	1.8000000000000005	4.199999999999998	0	1	0.7	0.30000000000000004	6	6	4.199999999999998	1.8000000000000005	valid	0.38324715099952295	51200	0	0	2	51200	1	51200	1	53248	0	0.7	51200	brown	green	1	6	ml	2.7.3	lorasick	sub-03_ses-02_task-ml_proj-lorasick_2020-10-27-14-00-09.846491
48	3	2	1	49	volatile	2	20	9	vs	brown	green	green	brown	right	left	0.30000000000000004	0.7	2	6	0.6000000000000001	4.199999999999998	0	1	0.7	0.30000000000000004	6	2	4.199999999999998	0.6000000000000001	valid	0.5332012730032147	51200	0	0	2	51200	1	51200	1	51200	1	0.7	51200	brown	green	1	6	ml	2.7.3	lorasick	sub-03_ses-02_task-ml_proj-lorasick_2020-10-27-14-00-09.846491
49	3	2	1	50	volatile	2	20	10	vs	brown	green	green	brown	right	left	0.30000000000000004	0.7	4	6	1.2000000000000002	4.199999999999998	1	0	0.7	0.30000000000000004	6	4	4.199999999999998	1.2000000000000002	invalid	0.5498631660011597	51200	0	0	2	51200	1	51200	1	51200	1	0.7	51200	brown	green	1	0	ml	2.7.3	lorasick	sub-03_ses-02_task-ml_proj-lorasick_2020-10-27-14-00-09.846491
50	3	2	2	51	volatile	2	20	11	vs	brown	green	green	brown	right	left	0.30000000000000004	0.7	6	6	1.8000000000000005	4.199999999999998	0	1	0.7	0.30000000000000004	6	6	4.199999999999998	1.8000000000000005	valid	0.6665095200005453	53248	0	1	1	51200	0	51200	0	53248	1	0.7	51200	brown	green	1	0	ml	2.7.3	lorasick	sub-03_ses-02_task-ml_proj-lorasick_2020-10-27-14-00-09.846491
51	3	2	2	52	volatile	2	20	12	vs	green	brown	green	brown	left	right	0.30000000000000004	0.7	10	2	3.0000000000000004	1.4	0	1	0.30000000000000004	0.7	10	2	3.0000000000000004	1.4	valid	0.5665240350026579	51200	0	0	1	51200	1	53248	0	51200	1	0.7	53248	brown	green	0	0	ml	2.7.3	lorasick	sub-03_ses-02_task-ml_proj-lorasick_2020-10-27-14-00-09.846491
52	3	2	2	53	volatile	2	20	13	vs	green	brown	green	brown	left	right	0.30000000000000004	0.7	10	2	3.0000000000000004	1.4	0	1	0.30000000000000004	0.7	10	2	3.0000000000000004	1.4	valid	0.3832505850004964	51200	0	0	1	51200	1	53248	0	51200	1	0.7	53248	brown	green	0	0	ml	2.7.3	lorasick	sub-03_ses-02_task-ml_proj-lorasick_2020-10-27-14-00-09.846491
53	3	2	2	54	volatile	2	20	14	vs	brown	green	green	brown	right	left	0.30000000000000004	0.7	10	2	3.0000000000000004	1.4	0	1	0.7	0.30000000000000004	2	10	1.4	3.0000000000000004	valid	0.7831247039976006	51200	0	0	2	53248	0	51200	1	53248	0	0.7	51200	brown	green	0	2	ml	2.7.3	lorasick	sub-03_ses-02_task-ml_proj-lorasick_2020-10-27-14-00-09.846491
54	3	2	2	55	volatile	2	20	15	vs	green	brown	green	brown	left	right	0.30000000000000004	0.7	4	6	1.2000000000000002	4.199999999999998	1	0	0.30000000000000004	0.7	4	6	1.2000000000000002	4.199999999999998	invalid	0.5332128900008684	53248	0	1	2	53248	1	53248	1	53248	1	0.7	53248	brown	green	1	0	ml	2.7.3	lorasick	sub-03_ses-02_task-ml_proj-lorasick_2020-10-27-14-00-09.846491
55	3	2	2	56	volatile	2	20	16	vs	green	brown	green	brown	left	right	0.30000000000000004	0.7	4	2	1.2000000000000002	1.4	0	1	0.30000000000000004	0.7	4	2	1.2000000000000002	1.4	valid	0.6498396329989191	51200	0	0	1	53248	0	53248	0	51200	1	0.7	53248	brown	green	0	0	ml	2.7.3	lorasick	sub-03_ses-02_task-ml_proj-lorasick_2020-10-27-14-00-09.846491
56	3	2	2	57	volatile	2	20	17	vs	green	brown	green	brown	left	right	0.30000000000000004	0.7	2	2	0.6000000000000001	1.4	0	1	0.30000000000000004	0.7	2	2	0.6000000000000001	1.4	valid	0.7164840619989263	53248	0	1	2	53248	1	53248	1	53248	1	0.7	53248	brown	green	0	2	ml	2.7.3	lorasick	sub-03_ses-02_task-ml_proj-lorasick_2020-10-27-14-00-09.846491
57	3	2	2	58	volatile	2	20	18	vs	green	brown	green	brown	left	right	0.30000000000000004	0.7	2	6	0.6000000000000001	4.199999999999998	1	0	0.30000000000000004	0.7	2	6	0.6000000000000001	4.199999999999998	invalid	0.3832603509981709	53248	0	1	2	53248	1	53248	1	53248	1	0.7	53248	brown	green	1	0	ml	2.7.3	lorasick	sub-03_ses-02_task-ml_proj-lorasick_2020-10-27-14-00-09.846491
58	3	2	2	59	volatile	2	20	19	vs	green	brown	green	brown	left	right	0.30000000000000004	0.7	2	4	0.6000000000000001	2.8	0	1	0.30000000000000004	0.7	2	4	0.6000000000000001	2.8	valid	0.44990320799843175	53248	0	1	2	53248	1	53248	1	53248	1	0.7	53248	brown	green	1	4	ml	2.7.3	lorasick	sub-03_ses-02_task-ml_proj-lorasick_2020-10-27-14-00-09.846491
59	3	2	2	60	volatile	2	20	20	vs	green	brown	green	brown	left	right	0.30000000000000004	0.7	4	2	1.2000000000000002	1.4	0	1	0.30000000000000004	0.7	4	2	1.2000000000000002	1.4	valid	0.7831259340018732	51200	0	0	1	53248	0	53248	0	51200	1	0.7	53248	brown	green	0	0	ml	2.7.3	lorasick	sub-03_ses-02_task-ml_proj-lorasick_2020-10-27-14-00-09.846491
60	3	2	2	61	volatile	3	20	1	vs	green	brown	green	brown	left	right	0.7	0.30000000000000004	6	6	4.199999999999998	1.8000000000000005	1	0	0.7	0.30000000000000004	6	6	4.199999999999998	1.8000000000000005	valid	0.3832551439991221	53248	0	1	2	51200	0	51200	0	53248	1	0.7	51200	green	brown	1	0	ml	2.7.3	lorasick	sub-03_ses-02_task-ml_proj-lorasick_2020-10-27-14-00-09.846491
61	3	2	2	62	volatile	3	20	2	vs	green	brown	green	brown	left	right	0.7	0.30000000000000004	2	4	1.4	1.2000000000000002	1	0	0.7	0.30000000000000004	2	4	1.4	1.2000000000000002	valid	0.41658114999881946	53248	0	1	2	51200	0	51200	0	53248	1	0.7	51200	green	brown	0	0	ml	2.7.3	lorasick	sub-03_ses-02_task-ml_proj-lorasick_2020-10-27-14-00-09.846491
62	3	2	2	63	volatile	3	20	3	vs	brown	green	green	brown	right	left	0.7	0.30000000000000004	6	4	4.199999999999998	1.2000000000000002	1	0	0.30000000000000004	0.7	4	6	1.2000000000000002	4.199999999999998	valid	0.3832446720007283	51200	0	0	2	53248	0	53248	0	53248	0	0.7	53248	green	brown	1	0	ml	2.7.3	lorasick	sub-03_ses-02_task-ml_proj-lorasick_2020-10-27-14-00-09.846491
63	3	2	2	64	volatile	3	20	4	vs	brown	green	green	brown	right	left	0.7	0.30000000000000004	6	6	4.199999999999998	1.8000000000000005	1	0	0.30000000000000004	0.7	6	6	1.8000000000000005	4.199999999999998	valid	0.3832539239992912	53248	0	1	1	53248	1	53248	1	53248	1	0.7	53248	green	brown	0	6	ml	2.7.3	lorasick	sub-03_ses-02_task-ml_proj-lorasick_2020-10-27-14-00-09.846491
64	3	2	2	65	volatile	3	20	5	vs	green	brown	green	brown	left	right	0.7	0.30000000000000004	2	2	1.4	0.6000000000000001	1	0	0.7	0.30000000000000004	2	2	1.4	0.6000000000000001	valid	0.3665848540003935	51200	0	0	1	51200	1	51200	1	53248	0	0.7	51200	green	brown	1	2	ml	2.7.3	lorasick	sub-03_ses-02_task-ml_proj-lorasick_2020-10-27-14-00-09.846491
65	3	2	2	66	volatile	3	20	6	vs	brown	green	green	brown	right	left	0.7	0.30000000000000004	2	4	1.4	1.2000000000000002	0	1	0.30000000000000004	0.7	4	2	1.2000000000000002	1.4	invalid	0.5332119710001281	53248	0	1	1	53248	1	53248	1	51200	0	0.7	53248	green	brown	0	0	ml	2.7.3	lorasick	sub-03_ses-02_task-ml_proj-lorasick_2020-10-27-14-00-09.846491
66	3	2	2	67	volatile	3	20	7	vs	green	brown	green	brown	left	right	0.7	0.30000000000000004	4	6	2.8	1.8000000000000005	1	0	0.7	0.30000000000000004	4	6	2.8	1.8000000000000005	valid	0.36658229000022396	51200	0	0	1	51200	1	51200	1	53248	0	0.7	51200	green	brown	0	4	ml	2.7.3	lorasick	sub-03_ses-02_task-ml_proj-lorasick_2020-10-27-14-00-09.846491
67	3	2	2	68	volatile	3	20	8	vs	green	brown	green	brown	left	right	0.7	0.30000000000000004	4	2	2.8	0.6000000000000001	1	0	0.7	0.30000000000000004	4	2	2.8	0.6000000000000001	valid	0.4332229720021133	51200	0	0	1	51200	1	51200	1	51200	1	0.7	51200	green	brown	1	4	ml	2.7.3	lorasick	sub-03_ses-02_task-ml_proj-lorasick_2020-10-27-14-00-09.846491
68	3	2	2	69	volatile	3	20	9	vs	brown	green	green	brown	right	left	0.7	0.30000000000000004	4	6	2.8	1.8000000000000005	1	0	0.30000000000000004	0.7	6	4	1.8000000000000005	2.8	valid	0.3832553680003912	53248	0	1	1	53248	1	53248	1	51200	0	0.7	53248	green	brown	0	4	ml	2.7.3	lorasick	sub-03_ses-02_task-ml_proj-lorasick_2020-10-27-14-00-09.846491
69	3	2	2	70	volatile	3	20	10	vs	green	brown	green	brown	left	right	0.7	0.30000000000000004	6	4	4.199999999999998	1.2000000000000002	0	1	0.7	0.30000000000000004	6	4	4.199999999999998	1.2000000000000002	invalid	0.3665835179999704	51200	0	0	1	51200	1	51200	1	51200	1	0.7	51200	green	brown	1	0	ml	2.7.3	lorasick	sub-03_ses-02_task-ml_proj-lorasick_2020-10-27-14-00-09.846491
70	3	2	2	71	volatile	3	20	11	vs	brown	green	green	brown	right	left	0.7	0.30000000000000004	10	2	7.0	0.6000000000000001	0	1	0.30000000000000004	0.7	2	10	0.6000000000000001	7.0	invalid	0.4832285640004557	53248	0	1	1	53248	1	53248	1	53248	1	0.7	53248	green	brown	1	0	ml	2.7.3	lorasick	sub-03_ses-02_task-ml_proj-lorasick_2020-10-27-14-00-09.846491
71	3	2	2	72	volatile	3	20	12	vs	brown	green	green	brown	right	left	0.7	0.30000000000000004	10	2	7.0	0.6000000000000001	1	0	0.30000000000000004	0.7	2	10	0.6000000000000001	7.0	valid	0.4332421870021789	53248	0	1	1	53248	1	53248	1	53248	1	0.7	53248	green	brown	1	10	ml	2.7.3	lorasick	sub-03_ses-02_task-ml_proj-lorasick_2020-10-27-14-00-09.846491
72	3	2	2	73	volatile	3	20	13	vs	brown	green	green	brown	right	left	0.7	0.30000000000000004	6	2	4.199999999999998	0.6000000000000001	0	1	0.30000000000000004	0.7	2	6	0.6000000000000001	4.199999999999998	invalid	0.6165210009967268	53248	0	1	1	53248	1	53248	1	53248	1	0.7	53248	green	brown	1	0	ml	2.7.3	lorasick	sub-03_ses-02_task-ml_proj-lorasick_2020-10-27-14-00-09.846491
73	3	2	2	74	volatile	3	20	14	vs	green	brown	green	brown	left	right	0.7	0.30000000000000004	2	2	1.4	0.6000000000000001	1	0	0.7	0.30000000000000004	2	2	1.4	0.6000000000000001	valid	0.4665544210001826	51200	0	0	1	51200	1	51200	1	53248	0	0.7	51200	green	brown	1	2	ml	2.7.3	lorasick	sub-03_ses-02_task-ml_proj-lorasick_2020-10-27-14-00-09.846491
74	3	2	2	75	volatile	3	20	15	vs	brown	green	green	brown	right	left	0.7	0.30000000000000004	6	2	4.199999999999998	0.6000000000000001	1	0	0.30000000000000004	0.7	2	6	0.6000000000000001	4.199999999999998	valid	0.3665959459976875	53248	0	1	1	53248	1	53248	1	53248	1	0.7	53248	green	brown	1	6	ml	2.7.3	lorasick	sub-03_ses-02_task-ml_proj-lorasick_2020-10-27-14-00-09.846491
75	3	2	2	76	volatile	3	20	16	vs	green	brown	green	brown	left	right	0.7	0.30000000000000004	6	2	4.199999999999998	0.6000000000000001	0	1	0.7	0.30000000000000004	6	2	4.199999999999998	0.6000000000000001	invalid	0.4498936859999958	51200	0	0	1	51200	1	51200	1	51200	1	0.7	51200	green	brown	1	0	ml	2.7.3	lorasick	sub-03_ses-02_task-ml_proj-lorasick_2020-10-27-14-00-09.846491
76	3	2	2	77	volatile	3	20	17	vs	green	brown	green	brown	left	right	0.7	0.30000000000000004	10	2	7.0	0.6000000000000001	1	0	0.7	0.30000000000000004	10	2	7.0	0.6000000000000001	valid	0.5165472050030075	51200	0	0	1	51200	1	51200	1	51200	1	0.7	51200	green	brown	1	10	ml	2.7.3	lorasick	sub-03_ses-02_task-ml_proj-lorasick_2020-10-27-14-00-09.846491
77	3	2	2	78	volatile	3	20	18	vs	brown	green	green	brown	right	left	0.7	0.30000000000000004	4	2	2.8	0.6000000000000001	1	0	0.30000000000000004	0.7	2	4	0.6000000000000001	2.8	valid	0.3999170759998377	53248	0	1	1	53248	1	53248	1	53248	1	0.7	53248	green	brown	1	4	ml	2.7.3	lorasick	sub-03_ses-02_task-ml_proj-lorasick_2020-10-27-14-00-09.846491
78	3	2	2	79	volatile	3	20	19	vs	green	brown	green	brown	left	right	0.7	0.30000000000000004	6	2	4.199999999999998	0.6000000000000001	0	1	0.7	0.30000000000000004	6	2	4.199999999999998	0.6000000000000001	invalid	0.4665554519997386	51200	0	0	1	51200	1	51200	1	51200	1	0.7	51200	green	brown	1	0	ml	2.7.3	lorasick	sub-03_ses-02_task-ml_proj-lorasick_2020-10-27-14-00-09.846491
79	3	2	2	80	volatile	3	20	20	vs	brown	green	green	brown	right	left	0.7	0.30000000000000004	2	10	1.4	3.0000000000000004	1	0	0.30000000000000004	0.7	10	2	3.0000000000000004	1.4	valid	0.6165110559995811	51200	0	0	2	51200	1	53248	0	51200	1	0.7	53248	green	brown	0	0	ml	2.7.3	lorasick	sub-03_ses-02_task-ml_proj-lorasick_2020-10-27-14-00-09.846491
80	3	2	2	81	volatile	4	40	1	vs	brown	green	green	brown	right	left	0.30000000000000004	0.7	4	6	1.2000000000000002	4.199999999999998	0	1	0.7	0.30000000000000004	6	4	4.199999999999998	1.2000000000000002	valid	0.7831470790006279	53248	0	1	1	51200	0	51200	0	51200	0	0.7	51200	brown	green	1	0	ml	2.7.3	lorasick	sub-03_ses-02_task-ml_proj-lorasick_2020-10-27-14-00-09.846491
81	3	2	2	82	volatile	4	40	2	vs	brown	green	green	brown	right	left	0.30000000000000004	0.7	6	6	1.8000000000000005	4.199999999999998	0	1	0.7	0.30000000000000004	6	6	4.199999999999998	1.8000000000000005	valid	0.6498369969995109	51200	0	0	2	51200	1	51200	1	53248	0	0.7	51200	brown	green	1	6	ml	2.7.3	lorasick	sub-03_ses-02_task-ml_proj-lorasick_2020-10-27-14-00-09.846491
82	3	2	2	83	volatile	4	40	3	vs	green	brown	green	brown	left	right	0.30000000000000004	0.7	4	2	1.2000000000000002	1.4	1	0	0.30000000000000004	0.7	4	2	1.2000000000000002	1.4	invalid	0.5998731489999045	51200	0	0	1	53248	0	53248	0	51200	1	0.7	53248	brown	green	0	4	ml	2.7.3	lorasick	sub-03_ses-02_task-ml_proj-lorasick_2020-10-27-14-00-09.846491
83	3	2	2	84	volatile	4	40	4	vs	green	brown	green	brown	left	right	0.30000000000000004	0.7	2	2	0.6000000000000001	1.4	0	1	0.30000000000000004	0.7	2	2	0.6000000000000001	1.4	valid	0.5831859380014066	51200	0	0	1	53248	0	53248	0	53248	0	0.7	53248	brown	green	0	0	ml	2.7.3	lorasick	sub-03_ses-02_task-ml_proj-lorasick_2020-10-27-14-00-09.846491
84	3	2	2	85	volatile	4	40	5	vs	green	brown	green	brown	left	right	0.30000000000000004	0.7	6	2	1.8000000000000005	1.4	0	1	0.30000000000000004	0.7	6	2	1.8000000000000005	1.4	valid	0.39990615300121135	51200	0	0	1	51200	1	53248	0	51200	1	0.7	53248	brown	green	0	0	ml	2.7.3	lorasick	sub-03_ses-02_task-ml_proj-lorasick_2020-10-27-14-00-09.846491
85	3	2	2	86	volatile	4	40	6	vs	brown	green	green	brown	right	left	0.30000000000000004	0.7	6	6	1.8000000000000005	4.199999999999998	1	0	0.7	0.30000000000000004	6	6	4.199999999999998	1.8000000000000005	invalid	0.9497452750001684	51200	0	0	2	51200	1	51200	1	53248	0	0.7	51200	brown	green	1	0	ml	2.7.3	lorasick	sub-03_ses-02_task-ml_proj-lorasick_2020-10-27-14-00-09.846491
86	3	2	2	87	volatile	4	40	7	vs	green	brown	green	brown	left	right	0.30000000000000004	0.7	2	10	0.6000000000000001	7.0	1	0	0.30000000000000004	0.7	2	10	0.6000000000000001	7.0	invalid	0.4832278100002441	53248	0	1	2	53248	1	53248	1	53248	1	0.7	53248	brown	green	1	0	ml	2.7.3	lorasick	sub-03_ses-02_task-ml_proj-lorasick_2020-10-27-14-00-09.846491
87	3	2	2	88	volatile	4	40	8	vs	brown	green	green	brown	right	left	0.30000000000000004	0.7	6	6	1.8000000000000005	4.199999999999998	0	1	0.7	0.30000000000000004	6	6	4.199999999999998	1.8000000000000005	valid	0.7331523180000659	53248	0	1	1	51200	0	51200	0	53248	1	0.7	51200	brown	green	1	0	ml	2.7.3	lorasick	sub-03_ses-02_task-ml_proj-lorasick_2020-10-27-14-00-09.846491
88	3	2	2	89	volatile	4	40	9	vs	green	brown	green	brown	left	right	0.30000000000000004	0.7	4	2	1.2000000000000002	1.4	0	1	0.30000000000000004	0.7	4	2	1.2000000000000002	1.4	valid	0.4998765929994988	51200	0	0	1	53248	0	53248	0	51200	1	0.7	53248	brown	green	0	0	ml	2.7.3	lorasick	sub-03_ses-02_task-ml_proj-lorasick_2020-10-27-14-00-09.846491
89	3	2	2	90	volatile	4	40	10	vs	green	brown	green	brown	left	right	0.30000000000000004	0.7	6	2	1.8000000000000005	1.4	1	0	0.30000000000000004	0.7	6	2	1.8000000000000005	1.4	invalid	0.416567069998564	51200	0	0	1	51200	1	53248	0	51200	1	0.7	53248	brown	green	0	6	ml	2.7.3	lorasick	sub-03_ses-02_task-ml_proj-lorasick_2020-10-27-14-00-09.846491
90	3	2	2	91	volatile	4	40	11	vs	brown	green	green	brown	right	left	0.30000000000000004	0.7	4	6	1.2000000000000002	4.199999999999998	0	1	0.7	0.30000000000000004	6	4	4.199999999999998	1.2000000000000002	valid	0.5831865580003068	51200	0	0	2	51200	1	51200	1	51200	1	0.7	51200	brown	green	1	6	ml	2.7.3	lorasick	sub-03_ses-02_task-ml_proj-lorasick_2020-10-27-14-00-09.846491
91	3	2	2	92	volatile	4	40	12	vs	green	brown	green	brown	left	right	0.30000000000000004	0.7	6	6	1.8000000000000005	4.199999999999998	0	1	0.30000000000000004	0.7	6	6	1.8000000000000005	4.199999999999998	valid	0.5165517690002162	53248	0	1	2	53248	1	53248	1	53248	1	0.7	53248	brown	green	0	6	ml	2.7.3	lorasick	sub-03_ses-02_task-ml_proj-lorasick_2020-10-27-14-00-09.846491
92	3	2	2	93	volatile	4	40	13	vs	green	brown	green	brown	left	right	0.30000000000000004	0.7	4	2	1.2000000000000002	1.4	0	1	0.30000000000000004	0.7	4	2	1.2000000000000002	1.4	valid	0.6165082260013149	51200	0	0	1	53248	0	53248	0	51200	1	0.7	53248	brown	green	0	0	ml	2.7.3	lorasick	sub-03_ses-02_task-ml_proj-lorasick_2020-10-27-14-00-09.846491
93	3	2	2	94	volatile	4	40	14	vs	green	brown	green	brown	left	right	0.30000000000000004	0.7	4	6	1.2000000000000002	4.199999999999998	0	1	0.30000000000000004	0.7	4	6	1.2000000000000002	4.199999999999998	valid	0.4665662170009455	53248	0	1	2	53248	1	53248	1	53248	1	0.7	53248	brown	green	1	6	ml	2.7.3	lorasick	sub-03_ses-02_task-ml_proj-lorasick_2020-10-27-14-00-09.846491
94	3	2	2	95	volatile	4	40	15	vs	brown	green	green	brown	right	left	0.30000000000000004	0.7	6	2	1.8000000000000005	1.4	0	1	0.7	0.30000000000000004	2	6	1.4	1.8000000000000005	valid	0.7997954349993961	53248	0	1	1	53248	1	51200	0	53248	1	0.7	51200	brown	green	0	0	ml	2.7.3	lorasick	sub-03_ses-02_task-ml_proj-lorasick_2020-10-27-14-00-09.846491
95	3	2	2	96	volatile	4	40	16	vs	green	brown	green	brown	left	right	0.30000000000000004	0.7	2	2	0.6000000000000001	1.4	0	1	0.30000000000000004	0.7	2	2	0.6000000000000001	1.4	valid	0.5831952360022115	53248	0	1	2	53248	1	53248	1	53248	1	0.7	53248	brown	green	0	2	ml	2.7.3	lorasick	sub-03_ses-02_task-ml_proj-lorasick_2020-10-27-14-00-09.846491
96	3	2	2	97	volatile	4	40	17	vs	brown	green	green	brown	right	left	0.30000000000000004	0.7	6	2	1.8000000000000005	1.4	0	1	0.7	0.30000000000000004	2	6	1.4	1.8000000000000005	valid	0.4498907369998051	51200	0	0	2	53248	0	51200	1	53248	0	0.7	51200	brown	green	0	2	ml	2.7.3	lorasick	sub-03_ses-02_task-ml_proj-lorasick_2020-10-27-14-00-09.846491
97	3	2	2	98	volatile	4	40	18	vs	brown	green	green	brown	right	left	0.30000000000000004	0.7	10	2	3.0000000000000004	1.4	1	0	0.7	0.30000000000000004	2	10	1.4	3.0000000000000004	invalid	0.716493766001804	53248	0	1	1	53248	1	51200	0	53248	1	0.7	51200	brown	green	0	10	ml	2.7.3	lorasick	sub-03_ses-02_task-ml_proj-lorasick_2020-10-27-14-00-09.846491
98	3	2	2	99	volatile	4	40	19	vs	brown	green	green	brown	right	left	0.30000000000000004	0.7	2	2	0.6000000000000001	1.4	1	0	0.7	0.30000000000000004	2	2	1.4	0.6000000000000001	invalid	0.5165490299987141	51200	0	0	2	51200	1	51200	1	53248	0	0.7	51200	brown	green	1	0	ml	2.7.3	lorasick	sub-03_ses-02_task-ml_proj-lorasick_2020-10-27-14-00-09.846491
99	3	2	2	100	volatile	4	40	20	vs	brown	green	green	brown	right	left	0.30000000000000004	0.7	6	2	1.8000000000000005	1.4	0	1	0.7	0.30000000000000004	2	6	1.4	1.8000000000000005	valid	0.3832520350006233	53248	0	1	1	53248	1	51200	0	53248	1	0.7	51200	brown	green	0	0	ml	2.7.3	lorasick	sub-03_ses-02_task-ml_proj-lorasick_2020-10-27-14-00-09.846491
100	3	2	3	101	volatile	4	40	21	vs	brown	green	green	brown	right	left	0.30000000000000004	0.7	2	10	0.6000000000000001	7.0	0	1	0.7	0.30000000000000004	10	2	7.0	0.6000000000000001	valid	0.4498909590001858	51200	0	0	2	51200	1	51200	1	51200	1	0.7	51200	brown	green	1	10	ml	2.7.3	lorasick	sub-03_ses-02_task-ml_proj-lorasick_2020-10-27-14-00-09.846491
101	3	2	3	102	volatile	4	40	22	vs	brown	green	green	brown	right	left	0.30000000000000004	0.7	2	6	0.6000000000000001	4.199999999999998	0	1	0.7	0.30000000000000004	6	2	4.199999999999998	0.6000000000000001	valid	0.4665556519976235	51200	0	0	2	51200	1	51200	1	51200	1	0.7	51200	brown	green	1	6	ml	2.7.3	lorasick	sub-03_ses-02_task-ml_proj-lorasick_2020-10-27-14-00-09.846491
102	3	2	3	103	volatile	4	40	23	vs	brown	green	green	brown	right	left	0.30000000000000004	0.7	2	10	0.6000000000000001	7.0	0	1	0.7	0.30000000000000004	10	2	7.0	0.6000000000000001	valid	0.3499126830029127	51200	0	0	2	51200	1	51200	1	51200	1	0.7	51200	brown	green	1	10	ml	2.7.3	lorasick	sub-03_ses-02_task-ml_proj-lorasick_2020-10-27-14-00-09.846491
103	3	2	3	104	volatile	4	40	24	vs	green	brown	green	brown	left	right	0.30000000000000004	0.7	2	10	0.6000000000000001	7.0	0	1	0.30000000000000004	0.7	2	10	0.6000000000000001	7.0	valid	0.3666214500008209	53248	0	1	2	53248	1	53248	1	53248	1	0.7	53248	brown	green	1	10	ml	2.7.3	lorasick	sub-03_ses-02_task-ml_proj-lorasick_2020-10-27-14-00-09.846491
104	3	2	3	105	volatile	4	40	25	vs	green	brown	green	brown	left	right	0.30000000000000004	0.7	2	4	0.6000000000000001	2.8	0	1	0.30000000000000004	0.7	2	4	0.6000000000000001	2.8	valid	0.4165783919997921	53248	0	1	2	53248	1	53248	1	53248	1	0.7	53248	brown	green	1	4	ml	2.7.3	lorasick	sub-03_ses-02_task-ml_proj-lorasick_2020-10-27-14-00-09.846491
105	3	2	3	106	volatile	4	40	26	vs	brown	green	green	brown	right	left	0.30000000000000004	0.7	6	4	1.8000000000000005	2.8	0	1	0.7	0.30000000000000004	4	6	2.8	1.8000000000000005	valid	0.3499218069991912	51200	0	0	2	51200	1	51200	1	53248	0	0.7	51200	brown	green	0	4	ml	2.7.3	lorasick	sub-03_ses-02_task-ml_proj-lorasick_2020-10-27-14-00-09.846491
106	3	2	3	107	volatile	4	40	27	vs	brown	green	green	brown	right	left	0.30000000000000004	0.7	6	4	1.8000000000000005	2.8	1	0	0.7	0.30000000000000004	4	6	2.8	1.8000000000000005	invalid	0.3665684439984034	51200	0	0	2	51200	1	51200	1	53248	0	0.7	51200	brown	green	0	0	ml	2.7.3	lorasick	sub-03_ses-02_task-ml_proj-lorasick_2020-10-27-14-00-09.846491
107	3	2	3	108	volatile	4	40	28	vs	brown	green	green	brown	right	left	0.30000000000000004	0.7	2	10	0.6000000000000001	7.0	1	0	0.7	0.30000000000000004	10	2	7.0	0.6000000000000001	invalid	0.3165985209998325	51200	0	0	2	51200	1	51200	1	51200	1	0.7	51200	brown	green	1	0	ml	2.7.3	lorasick	sub-03_ses-02_task-ml_proj-lorasick_2020-10-27-14-00-09.846491
108	3	2	3	109	volatile	4	40	29	vs	green	brown	green	brown	left	right	0.30000000000000004	0.7	6	4	1.8000000000000005	2.8	0	1	0.30000000000000004	0.7	6	4	1.8000000000000005	2.8	valid	0.3999184370004514	53248	0	1	2	53248	1	53248	1	51200	0	0.7	53248	brown	green	0	4	ml	2.7.3	lorasick	sub-03_ses-02_task-ml_proj-lorasick_2020-10-27-14-00-09.846491
109	3	2	3	110	volatile	4	40	30	vs	green	brown	green	brown	left	right	0.30000000000000004	0.7	2	2	0.6000000000000001	1.4	0	1	0.30000000000000004	0.7	2	2	0.6000000000000001	1.4	valid	0.3832556289999047	53248	0	1	2	53248	1	53248	1	53248	1	0.7	53248	brown	green	0	2	ml	2.7.3	lorasick	sub-03_ses-02_task-ml_proj-lorasick_2020-10-27-14-00-09.846491
110	3	2	3	111	volatile	4	40	31	vs	green	brown	green	brown	left	right	0.30000000000000004	0.7	4	2	1.2000000000000002	1.4	0	1	0.30000000000000004	0.7	4	2	1.2000000000000002	1.4	valid	0.433258320997993	53248	0	1	2	53248	1	53248	1	51200	0	0.7	53248	brown	green	0	2	ml	2.7.3	lorasick	sub-03_ses-02_task-ml_proj-lorasick_2020-10-27-14-00-09.846491
111	3	2	3	112	volatile	4	40	32	vs	green	brown	green	brown	left	right	0.30000000000000004	0.7	2	10	0.6000000000000001	7.0	1	0	0.30000000000000004	0.7	2	10	0.6000000000000001	7.0	invalid	0.41658836900023744	53248	0	1	2	53248	1	53248	1	53248	1	0.7	53248	brown	green	1	0	ml	2.7.3	lorasick	sub-03_ses-02_task-ml_proj-lorasick_2020-10-27-14-00-09.846491
112	3	2	3	113	volatile	4	40	33	vs	green	brown	green	brown	left	right	0.30000000000000004	0.7	6	4	1.8000000000000005	2.8	0	1	0.30000000000000004	0.7	6	4	1.8000000000000005	2.8	valid	0.3832583930015971	53248	0	1	2	53248	1	53248	1	51200	0	0.7	53248	brown	green	0	4	ml	2.7.3	lorasick	sub-03_ses-02_task-ml_proj-lorasick_2020-10-27-14-00-09.846491
113	3	2	3	114	volatile	4	40	34	vs	brown	green	green	brown	right	left	0.30000000000000004	0.7	6	4	1.8000000000000005	2.8	0	1	0.7	0.30000000000000004	4	6	2.8	1.8000000000000005	valid	0.7997992189993965	53248	0	1	1	51200	0	51200	0	53248	1	0.7	51200	brown	green	0	0	ml	2.7.3	lorasick	sub-03_ses-02_task-ml_proj-lorasick_2020-10-27-14-00-09.846491
114	3	2	3	115	volatile	4	40	35	vs	green	brown	green	brown	left	right	0.30000000000000004	0.7	2	6	0.6000000000000001	4.199999999999998	1	0	0.30000000000000004	0.7	2	6	0.6000000000000001	4.199999999999998	invalid	0.3999217160016997	53248	0	1	2	53248	1	53248	1	53248	1	0.7	53248	brown	green	1	0	ml	2.7.3	lorasick	sub-03_ses-02_task-ml_proj-lorasick_2020-10-27-14-00-09.846491
115	3	2	3	116	volatile	4	40	36	vs	green	brown	green	brown	left	right	0.30000000000000004	0.7	6	2	1.8000000000000005	1.4	1	0	0.30000000000000004	0.7	6	2	1.8000000000000005	1.4	invalid	0.4499075090025144	53248	0	1	2	51200	0	53248	1	51200	0	0.7	53248	brown	green	0	0	ml	2.7.3	lorasick	sub-03_ses-02_task-ml_proj-lorasick_2020-10-27-14-00-09.846491
116	3	2	3	117	volatile	4	40	37	vs	green	brown	green	brown	left	right	0.30000000000000004	0.7	2	4	0.6000000000000001	2.8	0	1	0.30000000000000004	0.7	2	4	0.6000000000000001	2.8	valid	0.5165705139988859	51200	0	0	1	53248	0	53248	0	53248	0	0.7	53248	brown	green	1	0	ml	2.7.3	lorasick	sub-03_ses-02_task-ml_proj-lorasick_2020-10-27-14-00-09.846491
117	3	2	3	118	volatile	4	40	38	vs	brown	green	green	brown	right	left	0.30000000000000004	0.7	4	2	1.2000000000000002	1.4	0	1	0.7	0.30000000000000004	2	4	1.4	1.2000000000000002	valid	0.4498912790004397	51200	0	0	2	51200	1	51200	1	53248	0	0.7	51200	brown	green	0	2	ml	2.7.3	lorasick	sub-03_ses-02_task-ml_proj-lorasick_2020-10-27-14-00-09.846491
118	3	2	3	119	volatile	4	40	39	vs	brown	green	green	brown	right	left	0.30000000000000004	0.7	4	2	1.2000000000000002	1.4	1	0	0.7	0.30000000000000004	2	4	1.4	1.2000000000000002	invalid	0.3665934649980045	51200	0	0	2	51200	1	51200	1	53248	0	0.7	51200	brown	green	0	0	ml	2.7.3	lorasick	sub-03_ses-02_task-ml_proj-lorasick_2020-10-27-14-00-09.846491
119	3	2	3	120	volatile	4	40	40	vs	brown	green	green	brown	right	left	0.30000000000000004	0.7	2	10	0.6000000000000001	7.0	0	1	0.7	0.30000000000000004	10	2	7.0	0.6000000000000001	valid	0.3499092460006068	51200	0	0	2	51200	1	51200	1	51200	1	0.7	51200	brown	green	1	10	ml	2.7.3	lorasick	sub-03_ses-02_task-ml_proj-lorasick_2020-10-27-14-00-09.846491
120	3	2	3	121	volatile	5	20	1	vs	brown	green	green	brown	right	left	0.7	0.30000000000000004	6	2	4.199999999999998	0.6000000000000001	1	0	0.30000000000000004	0.7	2	6	0.6000000000000001	4.199999999999998	valid	0.5831954269997368	53248	0	1	1	53248	1	53248	1	53248	1	0.7	53248	green	brown	1	6	ml	2.7.3	lorasick	sub-03_ses-02_task-ml_proj-lorasick_2020-10-27-14-00-09.846491
121	3	2	3	122	volatile	5	20	2	vs	green	brown	green	brown	left	right	0.7	0.30000000000000004	2	2	1.4	0.6000000000000001	0	1	0.7	0.30000000000000004	2	2	1.4	0.6000000000000001	invalid	0.4832146579974506	51200	0	0	1	51200	1	51200	1	53248	0	0.7	51200	green	brown	1	0	ml	2.7.3	lorasick	sub-03_ses-02_task-ml_proj-lorasick_2020-10-27-14-00-09.846491
122	3	2	3	123	volatile	5	20	3	vs	green	brown	green	brown	left	right	0.7	0.30000000000000004	6	4	4.199999999999998	1.2000000000000002	1	0	0.7	0.30000000000000004	6	4	4.199999999999998	1.2000000000000002	valid	0.3832430530019337	51200	0	0	1	51200	1	51200	1	51200	1	0.7	51200	green	brown	1	6	ml	2.7.3	lorasick	sub-03_ses-02_task-ml_proj-lorasick_2020-10-27-14-00-09.846491
123	3	2	3	124	volatile	5	20	4	vs	brown	green	green	brown	right	left	0.7	0.30000000000000004	2	6	1.4	1.8000000000000005	0	1	0.30000000000000004	0.7	6	2	1.8000000000000005	1.4	invalid	0.6498418499977561	53248	0	1	1	51200	0	53248	1	51200	0	0.7	53248	green	brown	0	0	ml	2.7.3	lorasick	sub-03_ses-02_task-ml_proj-lorasick_2020-10-27-14-00-09.846491
124	3	2	3	125	volatile	5	20	5	vs	green	brown	green	brown	left	right	0.7	0.30000000000000004	6	6	4.199999999999998	1.8000000000000005	1	0	0.7	0.30000000000000004	6	6	4.199999999999998	1.8000000000000005	valid	0.3499182720006502	51200	0	0	1	51200	1	51200	1	53248	0	0.7	51200	green	brown	1	6	ml	2.7.3	lorasick	sub-03_ses-02_task-ml_proj-lorasick_2020-10-27-14-00-09.846491
125	3	2	3	126	volatile	5	20	6	vs	brown	green	green	brown	right	left	0.7	0.30000000000000004	2	2	1.4	0.6000000000000001	1	0	0.30000000000000004	0.7	2	2	0.6000000000000001	1.4	valid	0.6165104249994329	51200	0	0	2	53248	0	53248	0	53248	0	0.7	53248	green	brown	0	0	ml	2.7.3	lorasick	sub-03_ses-02_task-ml_proj-lorasick_2020-10-27-14-00-09.846491
126	3	2	3	127	volatile	5	20	7	vs	green	brown	green	brown	left	right	0.7	0.30000000000000004	10	2	7.0	0.6000000000000001	1	0	0.7	0.30000000000000004	10	2	7.0	0.6000000000000001	valid	0.5165363239975704	51200	0	0	1	51200	1	51200	1	51200	1	0.7	51200	green	brown	1	10	ml	2.7.3	lorasick	sub-03_ses-02_task-ml_proj-lorasick_2020-10-27-14-00-09.846491
127	3	2	3	128	volatile	5	20	8	vs	brown	green	green	brown	right	left	0.7	0.30000000000000004	6	4	4.199999999999998	1.2000000000000002	1	0	0.30000000000000004	0.7	4	6	1.2000000000000002	4.199999999999998	valid	0.3999162450018048	53248	0	1	1	53248	1	53248	1	53248	1	0.7	53248	green	brown	1	6	ml	2.7.3	lorasick	sub-03_ses-02_task-ml_proj-lorasick_2020-10-27-14-00-09.846491
128	3	2	3	129	volatile	5	20	9	vs	green	brown	green	brown	left	right	0.7	0.30000000000000004	6	4	4.199999999999998	1.2000000000000002	1	0	0.7	0.30000000000000004	6	4	4.199999999999998	1.2000000000000002	valid	0.283275178000622	51200	0	0	1	51200	1	51200	1	51200	1	0.7	51200	green	brown	1	6	ml	2.7.3	lorasick	sub-03_ses-02_task-ml_proj-lorasick_2020-10-27-14-00-09.846491
129	3	2	3	130	volatile	5	20	10	vs	brown	green	green	brown	right	left	0.7	0.30000000000000004	4	2	2.8	0.6000000000000001	1	0	0.30000000000000004	0.7	2	4	0.6000000000000001	2.8	valid	0.44990647200029343	53248	0	1	1	53248	1	53248	1	53248	1	0.7	53248	green	brown	1	4	ml	2.7.3	lorasick	sub-03_ses-02_task-ml_proj-lorasick_2020-10-27-14-00-09.846491
130	3	2	3	131	volatile	5	20	11	vs	green	brown	green	brown	left	right	0.7	0.30000000000000004	4	2	2.8	0.6000000000000001	1	0	0.7	0.30000000000000004	4	2	2.8	0.6000000000000001	valid	0.3832468840009824	51200	0	0	1	51200	1	51200	1	51200	1	0.7	51200	green	brown	1	4	ml	2.7.3	lorasick	sub-03_ses-02_task-ml_proj-lorasick_2020-10-27-14-00-09.846491
131	3	2	3	132	volatile	5	20	12	vs	green	brown	green	brown	left	right	0.7	0.30000000000000004	6	2	4.199999999999998	0.6000000000000001	1	0	0.7	0.30000000000000004	6	2	4.199999999999998	0.6000000000000001	valid	0.3832448260000092	51200	0	0	1	51200	1	51200	1	51200	1	0.7	51200	green	brown	1	6	ml	2.7.3	lorasick	sub-03_ses-02_task-ml_proj-lorasick_2020-10-27-14-00-09.846491
132	3	2	3	133	volatile	5	20	13	vs	green	brown	green	brown	left	right	0.7	0.30000000000000004	4	6	2.8	1.8000000000000005	1	0	0.7	0.30000000000000004	4	6	2.8	1.8000000000000005	valid	0.4832189999979164	53248	0	1	2	51200	0	51200	0	53248	1	0.7	51200	green	brown	0	0	ml	2.7.3	lorasick	sub-03_ses-02_task-ml_proj-lorasick_2020-10-27-14-00-09.846491
133	3	2	3	134	volatile	5	20	14	vs	green	brown	green	brown	left	right	0.7	0.30000000000000004	10	2	7.0	0.6000000000000001	0	1	0.7	0.30000000000000004	10	2	7.0	0.6000000000000001	invalid	0.34992271900046035	51200	0	0	1	51200	1	51200	1	51200	1	0.7	51200	green	brown	1	0	ml	2.7.3	lorasick	sub-03_ses-02_task-ml_proj-lorasick_2020-10-27-14-00-09.846491
134	3	2	3	135	volatile	5	20	15	vs	brown	green	green	brown	right	left	0.7	0.30000000000000004	2	4	1.4	1.2000000000000002	0	1	0.30000000000000004	0.7	4	2	1.2000000000000002	1.4	invalid	0.3832611110010475	53248	0	1	1	53248	1	53248	1	51200	0	0.7	53248	green	brown	0	0	ml	2.7.3	lorasick	sub-03_ses-02_task-ml_proj-lorasick_2020-10-27-14-00-09.846491
135	3	2	3	136	volatile	5	20	16	vs	brown	green	green	brown	right	left	0.7	0.30000000000000004	6	6	4.199999999999998	1.8000000000000005	1	0	0.30000000000000004	0.7	6	6	1.8000000000000005	4.199999999999998	valid	0.39992108599835774	53248	0	1	1	53248	1	53248	1	53248	1	0.7	53248	green	brown	0	6	ml	2.7.3	lorasick	sub-03_ses-02_task-ml_proj-lorasick_2020-10-27-14-00-09.846491
136	3	2	3	137	volatile	5	20	17	vs	brown	green	green	brown	right	left	0.7	0.30000000000000004	6	2	4.199999999999998	0.6000000000000001	0	1	0.30000000000000004	0.7	2	6	0.6000000000000001	4.199999999999998	invalid	0.4998937829986971	53248	0	1	1	53248	1	53248	1	53248	1	0.7	53248	green	brown	1	0	ml	2.7.3	lorasick	sub-03_ses-02_task-ml_proj-lorasick_2020-10-27-14-00-09.846491
137	3	2	3	138	volatile	5	20	18	vs	brown	green	green	brown	right	left	0.7	0.30000000000000004	4	2	2.8	0.6000000000000001	1	0	0.30000000000000004	0.7	2	4	0.6000000000000001	2.8	valid	0.5165536179993069	53248	0	1	1	53248	1	53248	1	53248	1	0.7	53248	green	brown	1	4	ml	2.7.3	lorasick	sub-03_ses-02_task-ml_proj-lorasick_2020-10-27-14-00-09.846491
138	3	2	3	139	volatile	5	20	19	vs	green	brown	green	brown	left	right	0.7	0.30000000000000004	2	10	1.4	3.0000000000000004	0	1	0.7	0.30000000000000004	2	10	1.4	3.0000000000000004	invalid	0.5498739340000611	53248	0	1	2	53248	1	51200	0	53248	1	0.7	51200	green	brown	0	10	ml	2.7.3	lorasick	sub-03_ses-02_task-ml_proj-lorasick_2020-10-27-14-00-09.846491
139	3	2	3	140	volatile	5	20	20	vs	brown	green	green	brown	right	left	0.7	0.30000000000000004	10	2	7.0	0.6000000000000001	1	0	0.30000000000000004	0.7	2	10	0.6000000000000001	7.0	valid	0.5831882120000955	51200	0	0	2	53248	0	53248	0	53248	0	0.7	53248	green	brown	1	0	ml	2.7.3	lorasick	sub-03_ses-02_task-ml_proj-lorasick_2020-10-27-14-00-09.846491
140	3	2	3	141	volatile	6	40	1	vs	green	brown	green	brown	left	right	0.30000000000000004	0.7	10	2	3.0000000000000004	1.4	1	0	0.30000000000000004	0.7	10	2	3.0000000000000004	1.4	invalid	0.4332304700001259	51200	0	0	1	51200	1	53248	0	51200	1	0.7	53248	brown	green	0	10	ml	2.7.3	lorasick	sub-03_ses-02_task-ml_proj-lorasick_2020-10-27-14-00-09.846491
141	3	2	3	142	volatile	6	40	2	vs	brown	green	green	brown	right	left	0.30000000000000004	0.7	2	4	0.6000000000000001	2.8	1	0	0.7	0.30000000000000004	4	2	2.8	0.6000000000000001	invalid	0.6331631860011839	51200	0	0	2	51200	1	51200	1	51200	1	0.7	51200	brown	green	1	0	ml	2.7.3	lorasick	sub-03_ses-02_task-ml_proj-lorasick_2020-10-27-14-00-09.846491
142	3	2	3	143	volatile	6	40	3	vs	green	brown	green	brown	left	right	0.30000000000000004	0.7	10	2	3.0000000000000004	1.4	0	1	0.30000000000000004	0.7	10	2	3.0000000000000004	1.4	valid	0.4165689180008485	51200	0	0	1	51200	1	53248	0	51200	1	0.7	53248	brown	green	0	0	ml	2.7.3	lorasick	sub-03_ses-02_task-ml_proj-lorasick_2020-10-27-14-00-09.846491
143	3	2	3	144	volatile	6	40	4	vs	brown	green	green	brown	right	left	0.30000000000000004	0.7	2	4	0.6000000000000001	2.8	1	0	0.7	0.30000000000000004	4	2	2.8	0.6000000000000001	invalid	0.6664948879988515	51200	0	0	2	51200	1	51200	1	51200	1	0.7	51200	brown	green	1	0	ml	2.7.3	lorasick	sub-03_ses-02_task-ml_proj-lorasick_2020-10-27-14-00-09.846491
144	3	2	3	145	volatile	6	40	5	vs	brown	green	green	brown	right	left	0.30000000000000004	0.7	6	2	1.8000000000000005	1.4	1	0	0.7	0.30000000000000004	2	6	1.4	1.8000000000000005	invalid	0.3999231090019748	53248	0	1	1	53248	1	51200	0	53248	1	0.7	51200	brown	green	0	6	ml	2.7.3	lorasick	sub-03_ses-02_task-ml_proj-lorasick_2020-10-27-14-00-09.846491
145	3	2	3	146	volatile	6	40	6	vs	brown	green	green	brown	right	left	0.30000000000000004	0.7	10	2	3.0000000000000004	1.4	0	1	0.7	0.30000000000000004	2	10	1.4	3.0000000000000004	valid	0.36659566999878734	53248	0	1	1	53248	1	51200	0	53248	1	0.7	51200	brown	green	0	0	ml	2.7.3	lorasick	sub-03_ses-02_task-ml_proj-lorasick_2020-10-27-14-00-09.846491
146	3	2	3	147	volatile	6	40	7	vs	brown	green	green	brown	right	left	0.30000000000000004	0.7	2	2	0.6000000000000001	1.4	0	1	0.7	0.30000000000000004	2	2	1.4	0.6000000000000001	valid	0.499877550999372	51200	0	0	2	51200	1	51200	1	53248	0	0.7	51200	brown	green	1	2	ml	2.7.3	lorasick	sub-03_ses-02_task-ml_proj-lorasick_2020-10-27-14-00-09.846491
147	3	2	3	148	volatile	6	40	8	vs	brown	green	green	brown	right	left	0.30000000000000004	0.7	6	4	1.8000000000000005	2.8	0	1	0.7	0.30000000000000004	4	6	2.8	1.8000000000000005	valid	0.3999092459998792	51200	0	0	2	51200	1	51200	1	53248	0	0.7	51200	brown	green	0	4	ml	2.7.3	lorasick	sub-03_ses-02_task-ml_proj-lorasick_2020-10-27-14-00-09.846491
148	3	2	3	149	volatile	6	40	9	vs	green	brown	green	brown	left	right	0.30000000000000004	0.7	4	2	1.2000000000000002	1.4	0	1	0.30000000000000004	0.7	4	2	1.2000000000000002	1.4	valid	0.6331716790009523	51200	0	0	1	53248	0	53248	0	51200	1	0.7	53248	brown	green	0	0	ml	2.7.3	lorasick	sub-03_ses-02_task-ml_proj-lorasick_2020-10-27-14-00-09.846491
149	3	2	3	150	volatile	6	40	10	vs	green	brown	green	brown	left	right	0.30000000000000004	0.7	2	6	0.6000000000000001	4.199999999999998	0	1	0.30000000000000004	0.7	2	6	0.6000000000000001	4.199999999999998	valid	0.3999191420007264	53248	0	1	2	53248	1	53248	1	53248	1	0.7	53248	brown	green	1	6	ml	2.7.3	lorasick	sub-03_ses-02_task-ml_proj-lorasick_2020-10-27-14-00-09.846491
150	3	2	4	151	volatile	6	40	11	vs	brown	green	green	brown	right	left	0.30000000000000004	0.7	6	6	1.8000000000000005	4.199999999999998	0	1	0.7	0.30000000000000004	6	6	4.199999999999998	1.8000000000000005	valid	0.5665368840018346	53248	0	1	1	51200	0	51200	0	53248	1	0.7	51200	brown	green	1	0	ml	2.7.3	lorasick	sub-03_ses-02_task-ml_proj-lorasick_2020-10-27-14-00-09.846491
151	3	2	4	152	volatile	6	40	12	vs	green	brown	green	brown	left	right	0.30000000000000004	0.7	10	2	3.0000000000000004	1.4	0	1	0.30000000000000004	0.7	10	2	3.0000000000000004	1.4	valid	0.4498933399991074	51200	0	0	1	51200	1	53248	0	51200	1	0.7	53248	brown	green	0	0	ml	2.7.3	lorasick	sub-03_ses-02_task-ml_proj-lorasick_2020-10-27-14-00-09.846491
152	3	2	4	153	volatile	6	40	13	vs	brown	green	green	brown	right	left	0.30000000000000004	0.7	2	2	0.6000000000000001	1.4	0	1	0.7	0.30000000000000004	2	2	1.4	0.6000000000000001	valid	0.4665647269976034	53248	0	1	1	51200	0	51200	0	53248	1	0.7	51200	brown	green	1	0	ml	2.7.3	lorasick	sub-03_ses-02_task-ml_proj-lorasick_2020-10-27-14-00-09.846491
153	3	2	4	154	volatile	6	40	14	vs	green	brown	green	brown	left	right	0.30000000000000004	0.7	4	2	1.2000000000000002	1.4	1	0	0.30000000000000004	0.7	4	2	1.2000000000000002	1.4	invalid	0.8331111910010804	51200	0	0	1	53248	0	53248	0	51200	1	0.7	53248	brown	green	0	4	ml	2.7.3	lorasick	sub-03_ses-02_task-ml_proj-lorasick_2020-10-27-14-00-09.846491
154	3	2	4	155	volatile	6	40	15	vs	brown	green	green	brown	right	left	0.30000000000000004	0.7	6	6	1.8000000000000005	4.199999999999998	0	1	0.7	0.30000000000000004	6	6	4.199999999999998	1.8000000000000005	valid	0.7331531409981835	53248	0	1	1	51200	0	51200	0	53248	1	0.7	51200	brown	green	1	0	ml	2.7.3	lorasick	sub-03_ses-02_task-ml_proj-lorasick_2020-10-27-14-00-09.846491
155	3	2	4	156	volatile	6	40	16	vs	green	brown	green	brown	left	right	0.30000000000000004	0.7	2	2	0.6000000000000001	1.4	0	1	0.30000000000000004	0.7	2	2	0.6000000000000001	1.4	valid	0.6331824979970406	53248	0	1	2	53248	1	53248	1	53248	1	0.7	53248	brown	green	0	2	ml	2.7.3	lorasick	sub-03_ses-02_task-ml_proj-lorasick_2020-10-27-14-00-09.846491
156	3	2	4	157	volatile	6	40	17	vs	brown	green	green	brown	right	left	0.30000000000000004	0.7	4	6	1.2000000000000002	4.199999999999998	0	1	0.7	0.30000000000000004	6	4	4.199999999999998	1.2000000000000002	valid	0.3665830039972207	51200	0	0	2	51200	1	51200	1	51200	1	0.7	51200	brown	green	1	6	ml	2.7.3	lorasick	sub-03_ses-02_task-ml_proj-lorasick_2020-10-27-14-00-09.846491
157	3	2	4	158	volatile	6	40	18	vs	brown	green	green	brown	right	left	0.30000000000000004	0.7	6	2	1.8000000000000005	1.4	1	0	0.7	0.30000000000000004	2	6	1.4	1.8000000000000005	invalid	0.533199755998794	51200	0	0	2	53248	0	51200	1	53248	0	0.7	51200	brown	green	0	0	ml	2.7.3	lorasick	sub-03_ses-02_task-ml_proj-lorasick_2020-10-27-14-00-09.846491
158	3	2	4	159	volatile	6	40	19	vs	brown	green	green	brown	right	left	0.30000000000000004	0.7	2	2	0.6000000000000001	1.4	0	1	0.7	0.30000000000000004	2	2	1.4	0.6000000000000001	valid	0.3832463369981269	51200	0	0	2	51200	1	51200	1	53248	0	0.7	51200	brown	green	1	2	ml	2.7.3	lorasick	sub-03_ses-02_task-ml_proj-lorasick_2020-10-27-14-00-09.846491
159	3	2	4	160	volatile	6	40	20	vs	green	brown	green	brown	left	right	0.30000000000000004	0.7	6	4	1.8000000000000005	2.8	0	1	0.30000000000000004	0.7	6	4	1.8000000000000005	2.8	valid	0.6331906140003412	53248	0	1	2	53248	1	53248	1	51200	0	0.7	53248	brown	green	0	4	ml	2.7.3	lorasick	sub-03_ses-02_task-ml_proj-lorasick_2020-10-27-14-00-09.846491
160	3	2	4	161	volatile	6	40	21	vs	brown	green	green	brown	right	left	0.30000000000000004	0.7	2	6	0.6000000000000001	4.199999999999998	0	1	0.7	0.30000000000000004	6	2	4.199999999999998	0.6000000000000001	valid	0.4498925029984093	51200	0	0	2	51200	1	51200	1	51200	1	0.7	51200	brown	green	1	6	ml	2.7.3	lorasick	sub-03_ses-02_task-ml_proj-lorasick_2020-10-27-14-00-09.846491
161	3	2	4	162	volatile	6	40	22	vs	green	brown	green	brown	left	right	0.30000000000000004	0.7	6	6	1.8000000000000005	4.199999999999998	0	1	0.30000000000000004	0.7	6	6	1.8000000000000005	4.199999999999998	valid	0.4998890169990773	53248	0	1	2	53248	1	53248	1	53248	1	0.7	53248	brown	green	0	6	ml	2.7.3	lorasick	sub-03_ses-02_task-ml_proj-lorasick_2020-10-27-14-00-09.846491
162	3	2	4	163	volatile	6	40	23	vs	brown	green	green	brown	right	left	0.30000000000000004	0.7	2	6	0.6000000000000001	4.199999999999998	0	1	0.7	0.30000000000000004	6	2	4.199999999999998	0.6000000000000001	valid	0.5332015200001479	51200	0	0	2	51200	1	51200	1	51200	1	0.7	51200	brown	green	1	6	ml	2.7.3	lorasick	sub-03_ses-02_task-ml_proj-lorasick_2020-10-27-14-00-09.846491
163	3	2	4	164	volatile	6	40	24	vs	brown	green	green	brown	right	left	0.30000000000000004	0.7	10	2	3.0000000000000004	1.4	0	1	0.7	0.30000000000000004	2	10	1.4	3.0000000000000004	valid	0.7331585300016741	53248	0	1	1	53248	1	51200	0	53248	1	0.7	51200	brown	green	0	0	ml	2.7.3	lorasick	sub-03_ses-02_task-ml_proj-lorasick_2020-10-27-14-00-09.846491
164	3	2	4	165	volatile	6	40	25	vs	green	brown	green	brown	left	right	0.30000000000000004	0.7	2	4	0.6000000000000001	2.8	0	1	0.30000000000000004	0.7	2	4	0.6000000000000001	2.8	valid	0.5165545969975938	53248	0	1	2	53248	1	53248	1	53248	1	0.7	53248	brown	green	1	4	ml	2.7.3	lorasick	sub-03_ses-02_task-ml_proj-lorasick_2020-10-27-14-00-09.846491
165	3	2	4	166	volatile	6	40	26	vs	green	brown	green	brown	left	right	0.30000000000000004	0.7	4	6	1.2000000000000002	4.199999999999998	0	1	0.30000000000000004	0.7	4	6	1.2000000000000002	4.199999999999998	valid	0.3999197999983153	53248	0	1	2	53248	1	53248	1	53248	1	0.7	53248	brown	green	1	6	ml	2.7.3	lorasick	sub-03_ses-02_task-ml_proj-lorasick_2020-10-27-14-00-09.846491
166	3	2	4	167	volatile	6	40	27	vs	brown	green	green	brown	right	left	0.30000000000000004	0.7	4	2	1.2000000000000002	1.4	0	1	0.7	0.30000000000000004	2	4	1.4	1.2000000000000002	valid	0.5332004420015437	51200	0	0	2	51200	1	51200	1	53248	0	0.7	51200	brown	green	0	2	ml	2.7.3	lorasick	sub-03_ses-02_task-ml_proj-lorasick_2020-10-27-14-00-09.846491
167	3	2	4	168	volatile	6	40	28	vs	green	brown	green	brown	left	right	0.30000000000000004	0.7	4	6	1.2000000000000002	4.199999999999998	0	1	0.30000000000000004	0.7	4	6	1.2000000000000002	4.199999999999998	valid	0.3999188640009379	53248	0	1	2	53248	1	53248	1	53248	1	0.7	53248	brown	green	1	6	ml	2.7.3	lorasick	sub-03_ses-02_task-ml_proj-lorasick_2020-10-27-14-00-09.846491
168	3	2	4	169	volatile	6	40	29	vs	green	brown	green	brown	left	right	0.30000000000000004	0.7	6	4	1.8000000000000005	2.8	1	0	0.30000000000000004	0.7	6	4	1.8000000000000005	2.8	invalid	0.4332436779986893	53248	0	1	2	53248	1	53248	1	51200	0	0.7	53248	brown	green	0	0	ml	2.7.3	lorasick	sub-03_ses-02_task-ml_proj-lorasick_2020-10-27-14-00-09.846491
169	3	2	4	170	volatile	6	40	30	vs	brown	green	green	brown	right	left	0.30000000000000004	0.7	4	2	1.2000000000000002	1.4	1	0	0.7	0.30000000000000004	2	4	1.4	1.2000000000000002	invalid	0.3499237259966321	51200	0	0	2	51200	1	51200	1	53248	0	0.7	51200	brown	green	0	0	ml	2.7.3	lorasick	sub-03_ses-02_task-ml_proj-lorasick_2020-10-27-14-00-09.846491
170	3	2	4	171	volatile	6	40	31	vs	green	brown	green	brown	left	right	0.30000000000000004	0.7	6	4	1.8000000000000005	2.8	0	1	0.30000000000000004	0.7	6	4	1.8000000000000005	2.8	valid	0.4332325909999781	51200	0	0	1	53248	0	53248	0	51200	1	0.7	53248	brown	green	0	0	ml	2.7.3	lorasick	sub-03_ses-02_task-ml_proj-lorasick_2020-10-27-14-00-09.846491
171	3	2	4	172	volatile	6	40	32	vs	green	brown	green	brown	left	right	0.30000000000000004	0.7	10	2	3.0000000000000004	1.4	1	0	0.30000000000000004	0.7	10	2	3.0000000000000004	1.4	invalid	0.4832114399978309	51200	0	0	1	51200	1	53248	0	51200	1	0.7	53248	brown	green	0	10	ml	2.7.3	lorasick	sub-03_ses-02_task-ml_proj-lorasick_2020-10-27-14-00-09.846491
172	3	2	4	173	volatile	6	40	33	vs	brown	green	green	brown	right	left	0.30000000000000004	0.7	10	2	3.0000000000000004	1.4	1	0	0.7	0.30000000000000004	2	10	1.4	3.0000000000000004	invalid	0.43324042799940793	53248	0	1	1	53248	1	51200	0	53248	1	0.7	51200	brown	green	0	10	ml	2.7.3	lorasick	sub-03_ses-02_task-ml_proj-lorasick_2020-10-27-14-00-09.846491
173	3	2	4	174	volatile	6	40	34	vs	green	brown	green	brown	left	right	0.30000000000000004	0.7	2	4	0.6000000000000001	2.8	0	1	0.30000000000000004	0.7	2	4	0.6000000000000001	2.8	valid	0.5831937190014287	53248	0	1	2	53248	1	53248	1	53248	1	0.7	53248	brown	green	1	4	ml	2.7.3	lorasick	sub-03_ses-02_task-ml_proj-lorasick_2020-10-27-14-00-09.846491
174	3	2	4	175	volatile	6	40	35	vs	green	brown	green	brown	left	right	0.30000000000000004	0.7	2	6	0.6000000000000001	4.199999999999998	0	1	0.30000000000000004	0.7	2	6	0.6000000000000001	4.199999999999998	valid	0.3999164679989917	53248	0	1	2	53248	1	53248	1	53248	1	0.7	53248	brown	green	1	6	ml	2.7.3	lorasick	sub-03_ses-02_task-ml_proj-lorasick_2020-10-27-14-00-09.846491
175	3	2	4	176	volatile	6	40	36	vs	green	brown	green	brown	left	right	0.30000000000000004	0.7	6	2	1.8000000000000005	1.4	1	0	0.30000000000000004	0.7	6	2	1.8000000000000005	1.4	invalid	0.5498638779972679	51200	0	0	1	51200	1	53248	0	51200	1	0.7	53248	brown	green	0	6	ml	2.7.3	lorasick	sub-03_ses-02_task-ml_proj-lorasick_2020-10-27-14-00-09.846491
176	3	2	4	177	volatile	6	40	37	vs	green	brown	green	brown	left	right	0.30000000000000004	0.7	4	6	1.2000000000000002	4.199999999999998	0	1	0.30000000000000004	0.7	4	6	1.2000000000000002	4.199999999999998	valid	0.4499039990005258	53248	0	1	2	53248	1	53248	1	53248	1	0.7	53248	brown	green	1	6	ml	2.7.3	lorasick	sub-03_ses-02_task-ml_proj-lorasick_2020-10-27-14-00-09.846491
177	3	2	4	178	volatile	6	40	38	vs	brown	green	green	brown	right	left	0.30000000000000004	0.7	10	2	3.0000000000000004	1.4	0	1	0.7	0.30000000000000004	2	10	1.4	3.0000000000000004	valid	0.4665648189984495	53248	0	1	1	53248	1	51200	0	53248	1	0.7	51200	brown	green	0	0	ml	2.7.3	lorasick	sub-03_ses-02_task-ml_proj-lorasick_2020-10-27-14-00-09.846491
178	3	2	4	179	volatile	6	40	39	vs	green	brown	green	brown	left	right	0.30000000000000004	0.7	6	6	1.8000000000000005	4.199999999999998	1	0	0.30000000000000004	0.7	6	6	1.8000000000000005	4.199999999999998	invalid	0.4332282309987932	51200	0	0	1	53248	0	53248	0	53248	0	0.7	53248	brown	green	0	6	ml	2.7.3	lorasick	sub-03_ses-02_task-ml_proj-lorasick_2020-10-27-14-00-09.846491
179	3	2	4	180	volatile	6	40	40	vs	brown	green	green	brown	right	left	0.30000000000000004	0.7	2	6	0.6000000000000001	4.199999999999998	0	1	0.7	0.30000000000000004	6	2	4.199999999999998	0.6000000000000001	valid	0.4665490860024874	51200	0	0	2	51200	1	51200	1	51200	1	0.7	51200	brown	green	1	6	ml	2.7.3	lorasick	sub-03_ses-02_task-ml_proj-lorasick_2020-10-27-14-00-09.846491
180	3	2	4	181	volatile	7	20	1	vs	green	brown	green	brown	left	right	0.7	0.30000000000000004	4	2	2.8	0.6000000000000001	1	0	0.7	0.30000000000000004	4	2	2.8	0.6000000000000001	valid	0.5332062429988582	51200	0	0	1	51200	1	51200	1	51200	1	0.7	51200	green	brown	1	4	ml	2.7.3	lorasick	sub-03_ses-02_task-ml_proj-lorasick_2020-10-27-14-00-09.846491
181	3	2	4	182	volatile	7	20	2	vs	brown	green	green	brown	right	left	0.7	0.30000000000000004	6	4	4.199999999999998	1.2000000000000002	1	0	0.30000000000000004	0.7	4	6	1.2000000000000002	4.199999999999998	valid	0.4165749559979304	53248	0	1	1	53248	1	53248	1	53248	1	0.7	53248	green	brown	1	6	ml	2.7.3	lorasick	sub-03_ses-02_task-ml_proj-lorasick_2020-10-27-14-00-09.846491
182	3	2	4	183	volatile	7	20	3	vs	brown	green	green	brown	right	left	0.7	0.30000000000000004	6	4	4.199999999999998	1.2000000000000002	1	0	0.30000000000000004	0.7	4	6	1.2000000000000002	4.199999999999998	valid	0.4998760779999429	51200	0	0	2	53248	0	53248	0	53248	0	0.7	53248	green	brown	1	0	ml	2.7.3	lorasick	sub-03_ses-02_task-ml_proj-lorasick_2020-10-27-14-00-09.846491
183	3	2	4	184	volatile	7	20	4	vs	green	brown	green	brown	left	right	0.7	0.30000000000000004	6	6	4.199999999999998	1.8000000000000005	0	1	0.7	0.30000000000000004	6	6	4.199999999999998	1.8000000000000005	invalid	0.499877584999922	51200	0	0	1	51200	1	51200	1	53248	0	0.7	51200	green	brown	1	0	ml	2.7.3	lorasick	sub-03_ses-02_task-ml_proj-lorasick_2020-10-27-14-00-09.846491
184	3	2	4	185	volatile	7	20	5	vs	green	brown	green	brown	left	right	0.7	0.30000000000000004	6	2	4.199999999999998	0.6000000000000001	0	1	0.7	0.30000000000000004	6	2	4.199999999999998	0.6000000000000001	invalid	0.4165743490011664	51200	0	0	1	51200	1	51200	1	51200	1	0.7	51200	green	brown	1	0	ml	2.7.3	lorasick	sub-03_ses-02_task-ml_proj-lorasick_2020-10-27-14-00-09.846491
185	3	2	4	186	volatile	7	20	6	vs	green	brown	green	brown	left	right	0.7	0.30000000000000004	2	2	1.4	0.6000000000000001	1	0	0.7	0.30000000000000004	2	2	1.4	0.6000000000000001	valid	0.5498722749980516	53248	0	1	2	51200	0	51200	0	53248	1	0.7	51200	green	brown	1	0	ml	2.7.3	lorasick	sub-03_ses-02_task-ml_proj-lorasick_2020-10-27-14-00-09.846491
186	3	2	4	187	volatile	7	20	7	vs	green	brown	green	brown	left	right	0.7	0.30000000000000004	2	4	1.4	1.2000000000000002	0	1	0.7	0.30000000000000004	2	4	1.4	1.2000000000000002	invalid	0.3832565189986781	53248	0	1	2	51200	0	51200	0	53248	1	0.7	51200	green	brown	0	4	ml	2.7.3	lorasick	sub-03_ses-02_task-ml_proj-lorasick_2020-10-27-14-00-09.846491
187	3	2	4	188	volatile	7	20	8	vs	green	brown	green	brown	left	right	0.7	0.30000000000000004	10	2	7.0	0.6000000000000001	1	0	0.7	0.30000000000000004	10	2	7.0	0.6000000000000001	valid	0.5332010789970809	51200	0	0	1	51200	1	51200	1	51200	1	0.7	51200	green	brown	1	10	ml	2.7.3	lorasick	sub-03_ses-02_task-ml_proj-lorasick_2020-10-27-14-00-09.846491
188	3	2	4	189	volatile	7	20	9	vs	brown	green	green	brown	right	left	0.7	0.30000000000000004	4	6	2.8	1.8000000000000005	0	1	0.30000000000000004	0.7	6	4	1.8000000000000005	2.8	invalid	0.5332017210021149	51200	0	0	2	53248	0	53248	0	51200	1	0.7	53248	green	brown	0	6	ml	2.7.3	lorasick	sub-03_ses-02_task-ml_proj-lorasick_2020-10-27-14-00-09.846491
189	3	2	4	190	volatile	7	20	10	vs	brown	green	green	brown	right	left	0.7	0.30000000000000004	2	6	1.4	1.8000000000000005	1	0	0.30000000000000004	0.7	6	2	1.8000000000000005	1.4	valid	0.4498986899998272	51200	0	0	2	51200	1	53248	0	51200	1	0.7	53248	green	brown	0	0	ml	2.7.3	lorasick	sub-03_ses-02_task-ml_proj-lorasick_2020-10-27-14-00-09.846491
190	3	2	4	191	volatile	7	20	11	vs	brown	green	green	brown	right	left	0.7	0.30000000000000004	10	2	7.0	0.6000000000000001	1	0	0.30000000000000004	0.7	2	10	0.6000000000000001	7.0	valid	0.3999484029991436	53248	0	1	1	53248	1	53248	1	53248	1	0.7	53248	green	brown	1	10	ml	2.7.3	lorasick	sub-03_ses-02_task-ml_proj-lorasick_2020-10-27-14-00-09.846491
191	3	2	4	192	volatile	7	20	12	vs	green	brown	green	brown	left	right	0.7	0.30000000000000004	2	4	1.4	1.2000000000000002	1	0	0.7	0.30000000000000004	2	4	1.4	1.2000000000000002	valid	0.5998571679992892	53248	0	1	2	51200	0	51200	0	53248	1	0.7	51200	green	brown	0	0	ml	2.7.3	lorasick	sub-03_ses-02_task-ml_proj-lorasick_2020-10-27-14-00-09.846491
192	3	2	4	193	volatile	7	20	13	vs	green	brown	green	brown	left	right	0.7	0.30000000000000004	10	2	7.0	0.6000000000000001	1	0	0.7	0.30000000000000004	10	2	7.0	0.6000000000000001	valid	0.3832405409993953	51200	0	0	1	51200	1	51200	1	51200	1	0.7	51200	green	brown	1	10	ml	2.7.3	lorasick	sub-03_ses-02_task-ml_proj-lorasick_2020-10-27-14-00-09.846491
193	3	2	4	194	volatile	7	20	14	vs	brown	green	green	brown	right	left	0.7	0.30000000000000004	6	2	4.199999999999998	0.6000000000000001	1	0	0.30000000000000004	0.7	2	6	0.6000000000000001	4.199999999999998	valid	0.3665967830020236	53248	0	1	1	53248	1	53248	1	53248	1	0.7	53248	green	brown	1	6	ml	2.7.3	lorasick	sub-03_ses-02_task-ml_proj-lorasick_2020-10-27-14-00-09.846491
194	3	2	4	195	volatile	7	20	15	vs	brown	green	green	brown	right	left	0.7	0.30000000000000004	6	2	4.199999999999998	0.6000000000000001	1	0	0.30000000000000004	0.7	2	6	0.6000000000000001	4.199999999999998	valid	0.4332429339992814	53248	0	1	1	53248	1	53248	1	53248	1	0.7	53248	green	brown	1	6	ml	2.7.3	lorasick	sub-03_ses-02_task-ml_proj-lorasick_2020-10-27-14-00-09.846491
195	3	2	4	196	volatile	7	20	16	vs	green	brown	green	brown	left	right	0.7	0.30000000000000004	6	6	4.199999999999998	1.8000000000000005	1	0	0.7	0.30000000000000004	6	6	4.199999999999998	1.8000000000000005	valid	0.3832466439998825	51200	0	0	1	51200	1	51200	1	53248	0	0.7	51200	green	brown	1	6	ml	2.7.3	lorasick	sub-03_ses-02_task-ml_proj-lorasick_2020-10-27-14-00-09.846491
196	3	2	4	197	volatile	7	20	17	vs	green	brown	green	brown	left	right	0.7	0.30000000000000004	2	2	1.4	0.6000000000000001	1	0	0.7	0.30000000000000004	2	2	1.4	0.6000000000000001	valid	0.5498637499986216	51200	0	0	1	51200	1	51200	1	53248	0	0.7	51200	green	brown	1	2	ml	2.7.3	lorasick	sub-03_ses-02_task-ml_proj-lorasick_2020-10-27-14-00-09.846491
197	3	2	4	198	volatile	7	20	18	vs	brown	green	green	brown	right	left	0.7	0.30000000000000004	4	6	2.8	1.8000000000000005	1	0	0.30000000000000004	0.7	6	4	1.8000000000000005	2.8	valid	0.4332405889981601	53248	0	1	1	53248	1	53248	1	51200	0	0.7	53248	green	brown	0	4	ml	2.7.3	lorasick	sub-03_ses-02_task-ml_proj-lorasick_2020-10-27-14-00-09.846491
198	3	2	4	199	volatile	7	20	19	vs	brown	green	green	brown	right	left	0.7	0.30000000000000004	10	2	7.0	0.6000000000000001	0	1	0.30000000000000004	0.7	2	10	0.6000000000000001	7.0	invalid	0.4165792659987346	53248	0	1	1	53248	1	53248	1	53248	1	0.7	53248	green	brown	1	0	ml	2.7.3	lorasick	sub-03_ses-02_task-ml_proj-lorasick_2020-10-27-14-00-09.846491
199	3	2	4	200	volatile	7	20	20	vs	brown	green	green	brown	right	left	0.7	0.30000000000000004	2	4	1.4	1.2000000000000002	0	1	0.30000000000000004	0.7	4	2	1.2000000000000002	1.4	invalid	0.5498759359979886	53248	0	1	1	53248	1	53248	1	51200	0	0.7	53248	green	brown	0	0	ml	2.7.3	lorasick	sub-03_ses-02_task-ml_proj-lorasick_2020-10-27-14-00-09.846491
200	3	2	5	201	stable	8	200	1	vs	green	brown	green	brown	left	right	0.30000000000000004	0.7	2	10	0.6000000000000001	7.0	1	0	0.30000000000000004	0.7	2	10	0.6000000000000001	7.0	invalid	0.4332418519989005	53248	0	1	2	53248	1	53248	1	53248	1	0.7	53248	brown	green	1	0	ml	2.7.3	lorasick	sub-03_ses-02_task-ml_proj-lorasick_2020-10-27-14-00-09.846491
201	3	2	5	202	stable	8	200	2	vs	brown	green	green	brown	right	left	0.30000000000000004	0.7	2	4	0.6000000000000001	2.8	0	1	0.7	0.30000000000000004	4	2	2.8	0.6000000000000001	valid	0.3665858409985958	51200	0	0	2	51200	1	51200	1	51200	1	0.7	51200	brown	green	1	4	ml	2.7.3	lorasick	sub-03_ses-02_task-ml_proj-lorasick_2020-10-27-14-00-09.846491
202	3	2	5	203	stable	8	200	3	vs	brown	green	green	brown	right	left	0.30000000000000004	0.7	6	2	1.8000000000000005	1.4	0	1	0.7	0.30000000000000004	2	6	1.4	1.8000000000000005	valid	0.4165682740022021	51200	0	0	2	53248	0	51200	1	53248	0	0.7	51200	brown	green	0	2	ml	2.7.3	lorasick	sub-03_ses-02_task-ml_proj-lorasick_2020-10-27-14-00-09.846491
203	3	2	5	204	stable	8	200	4	vs	brown	green	green	brown	right	left	0.30000000000000004	0.7	2	2	0.6000000000000001	1.4	0	1	0.7	0.30000000000000004	2	2	1.4	0.6000000000000001	valid	0.4665583519999928	51200	0	0	2	51200	1	51200	1	53248	0	0.7	51200	brown	green	1	2	ml	2.7.3	lorasick	sub-03_ses-02_task-ml_proj-lorasick_2020-10-27-14-00-09.846491
204	3	2	5	205	stable	8	200	5	vs	brown	green	green	brown	right	left	0.30000000000000004	0.7	6	6	1.8000000000000005	4.199999999999998	0	1	0.7	0.30000000000000004	6	6	4.199999999999998	1.8000000000000005	valid	0.4998753010004293	51200	0	0	2	51200	1	51200	1	53248	0	0.7	51200	brown	green	1	6	ml	2.7.3	lorasick	sub-03_ses-02_task-ml_proj-lorasick_2020-10-27-14-00-09.846491
205	3	2	5	206	stable	8	200	6	vs	green	brown	green	brown	left	right	0.30000000000000004	0.7	2	10	0.6000000000000001	7.0	0	1	0.30000000000000004	0.7	2	10	0.6000000000000001	7.0	valid	0.3832571249986359	53248	0	1	2	53248	1	53248	1	53248	1	0.7	53248	brown	green	1	10	ml	2.7.3	lorasick	sub-03_ses-02_task-ml_proj-lorasick_2020-10-27-14-00-09.846491
206	3	2	5	207	stable	8	200	7	vs	green	brown	green	brown	left	right	0.30000000000000004	0.7	2	6	0.6000000000000001	4.199999999999998	1	0	0.30000000000000004	0.7	2	6	0.6000000000000001	4.199999999999998	invalid	0.4832177489988681	53248	0	1	2	53248	1	53248	1	53248	1	0.7	53248	brown	green	1	0	ml	2.7.3	lorasick	sub-03_ses-02_task-ml_proj-lorasick_2020-10-27-14-00-09.846491
207	3	2	5	208	stable	8	200	8	vs	brown	green	green	brown	right	left	0.30000000000000004	0.7	6	6	1.8000000000000005	4.199999999999998	0	1	0.7	0.30000000000000004	6	6	4.199999999999998	1.8000000000000005	valid	0.3665846059993783	51200	0	0	2	51200	1	51200	1	53248	0	0.7	51200	brown	green	1	6	ml	2.7.3	lorasick	sub-03_ses-02_task-ml_proj-lorasick_2020-10-27-14-00-09.846491
208	3	2	5	209	stable	8	200	9	vs	green	brown	green	brown	left	right	0.30000000000000004	0.7	2	6	0.6000000000000001	4.199999999999998	1	0	0.30000000000000004	0.7	2	6	0.6000000000000001	4.199999999999998	invalid	0.3832564740005182	53248	0	1	2	53248	1	53248	1	53248	1	0.7	53248	brown	green	1	0	ml	2.7.3	lorasick	sub-03_ses-02_task-ml_proj-lorasick_2020-10-27-14-00-09.846491
209	3	2	5	210	stable	8	200	10	vs	green	brown	green	brown	left	right	0.30000000000000004	0.7	4	2	1.2000000000000002	1.4	0	1	0.30000000000000004	0.7	4	2	1.2000000000000002	1.4	valid	0.3999197529992671	53248	0	1	2	53248	1	53248	1	51200	0	0.7	53248	brown	green	0	2	ml	2.7.3	lorasick	sub-03_ses-02_task-ml_proj-lorasick_2020-10-27-14-00-09.846491
210	3	2	5	211	stable	8	200	11	vs	brown	green	green	brown	right	left	0.30000000000000004	0.7	2	10	0.6000000000000001	7.0	0	1	0.7	0.30000000000000004	10	2	7.0	0.6000000000000001	valid	0.3499227250031254	51200	0	0	2	51200	1	51200	1	51200	1	0.7	51200	brown	green	1	10	ml	2.7.3	lorasick	sub-03_ses-02_task-ml_proj-lorasick_2020-10-27-14-00-09.846491
211	3	2	5	212	stable	8	200	12	vs	brown	green	green	brown	right	left	0.30000000000000004	0.7	2	4	0.6000000000000001	2.8	0	1	0.7	0.30000000000000004	4	2	2.8	0.6000000000000001	valid	0.41656834300010814	51200	0	0	2	51200	1	51200	1	51200	1	0.7	51200	brown	green	1	4	ml	2.7.3	lorasick	sub-03_ses-02_task-ml_proj-lorasick_2020-10-27-14-00-09.846491
212	3	2	5	213	stable	8	200	13	vs	brown	green	green	brown	right	left	0.30000000000000004	0.7	6	6	1.8000000000000005	4.199999999999998	0	1	0.7	0.30000000000000004	6	6	4.199999999999998	1.8000000000000005	valid	0.3499172479969275	51200	0	0	2	51200	1	51200	1	53248	0	0.7	51200	brown	green	1	6	ml	2.7.3	lorasick	sub-03_ses-02_task-ml_proj-lorasick_2020-10-27-14-00-09.846491
213	3	2	5	214	stable	8	200	14	vs	green	brown	green	brown	left	right	0.30000000000000004	0.7	10	2	3.0000000000000004	1.4	1	0	0.30000000000000004	0.7	10	2	3.0000000000000004	1.4	invalid	0.5665230640006484	51200	0	0	1	51200	1	53248	0	51200	1	0.7	53248	brown	green	0	10	ml	2.7.3	lorasick	sub-03_ses-02_task-ml_proj-lorasick_2020-10-27-14-00-09.846491
214	3	2	5	215	stable	8	200	15	vs	green	brown	green	brown	left	right	0.30000000000000004	0.7	6	6	1.8000000000000005	4.199999999999998	1	0	0.30000000000000004	0.7	6	6	1.8000000000000005	4.199999999999998	invalid	0.5498554890000378	51200	0	0	1	53248	0	53248	0	53248	0	0.7	53248	brown	green	0	6	ml	2.7.3	lorasick	sub-03_ses-02_task-ml_proj-lorasick_2020-10-27-14-00-09.846491
215	3	2	5	216	stable	8	200	16	vs	green	brown	green	brown	left	right	0.30000000000000004	0.7	6	4	1.8000000000000005	2.8	0	1	0.30000000000000004	0.7	6	4	1.8000000000000005	2.8	valid	0.3332577900000615	51200	0	0	1	53248	0	53248	0	51200	1	0.7	53248	brown	green	0	0	ml	2.7.3	lorasick	sub-03_ses-02_task-ml_proj-lorasick_2020-10-27-14-00-09.846491
216	3	2	5	217	stable	8	200	17	vs	green	brown	green	brown	left	right	0.30000000000000004	0.7	2	2	0.6000000000000001	1.4	0	1	0.30000000000000004	0.7	2	2	0.6000000000000001	1.4	valid	0.6165123550017597	51200	0	0	1	53248	0	53248	0	53248	0	0.7	53248	brown	green	0	0	ml	2.7.3	lorasick	sub-03_ses-02_task-ml_proj-lorasick_2020-10-27-14-00-09.846491
217	3	2	5	218	stable	8	200	18	vs	brown	green	green	brown	right	left	0.30000000000000004	0.7	10	2	3.0000000000000004	1.4	1	0	0.7	0.30000000000000004	2	10	1.4	3.0000000000000004	invalid	0.8497841209973558	53248	0	1	1	53248	1	51200	0	53248	1	0.7	51200	brown	green	0	10	ml	2.7.3	lorasick	sub-03_ses-02_task-ml_proj-lorasick_2020-10-27-14-00-09.846491
218	3	2	5	219	stable	8	200	19	vs	brown	green	green	brown	right	left	0.30000000000000004	0.7	2	4	0.6000000000000001	2.8	1	0	0.7	0.30000000000000004	4	2	2.8	0.6000000000000001	invalid	0.5998607239998819	53248	0	1	1	51200	0	51200	0	51200	0	0.7	51200	brown	green	1	2	ml	2.7.3	lorasick	sub-03_ses-02_task-ml_proj-lorasick_2020-10-27-14-00-09.846491
219	3	2	5	220	stable	8	200	20	vs	green	brown	green	brown	left	right	0.30000000000000004	0.7	6	4	1.8000000000000005	2.8	1	0	0.30000000000000004	0.7	6	4	1.8000000000000005	2.8	invalid	0.43324212500010617	51200	0	0	1	53248	0	53248	0	51200	1	0.7	53248	brown	green	0	6	ml	2.7.3	lorasick	sub-03_ses-02_task-ml_proj-lorasick_2020-10-27-14-00-09.846491
220	3	2	5	221	stable	8	200	21	vs	brown	green	green	brown	right	left	0.30000000000000004	0.7	6	4	1.8000000000000005	2.8	0	1	0.7	0.30000000000000004	4	6	2.8	1.8000000000000005	valid	0.4665644309970958	53248	0	1	1	51200	0	51200	0	53248	1	0.7	51200	brown	green	0	0	ml	2.7.3	lorasick	sub-03_ses-02_task-ml_proj-lorasick_2020-10-27-14-00-09.846491
221	3	2	5	222	stable	8	200	22	vs	green	brown	green	brown	left	right	0.30000000000000004	0.7	4	2	1.2000000000000002	1.4	0	1	0.30000000000000004	0.7	4	2	1.2000000000000002	1.4	valid	0.4832150000002002	51200	0	0	1	53248	0	53248	0	51200	1	0.7	53248	brown	green	0	0	ml	2.7.3	lorasick	sub-03_ses-02_task-ml_proj-lorasick_2020-10-27-14-00-09.846491
222	3	2	5	223	stable	8	200	23	vs	green	brown	green	brown	left	right	0.30000000000000004	0.7	2	4	0.6000000000000001	2.8	1	0	0.30000000000000004	0.7	2	4	0.6000000000000001	2.8	invalid	0.4165807259996655	53248	0	1	2	53248	1	53248	1	53248	1	0.7	53248	brown	green	1	0	ml	2.7.3	lorasick	sub-03_ses-02_task-ml_proj-lorasick_2020-10-27-14-00-09.846491
223	3	2	5	224	stable	8	200	24	vs	green	brown	green	brown	left	right	0.30000000000000004	0.7	6	6	1.8000000000000005	4.199999999999998	1	0	0.30000000000000004	0.7	6	6	1.8000000000000005	4.199999999999998	invalid	0.4499007209997217	51200	0	0	1	53248	0	53248	0	53248	0	0.7	53248	brown	green	0	6	ml	2.7.3	lorasick	sub-03_ses-02_task-ml_proj-lorasick_2020-10-27-14-00-09.846491
224	3	2	5	225	stable	8	200	25	vs	brown	green	green	brown	right	left	0.30000000000000004	0.7	2	4	0.6000000000000001	2.8	0	1	0.7	0.30000000000000004	4	2	2.8	0.6000000000000001	valid	0.5332007860015437	51200	0	0	2	51200	1	51200	1	51200	1	0.7	51200	brown	green	1	4	ml	2.7.3	lorasick	sub-03_ses-02_task-ml_proj-lorasick_2020-10-27-14-00-09.846491
225	3	2	5	226	stable	8	200	26	vs	brown	green	green	brown	right	left	0.30000000000000004	0.7	2	10	0.6000000000000001	7.0	0	1	0.7	0.30000000000000004	10	2	7.0	0.6000000000000001	valid	0.3665821629983839	51200	0	0	2	51200	1	51200	1	51200	1	0.7	51200	brown	green	1	10	ml	2.7.3	lorasick	sub-03_ses-02_task-ml_proj-lorasick_2020-10-27-14-00-09.846491
226	3	2	5	227	stable	8	200	27	vs	brown	green	green	brown	right	left	0.30000000000000004	0.7	2	2	0.6000000000000001	1.4	1	0	0.7	0.30000000000000004	2	2	1.4	0.6000000000000001	invalid	0.7498020389975864	51200	0	0	2	51200	1	51200	1	53248	0	0.7	51200	brown	green	1	0	ml	2.7.3	lorasick	sub-03_ses-02_task-ml_proj-lorasick_2020-10-27-14-00-09.846491
227	3	2	5	228	stable	8	200	28	vs	brown	green	green	brown	right	left	0.30000000000000004	0.7	4	6	1.2000000000000002	4.199999999999998	0	1	0.7	0.30000000000000004	6	4	4.199999999999998	1.2000000000000002	valid	0.29994658999930834	51200	0	0	2	51200	1	51200	1	51200	1	0.7	51200	brown	green	1	6	ml	2.7.3	lorasick	sub-03_ses-02_task-ml_proj-lorasick_2020-10-27-14-00-09.846491
228	3	2	5	229	stable	8	200	29	vs	brown	green	green	brown	right	left	0.30000000000000004	0.7	2	6	0.6000000000000001	4.199999999999998	1	0	0.7	0.30000000000000004	6	2	4.199999999999998	0.6000000000000001	invalid	0.3165963370011013	51200	0	0	2	51200	1	51200	1	51200	1	0.7	51200	brown	green	1	0	ml	2.7.3	lorasick	sub-03_ses-02_task-ml_proj-lorasick_2020-10-27-14-00-09.846491
229	3	2	5	230	stable	8	200	30	vs	brown	green	green	brown	right	left	0.30000000000000004	0.7	2	10	0.6000000000000001	7.0	1	0	0.7	0.30000000000000004	10	2	7.0	0.6000000000000001	invalid	0.29994258099759463	51200	0	0	2	51200	1	51200	1	51200	1	0.7	51200	brown	green	1	0	ml	2.7.3	lorasick	sub-03_ses-02_task-ml_proj-lorasick_2020-10-27-14-00-09.846491
230	3	2	5	231	stable	8	200	31	vs	green	brown	green	brown	left	right	0.30000000000000004	0.7	2	2	0.6000000000000001	1.4	0	1	0.30000000000000004	0.7	2	2	0.6000000000000001	1.4	valid	0.5831853839990799	51200	0	0	1	53248	0	53248	0	53248	0	0.7	53248	brown	green	0	0	ml	2.7.3	lorasick	sub-03_ses-02_task-ml_proj-lorasick_2020-10-27-14-00-09.846491
231	3	2	5	232	stable	8	200	32	vs	green	brown	green	brown	left	right	0.30000000000000004	0.7	10	2	3.0000000000000004	1.4	0	1	0.30000000000000004	0.7	10	2	3.0000000000000004	1.4	valid	0.3499266519975208	51200	0	0	1	51200	1	53248	0	51200	1	0.7	53248	brown	green	0	0	ml	2.7.3	lorasick	sub-03_ses-02_task-ml_proj-lorasick_2020-10-27-14-00-09.846491
232	3	2	5	233	stable	8	200	33	vs	brown	green	green	brown	right	left	0.30000000000000004	0.7	4	2	1.2000000000000002	1.4	1	0	0.7	0.30000000000000004	2	4	1.4	1.2000000000000002	invalid	0.4499043239993625	53248	0	1	1	51200	0	51200	0	53248	1	0.7	51200	brown	green	0	4	ml	2.7.3	lorasick	sub-03_ses-02_task-ml_proj-lorasick_2020-10-27-14-00-09.846491
233	3	2	5	234	stable	8	200	34	vs	green	brown	green	brown	left	right	0.30000000000000004	0.7	2	2	0.6000000000000001	1.4	0	1	0.30000000000000004	0.7	2	2	0.6000000000000001	1.4	valid	0.36658275399895507	51200	0	0	1	53248	0	53248	0	53248	0	0.7	53248	brown	green	0	0	ml	2.7.3	lorasick	sub-03_ses-02_task-ml_proj-lorasick_2020-10-27-14-00-09.846491
234	3	2	5	235	stable	8	200	35	vs	green	brown	green	brown	left	right	0.30000000000000004	0.7	2	6	0.6000000000000001	4.199999999999998	0	1	0.30000000000000004	0.7	2	6	0.6000000000000001	4.199999999999998	valid	0.3999168929985899	53248	0	1	2	53248	1	53248	1	53248	1	0.7	53248	brown	green	1	6	ml	2.7.3	lorasick	sub-03_ses-02_task-ml_proj-lorasick_2020-10-27-14-00-09.846491
235	3	2	5	236	stable	8	200	36	vs	green	brown	green	brown	left	right	0.30000000000000004	0.7	2	2	0.6000000000000001	1.4	0	1	0.30000000000000004	0.7	2	2	0.6000000000000001	1.4	valid	0.4499044740005047	53248	0	1	2	53248	1	53248	1	53248	1	0.7	53248	brown	green	0	2	ml	2.7.3	lorasick	sub-03_ses-02_task-ml_proj-lorasick_2020-10-27-14-00-09.846491
236	3	2	5	237	stable	8	200	37	vs	brown	green	green	brown	right	left	0.30000000000000004	0.7	2	6	0.6000000000000001	4.199999999999998	1	0	0.7	0.30000000000000004	6	2	4.199999999999998	0.6000000000000001	invalid	0.36657951999950456	51200	0	0	2	51200	1	51200	1	51200	1	0.7	51200	brown	green	1	0	ml	2.7.3	lorasick	sub-03_ses-02_task-ml_proj-lorasick_2020-10-27-14-00-09.846491
237	3	2	5	238	stable	8	200	38	vs	brown	green	green	brown	right	left	0.30000000000000004	0.7	6	2	1.8000000000000005	1.4	1	0	0.7	0.30000000000000004	2	6	1.4	1.8000000000000005	invalid	0.7664648509999097	51200	0	0	2	53248	0	51200	1	53248	0	0.7	51200	brown	green	0	0	ml	2.7.3	lorasick	sub-03_ses-02_task-ml_proj-lorasick_2020-10-27-14-00-09.846491
238	3	2	5	239	stable	8	200	39	vs	brown	green	green	brown	right	left	0.30000000000000004	0.7	2	10	0.6000000000000001	7.0	0	1	0.7	0.30000000000000004	10	2	7.0	0.6000000000000001	valid	0.41656792200228665	51200	0	0	2	51200	1	51200	1	51200	1	0.7	51200	brown	green	1	10	ml	2.7.3	lorasick	sub-03_ses-02_task-ml_proj-lorasick_2020-10-27-14-00-09.846491
239	3	2	5	240	stable	8	200	40	vs	green	brown	green	brown	left	right	0.30000000000000004	0.7	4	6	1.2000000000000002	4.199999999999998	0	1	0.30000000000000004	0.7	4	6	1.2000000000000002	4.199999999999998	valid	0.4832281079980021	53248	0	1	2	53248	1	53248	1	53248	1	0.7	53248	brown	green	1	6	ml	2.7.3	lorasick	sub-03_ses-02_task-ml_proj-lorasick_2020-10-27-14-00-09.846491
240	3	2	5	241	stable	8	200	41	vs	brown	green	green	brown	right	left	0.30000000000000004	0.7	6	2	1.8000000000000005	1.4	0	1	0.7	0.30000000000000004	2	6	1.4	1.8000000000000005	valid	0.3165985050000017	51200	0	0	2	53248	0	51200	1	53248	0	0.7	51200	brown	green	0	2	ml	2.7.3	lorasick	sub-03_ses-02_task-ml_proj-lorasick_2020-10-27-14-00-09.846491
241	3	2	5	242	stable	8	200	42	vs	green	brown	green	brown	left	right	0.30000000000000004	0.7	4	2	1.2000000000000002	1.4	0	1	0.30000000000000004	0.7	4	2	1.2000000000000002	1.4	valid	0.4832164519975777	51200	0	0	1	53248	0	53248	0	51200	1	0.7	53248	brown	green	0	0	ml	2.7.3	lorasick	sub-03_ses-02_task-ml_proj-lorasick_2020-10-27-14-00-09.846491
242	3	2	5	243	stable	8	200	43	vs	brown	green	green	brown	right	left	0.30000000000000004	0.7	6	2	1.8000000000000005	1.4	0	1	0.7	0.30000000000000004	2	6	1.4	1.8000000000000005	valid	0.6498431450017961	53248	0	1	1	53248	1	51200	0	53248	1	0.7	51200	brown	green	0	0	ml	2.7.3	lorasick	sub-03_ses-02_task-ml_proj-lorasick_2020-10-27-14-00-09.846491
243	3	2	5	244	stable	8	200	44	vs	brown	green	green	brown	right	left	0.30000000000000004	0.7	6	2	1.8000000000000005	1.4	0	1	0.7	0.30000000000000004	2	6	1.4	1.8000000000000005	valid	0.499874984001508	51200	0	0	2	53248	0	51200	1	53248	0	0.7	51200	brown	green	0	2	ml	2.7.3	lorasick	sub-03_ses-02_task-ml_proj-lorasick_2020-10-27-14-00-09.846491
244	3	2	5	245	stable	8	200	45	vs	green	brown	green	brown	left	right	0.30000000000000004	0.7	6	4	1.8000000000000005	2.8	0	1	0.30000000000000004	0.7	6	4	1.8000000000000005	2.8	valid	0.3832571849998203	53248	0	1	2	53248	1	53248	1	51200	0	0.7	53248	brown	green	0	4	ml	2.7.3	lorasick	sub-03_ses-02_task-ml_proj-lorasick_2020-10-27-14-00-09.846491
245	3	2	5	246	stable	8	200	46	vs	brown	green	green	brown	right	left	0.30000000000000004	0.7	2	4	0.6000000000000001	2.8	0	1	0.7	0.30000000000000004	4	2	2.8	0.6000000000000001	valid	0.3998989190004068	51200	0	0	2	51200	1	51200	1	51200	1	0.7	51200	brown	green	1	4	ml	2.7.3	lorasick	sub-03_ses-02_task-ml_proj-lorasick_2020-10-27-14-00-09.846491
246	3	2	5	247	stable	8	200	47	vs	brown	green	green	brown	right	left	0.30000000000000004	0.7	2	4	0.6000000000000001	2.8	0	1	0.7	0.30000000000000004	4	2	2.8	0.6000000000000001	valid	0.3499195440017502	51200	0	0	2	51200	1	51200	1	51200	1	0.7	51200	brown	green	1	4	ml	2.7.3	lorasick	sub-03_ses-02_task-ml_proj-lorasick_2020-10-27-14-00-09.846491
247	3	2	5	248	stable	8	200	48	vs	green	brown	green	brown	left	right	0.30000000000000004	0.7	4	2	1.2000000000000002	1.4	0	1	0.30000000000000004	0.7	4	2	1.2000000000000002	1.4	valid	1.0497171259994502	51200	0	0	1	53248	0	53248	0	51200	1	0.7	53248	brown	green	0	0	ml	2.7.3	lorasick	sub-03_ses-02_task-ml_proj-lorasick_2020-10-27-14-00-09.846491
248	3	2	5	249	stable	8	200	49	vs	green	brown	green	brown	left	right	0.30000000000000004	0.7	4	6	1.2000000000000002	4.199999999999998	0	1	0.30000000000000004	0.7	4	6	1.2000000000000002	4.199999999999998	valid	0.36659298200174817	53248	0	1	2	53248	1	53248	1	53248	1	0.7	53248	brown	green	1	6	ml	2.7.3	lorasick	sub-03_ses-02_task-ml_proj-lorasick_2020-10-27-14-00-09.846491
249	3	2	5	250	stable	8	200	50	vs	brown	green	green	brown	right	left	0.30000000000000004	0.7	6	4	1.8000000000000005	2.8	0	1	0.7	0.30000000000000004	4	6	2.8	1.8000000000000005	valid	0.5498662179998064	51200	0	0	2	51200	1	51200	1	53248	0	0.7	51200	brown	green	0	4	ml	2.7.3	lorasick	sub-03_ses-02_task-ml_proj-lorasick_2020-10-27-14-00-09.846491
250	3	2	6	251	stable	8	200	51	vs	green	brown	green	brown	left	right	0.30000000000000004	0.7	6	4	1.8000000000000005	2.8	0	1	0.30000000000000004	0.7	6	4	1.8000000000000005	2.8	valid	0.4665567159972852	51200	0	0	1	53248	0	53248	0	51200	1	0.7	53248	brown	green	0	0	ml	2.7.3	lorasick	sub-03_ses-02_task-ml_proj-lorasick_2020-10-27-14-00-09.846491
251	3	2	6	252	stable	8	200	52	vs	green	brown	green	brown	left	right	0.30000000000000004	0.7	4	6	1.2000000000000002	4.199999999999998	1	0	0.30000000000000004	0.7	4	6	1.2000000000000002	4.199999999999998	invalid	0.4499014300017734	53248	0	1	2	53248	1	53248	1	53248	1	0.7	53248	brown	green	1	0	ml	2.7.3	lorasick	sub-03_ses-02_task-ml_proj-lorasick_2020-10-27-14-00-09.846491
252	3	2	6	253	stable	8	200	53	vs	brown	green	green	brown	right	left	0.30000000000000004	0.7	2	4	0.6000000000000001	2.8	1	0	0.7	0.30000000000000004	4	2	2.8	0.6000000000000001	invalid	0.3832572370010894	51200	0	0	2	51200	1	51200	1	51200	1	0.7	51200	brown	green	1	0	ml	2.7.3	lorasick	sub-03_ses-02_task-ml_proj-lorasick_2020-10-27-14-00-09.846491
253	3	2	6	254	stable	8	200	54	vs	green	brown	green	brown	left	right	0.30000000000000004	0.7	10	2	3.0000000000000004	1.4	0	1	0.30000000000000004	0.7	10	2	3.0000000000000004	1.4	valid	0.4165684639992833	51200	0	0	1	51200	1	53248	0	51200	1	0.7	53248	brown	green	0	0	ml	2.7.3	lorasick	sub-03_ses-02_task-ml_proj-lorasick_2020-10-27-14-00-09.846491
254	3	2	6	255	stable	8	200	55	vs	green	brown	green	brown	left	right	0.30000000000000004	0.7	10	2	3.0000000000000004	1.4	0	1	0.30000000000000004	0.7	10	2	3.0000000000000004	1.4	valid	0.4332307229997241	51200	0	0	1	51200	1	53248	0	51200	1	0.7	53248	brown	green	0	0	ml	2.7.3	lorasick	sub-03_ses-02_task-ml_proj-lorasick_2020-10-27-14-00-09.846491
255	3	2	6	256	stable	8	200	56	vs	brown	green	green	brown	right	left	0.30000000000000004	0.7	10	2	3.0000000000000004	1.4	0	1	0.7	0.30000000000000004	2	10	1.4	3.0000000000000004	valid	0.4332486559978861	53248	0	1	1	53248	1	51200	0	53248	1	0.7	51200	brown	green	0	0	ml	2.7.3	lorasick	sub-03_ses-02_task-ml_proj-lorasick_2020-10-27-14-00-09.846491
256	3	2	6	257	stable	8	200	57	vs	green	brown	green	brown	left	right	0.30000000000000004	0.7	6	4	1.8000000000000005	2.8	0	1	0.30000000000000004	0.7	6	4	1.8000000000000005	2.8	valid	0.6165092410010402	51200	0	0	1	53248	0	53248	0	51200	1	0.7	53248	brown	green	0	0	ml	2.7.3	lorasick	sub-03_ses-02_task-ml_proj-lorasick_2020-10-27-14-00-09.846491
257	3	2	6	258	stable	8	200	58	vs	green	brown	green	brown	left	right	0.30000000000000004	0.7	2	2	0.6000000000000001	1.4	1	0	0.30000000000000004	0.7	2	2	0.6000000000000001	1.4	invalid	0.5831974060020002	53248	0	1	2	53248	1	53248	1	53248	1	0.7	53248	brown	green	0	0	ml	2.7.3	lorasick	sub-03_ses-02_task-ml_proj-lorasick_2020-10-27-14-00-09.846491
258	3	2	6	259	stable	8	200	59	vs	green	brown	green	brown	left	right	0.30000000000000004	0.7	2	4	0.6000000000000001	2.8	1	0	0.30000000000000004	0.7	2	4	0.6000000000000001	2.8	invalid	0.5165537020002375	53248	0	1	2	53248	1	53248	1	53248	1	0.7	53248	brown	green	1	0	ml	2.7.3	lorasick	sub-03_ses-02_task-ml_proj-lorasick_2020-10-27-14-00-09.846491
259	3	2	6	260	stable	8	200	60	vs	brown	green	green	brown	right	left	0.30000000000000004	0.7	4	2	1.2000000000000002	1.4	1	0	0.7	0.30000000000000004	2	4	1.4	1.2000000000000002	invalid	0.4332624089984165	53248	0	1	1	51200	0	51200	0	53248	1	0.7	51200	brown	green	0	4	ml	2.7.3	lorasick	sub-03_ses-02_task-ml_proj-lorasick_2020-10-27-14-00-09.846491
260	3	2	6	261	stable	8	200	61	vs	green	brown	green	brown	left	right	0.30000000000000004	0.7	6	4	1.8000000000000005	2.8	0	1	0.30000000000000004	0.7	6	4	1.8000000000000005	2.8	valid	0.3999007530001109	51200	0	0	1	53248	0	53248	0	51200	1	0.7	53248	brown	green	0	0	ml	2.7.3	lorasick	sub-03_ses-02_task-ml_proj-lorasick_2020-10-27-14-00-09.846491
261	3	2	6	262	stable	8	200	62	vs	green	brown	green	brown	left	right	0.30000000000000004	0.7	4	2	1.2000000000000002	1.4	0	1	0.30000000000000004	0.7	4	2	1.2000000000000002	1.4	valid	0.6331708729994716	51200	0	0	1	53248	0	53248	0	51200	1	0.7	53248	brown	green	0	0	ml	2.7.3	lorasick	sub-03_ses-02_task-ml_proj-lorasick_2020-10-27-14-00-09.846491
262	3	2	6	263	stable	8	200	63	vs	green	brown	green	brown	left	right	0.30000000000000004	0.7	4	6	1.2000000000000002	4.199999999999998	0	1	0.30000000000000004	0.7	4	6	1.2000000000000002	4.199999999999998	valid	0.3832556369998201	53248	0	1	2	53248	1	53248	1	53248	1	0.7	53248	brown	green	1	6	ml	2.7.3	lorasick	sub-03_ses-02_task-ml_proj-lorasick_2020-10-27-14-00-09.846491
263	3	2	6	264	stable	8	200	64	vs	brown	green	green	brown	right	left	0.30000000000000004	0.7	2	2	0.6000000000000001	1.4	0	1	0.7	0.30000000000000004	2	2	1.4	0.6000000000000001	valid	0.3832451519992901	51200	0	0	2	51200	1	51200	1	53248	0	0.7	51200	brown	green	1	2	ml	2.7.3	lorasick	sub-03_ses-02_task-ml_proj-lorasick_2020-10-27-14-00-09.846491
264	3	2	6	265	stable	8	200	65	vs	green	brown	green	brown	left	right	0.30000000000000004	0.7	2	10	0.6000000000000001	7.0	0	1	0.30000000000000004	0.7	2	10	0.6000000000000001	7.0	valid	0.3499392990015622	53248	0	1	2	53248	1	53248	1	53248	1	0.7	53248	brown	green	1	10	ml	2.7.3	lorasick	sub-03_ses-02_task-ml_proj-lorasick_2020-10-27-14-00-09.846491
265	3	2	6	266	stable	8	200	66	vs	green	brown	green	brown	left	right	0.30000000000000004	0.7	10	2	3.0000000000000004	1.4	0	1	0.30000000000000004	0.7	10	2	3.0000000000000004	1.4	valid	0.3665776310008369	51200	0	0	1	51200	1	53248	0	51200	1	0.7	53248	brown	green	0	0	ml	2.7.3	lorasick	sub-03_ses-02_task-ml_proj-lorasick_2020-10-27-14-00-09.846491
266	3	2	6	267	stable	8	200	67	vs	green	brown	green	brown	left	right	0.30000000000000004	0.7	2	6	0.6000000000000001	4.199999999999998	0	1	0.30000000000000004	0.7	2	6	0.6000000000000001	4.199999999999998	valid	0.43324126600055024	53248	0	1	2	53248	1	53248	1	53248	1	0.7	53248	brown	green	1	6	ml	2.7.3	lorasick	sub-03_ses-02_task-ml_proj-lorasick_2020-10-27-14-00-09.846491
267	3	2	6	268	stable	8	200	68	vs	green	brown	green	brown	left	right	0.30000000000000004	0.7	6	2	1.8000000000000005	1.4	0	1	0.30000000000000004	0.7	6	2	1.8000000000000005	1.4	valid	0.5165395389994956	51200	0	0	1	51200	1	53248	0	51200	1	0.7	53248	brown	green	0	0	ml	2.7.3	lorasick	sub-03_ses-02_task-ml_proj-lorasick_2020-10-27-14-00-09.846491
268	3	2	6	269	stable	8	200	69	vs	green	brown	green	brown	left	right	0.30000000000000004	0.7	2	10	0.6000000000000001	7.0	0	1	0.30000000000000004	0.7	2	10	0.6000000000000001	7.0	valid	0.36658972799705225	53248	0	1	2	53248	1	53248	1	53248	1	0.7	53248	brown	green	1	10	ml	2.7.3	lorasick	sub-03_ses-02_task-ml_proj-lorasick_2020-10-27-14-00-09.846491
269	3	2	6	270	stable	8	200	70	vs	green	brown	green	brown	left	right	0.30000000000000004	0.7	6	2	1.8000000000000005	1.4	1	0	0.30000000000000004	0.7	6	2	1.8000000000000005	1.4	invalid	0.43323303799843416	51200	0	0	1	51200	1	53248	0	51200	1	0.7	53248	brown	green	0	6	ml	2.7.3	lorasick	sub-03_ses-02_task-ml_proj-lorasick_2020-10-27-14-00-09.846491
270	3	2	6	271	stable	8	200	71	vs	brown	green	green	brown	right	left	0.30000000000000004	0.7	2	2	0.6000000000000001	1.4	0	1	0.7	0.30000000000000004	2	2	1.4	0.6000000000000001	valid	0.5331971129999147	51200	0	0	2	51200	1	51200	1	53248	0	0.7	51200	brown	green	1	2	ml	2.7.3	lorasick	sub-03_ses-02_task-ml_proj-lorasick_2020-10-27-14-00-09.846491
271	3	2	6	272	stable	8	200	72	vs	brown	green	green	brown	right	left	0.30000000000000004	0.7	6	2	1.8000000000000005	1.4	0	1	0.7	0.30000000000000004	2	6	1.4	1.8000000000000005	valid	0.3332722359991749	53248	0	1	1	53248	1	51200	0	53248	1	0.7	51200	brown	green	0	0	ml	2.7.3	lorasick	sub-03_ses-02_task-ml_proj-lorasick_2020-10-27-14-00-09.846491
272	3	2	6	273	stable	8	200	73	vs	brown	green	green	brown	right	left	0.30000000000000004	0.7	4	2	1.2000000000000002	1.4	0	1	0.7	0.30000000000000004	2	4	1.4	1.2000000000000002	valid	0.5498833229976299	53248	0	1	1	51200	0	51200	0	53248	1	0.7	51200	brown	green	0	0	ml	2.7.3	lorasick	sub-03_ses-02_task-ml_proj-lorasick_2020-10-27-14-00-09.846491
273	3	2	6	274	stable	8	200	74	vs	brown	green	green	brown	right	left	0.30000000000000004	0.7	4	6	1.2000000000000002	4.199999999999998	0	1	0.7	0.30000000000000004	6	4	4.199999999999998	1.2000000000000002	valid	0.3665929779999715	51200	0	0	2	51200	1	51200	1	51200	1	0.7	51200	brown	green	1	6	ml	2.7.3	lorasick	sub-03_ses-02_task-ml_proj-lorasick_2020-10-27-14-00-09.846491
274	3	2	6	275	stable	8	200	75	vs	green	brown	green	brown	left	right	0.30000000000000004	0.7	2	10	0.6000000000000001	7.0	1	0	0.30000000000000004	0.7	2	10	0.6000000000000001	7.0	invalid	0.34993263599972124	53248	0	1	2	53248	1	53248	1	53248	1	0.7	53248	brown	green	1	0	ml	2.7.3	lorasick	sub-03_ses-02_task-ml_proj-lorasick_2020-10-27-14-00-09.846491
275	3	2	6	276	stable	8	200	76	vs	brown	green	green	brown	right	left	0.30000000000000004	0.7	6	2	1.8000000000000005	1.4	0	1	0.7	0.30000000000000004	2	6	1.4	1.8000000000000005	valid	0.4332300700007181	51200	0	0	2	53248	0	51200	1	53248	0	0.7	51200	brown	green	0	2	ml	2.7.3	lorasick	sub-03_ses-02_task-ml_proj-lorasick_2020-10-27-14-00-09.846491
276	3	2	6	277	stable	8	200	77	vs	brown	green	green	brown	right	left	0.30000000000000004	0.7	2	2	0.6000000000000001	1.4	0	1	0.7	0.30000000000000004	2	2	1.4	0.6000000000000001	valid	0.4498860830026388	51200	0	0	2	51200	1	51200	1	53248	0	0.7	51200	brown	green	1	2	ml	2.7.3	lorasick	sub-03_ses-02_task-ml_proj-lorasick_2020-10-27-14-00-09.846491
277	3	2	6	278	stable	8	200	78	vs	green	brown	green	brown	left	right	0.30000000000000004	0.7	2	2	0.6000000000000001	1.4	0	1	0.30000000000000004	0.7	2	2	0.6000000000000001	1.4	valid	0.43325211699993815	53248	0	1	2	53248	1	53248	1	53248	1	0.7	53248	brown	green	0	2	ml	2.7.3	lorasick	sub-03_ses-02_task-ml_proj-lorasick_2020-10-27-14-00-09.846491
278	3	2	6	279	stable	8	200	79	vs	green	brown	green	brown	left	right	0.30000000000000004	0.7	2	10	0.6000000000000001	7.0	1	0	0.30000000000000004	0.7	2	10	0.6000000000000001	7.0	invalid	0.36659581099957	53248	0	1	2	53248	1	53248	1	53248	1	0.7	53248	brown	green	1	0	ml	2.7.3	lorasick	sub-03_ses-02_task-ml_proj-lorasick_2020-10-27-14-00-09.846491
279	3	2	6	280	stable	8	200	80	vs	brown	green	green	brown	right	left	0.30000000000000004	0.7	6	6	1.8000000000000005	4.199999999999998	1	0	0.7	0.30000000000000004	6	6	4.199999999999998	1.8000000000000005	invalid	0.34992302200043923	51200	0	0	2	51200	1	51200	1	53248	0	0.7	51200	brown	green	1	0	ml	2.7.3	lorasick	sub-03_ses-02_task-ml_proj-lorasick_2020-10-27-14-00-09.846491
280	3	2	6	281	stable	8	200	81	vs	green	brown	green	brown	left	right	0.30000000000000004	0.7	6	4	1.8000000000000005	2.8	0	1	0.30000000000000004	0.7	6	4	1.8000000000000005	2.8	valid	0.3832527980011946	51200	0	0	1	53248	0	53248	0	51200	1	0.7	53248	brown	green	0	0	ml	2.7.3	lorasick	sub-03_ses-02_task-ml_proj-lorasick_2020-10-27-14-00-09.846491
281	3	2	6	282	stable	8	200	82	vs	green	brown	green	brown	left	right	0.30000000000000004	0.7	4	6	1.2000000000000002	4.199999999999998	0	1	0.30000000000000004	0.7	4	6	1.2000000000000002	4.199999999999998	valid	0.33327365099830786	53248	0	1	2	53248	1	53248	1	53248	1	0.7	53248	brown	green	1	6	ml	2.7.3	lorasick	sub-03_ses-02_task-ml_proj-lorasick_2020-10-27-14-00-09.846491
282	3	2	6	283	stable	8	200	83	vs	brown	green	green	brown	right	left	0.30000000000000004	0.7	2	6	0.6000000000000001	4.199999999999998	0	1	0.7	0.30000000000000004	6	2	4.199999999999998	0.6000000000000001	valid	0.3332615379986237	51200	0	0	2	51200	1	51200	1	51200	1	0.7	51200	brown	green	1	6	ml	2.7.3	lorasick	sub-03_ses-02_task-ml_proj-lorasick_2020-10-27-14-00-09.846491
