Unnamed: 0	sub_id	ses_id	block_no	trial_no	phase_type	phase_no	phase_length	trialInPhase_no	phase_type_order	color_left	color_right	color1	color2	position1	position2	prob1	prob2	mag1	mag2	ev1	ev2	outcome1	outcome2	prob_left	prob_right	mag_left	mag_right	ev_left	ev_right	reward_validity	resp_time	resp_key	timeout	choice_side	choice	ev_corr_resp	ev_correct	prob_corr_resp	prob_correct	mag_corr_resp	mag_correct	high_prob	high_prob_side	high_prob_color	low_prob_color	no_brain	reward	name	version	proj_id	logFileID
0	7	2	1	1	stable	1	200	1	sv	turquoise	purple	purple	turquoise	right	left	0.7	0.30000000000000004	4	6	2.8	1.8000000000000005	1	0	0.30000000000000004	0.7	6	4	1.8000000000000005	2.8	valid	0.5832192270008818	51200	0	0	2	53248	0	53248	0	51200	1	0.7	53248	purple	turquoise	0	0	ml	2.7.3	bip	sub-07_ses-02_task-ml_proj-bip_2020-12-04-10-27-36.600613
1	7	2	1	2	stable	1	200	2	sv	purple	turquoise	purple	turquoise	left	right	0.7	0.30000000000000004	4	6	2.8	1.8000000000000005	0	1	0.7	0.30000000000000004	4	6	2.8	1.8000000000000005	invalid	0.416581554000004	53248	0	1	2	51200	0	51200	0	53248	1	0.7	51200	purple	turquoise	0	6	ml	2.7.3	bip	sub-07_ses-02_task-ml_proj-bip_2020-12-04-10-27-36.600613
2	7	2	1	3	stable	1	200	3	sv	purple	turquoise	purple	turquoise	left	right	0.7	0.30000000000000004	6	2	4.199999999999998	0.6000000000000001	1	0	0.7	0.30000000000000004	6	2	4.199999999999998	0.6000000000000001	valid	0.5998630539997976	53248	0	1	2	51200	0	51200	0	51200	0	0.7	51200	purple	turquoise	1	0	ml	2.7.3	bip	sub-07_ses-02_task-ml_proj-bip_2020-12-04-10-27-36.600613
3	7	2	1	4	stable	1	200	4	sv	purple	turquoise	purple	turquoise	left	right	0.7	0.30000000000000004	10	2	7.0	0.6000000000000001	1	0	0.7	0.30000000000000004	10	2	7.0	0.6000000000000001	valid	0.5998531739987811	51200	0	0	1	51200	1	51200	1	51200	1	0.7	51200	purple	turquoise	1	10	ml	2.7.3	bip	sub-07_ses-02_task-ml_proj-bip_2020-12-04-10-27-36.600613
4	7	2	1	5	stable	1	200	5	sv	turquoise	purple	purple	turquoise	right	left	0.7	0.30000000000000004	10	2	7.0	0.6000000000000001	0	1	0.30000000000000004	0.7	2	10	0.6000000000000001	7.0	invalid	0.4332447050001065	53248	0	1	1	53248	1	53248	1	53248	1	0.7	53248	purple	turquoise	1	0	ml	2.7.3	bip	sub-07_ses-02_task-ml_proj-bip_2020-12-04-10-27-36.600613
5	7	2	1	6	stable	1	200	6	sv	turquoise	purple	purple	turquoise	right	left	0.7	0.30000000000000004	6	6	4.199999999999998	1.8000000000000005	1	0	0.30000000000000004	0.7	6	6	1.8000000000000005	4.199999999999998	valid	0.4665610360007122	53248	0	1	1	53248	1	53248	1	53248	1	0.7	53248	purple	turquoise	0	6	ml	2.7.3	bip	sub-07_ses-02_task-ml_proj-bip_2020-12-04-10-27-36.600613
6	7	2	1	7	stable	1	200	7	sv	turquoise	purple	purple	turquoise	right	left	0.7	0.30000000000000004	2	10	1.4	3.0000000000000004	1	0	0.30000000000000004	0.7	10	2	3.0000000000000004	1.4	valid	0.8164559969991387	51200	0	0	2	51200	1	53248	0	51200	1	0.7	53248	purple	turquoise	0	0	ml	2.7.3	bip	sub-07_ses-02_task-ml_proj-bip_2020-12-04-10-27-36.600613
7	7	2	1	8	stable	1	200	8	sv	purple	turquoise	purple	turquoise	left	right	0.7	0.30000000000000004	2	2	1.4	0.6000000000000001	0	1	0.7	0.30000000000000004	2	2	1.4	0.6000000000000001	invalid	0.4832259730010264	51200	0	0	1	51200	1	51200	1	53248	0	0.7	51200	purple	turquoise	1	0	ml	2.7.3	bip	sub-07_ses-02_task-ml_proj-bip_2020-12-04-10-27-36.600613
8	7	2	1	9	stable	1	200	9	sv	turquoise	purple	purple	turquoise	right	left	0.7	0.30000000000000004	2	4	1.4	1.2000000000000002	1	0	0.30000000000000004	0.7	4	2	1.2000000000000002	1.4	valid	0.4499056759996165	53248	0	1	1	53248	1	53248	1	51200	0	0.7	53248	purple	turquoise	0	2	ml	2.7.3	bip	sub-07_ses-02_task-ml_proj-bip_2020-12-04-10-27-36.600613
9	7	2	1	10	stable	1	200	10	sv	purple	turquoise	purple	turquoise	left	right	0.7	0.30000000000000004	6	2	4.199999999999998	0.6000000000000001	0	1	0.7	0.30000000000000004	6	2	4.199999999999998	0.6000000000000001	invalid	0.39991246400131786	51200	0	0	1	51200	1	51200	1	51200	1	0.7	51200	purple	turquoise	1	0	ml	2.7.3	bip	sub-07_ses-02_task-ml_proj-bip_2020-12-04-10-27-36.600613
10	7	2	1	11	stable	1	200	11	sv	turquoise	purple	purple	turquoise	right	left	0.7	0.30000000000000004	4	2	2.8	0.6000000000000001	1	0	0.30000000000000004	0.7	2	4	0.6000000000000001	2.8	valid	0.5332048480013327	51200	0	0	2	53248	0	53248	0	53248	0	0.7	53248	purple	turquoise	1	0	ml	2.7.3	bip	sub-07_ses-02_task-ml_proj-bip_2020-12-04-10-27-36.600613
11	7	2	1	12	stable	1	200	12	sv	purple	turquoise	purple	turquoise	left	right	0.7	0.30000000000000004	6	4	4.199999999999998	1.2000000000000002	0	1	0.7	0.30000000000000004	6	4	4.199999999999998	1.2000000000000002	invalid	0.5332045720006136	51200	0	0	1	51200	1	51200	1	51200	1	0.7	51200	purple	turquoise	1	0	ml	2.7.3	bip	sub-07_ses-02_task-ml_proj-bip_2020-12-04-10-27-36.600613
12	7	2	1	13	stable	1	200	13	sv	turquoise	purple	purple	turquoise	right	left	0.7	0.30000000000000004	10	2	7.0	0.6000000000000001	1	0	0.30000000000000004	0.7	2	10	0.6000000000000001	7.0	valid	0.9664296699993428	53248	0	1	1	53248	1	53248	1	53248	1	0.7	53248	purple	turquoise	1	10	ml	2.7.3	bip	sub-07_ses-02_task-ml_proj-bip_2020-12-04-10-27-36.600613
13	7	2	1	14	stable	1	200	14	sv	purple	turquoise	purple	turquoise	left	right	0.7	0.30000000000000004	6	4	4.199999999999998	1.2000000000000002	1	0	0.7	0.30000000000000004	6	4	4.199999999999998	1.2000000000000002	valid	0.4832232759999897	51200	0	0	1	51200	1	51200	1	51200	1	0.7	51200	purple	turquoise	1	6	ml	2.7.3	bip	sub-07_ses-02_task-ml_proj-bip_2020-12-04-10-27-36.600613
14	7	2	1	15	stable	1	200	15	sv	purple	turquoise	purple	turquoise	left	right	0.7	0.30000000000000004	2	2	1.4	0.6000000000000001	0	1	0.7	0.30000000000000004	2	2	1.4	0.6000000000000001	invalid	0.4832340729990392	51200	0	0	1	51200	1	51200	1	53248	0	0.7	51200	purple	turquoise	1	0	ml	2.7.3	bip	sub-07_ses-02_task-ml_proj-bip_2020-12-04-10-27-36.600613
15	7	2	1	16	stable	1	200	16	sv	turquoise	purple	purple	turquoise	right	left	0.7	0.30000000000000004	2	2	1.4	0.6000000000000001	0	1	0.30000000000000004	0.7	2	2	0.6000000000000001	1.4	invalid	0.6331849550006154	53248	0	1	1	53248	1	53248	1	53248	1	0.7	53248	purple	turquoise	0	0	ml	2.7.3	bip	sub-07_ses-02_task-ml_proj-bip_2020-12-04-10-27-36.600613
16	7	2	1	17	stable	1	200	17	sv	turquoise	purple	purple	turquoise	right	left	0.7	0.30000000000000004	6	4	4.199999999999998	1.2000000000000002	1	0	0.30000000000000004	0.7	4	6	1.2000000000000002	4.199999999999998	valid	0.5332158049986901	53248	0	1	1	53248	1	53248	1	53248	1	0.7	53248	purple	turquoise	1	6	ml	2.7.3	bip	sub-07_ses-02_task-ml_proj-bip_2020-12-04-10-27-36.600613
17	7	2	1	18	stable	1	200	18	sv	purple	turquoise	purple	turquoise	left	right	0.7	0.30000000000000004	6	6	4.199999999999998	1.8000000000000005	1	0	0.7	0.30000000000000004	6	6	4.199999999999998	1.8000000000000005	valid	0.4498940359990229	51200	0	0	1	51200	1	51200	1	53248	0	0.7	51200	purple	turquoise	1	6	ml	2.7.3	bip	sub-07_ses-02_task-ml_proj-bip_2020-12-04-10-27-36.600613
18	7	2	1	19	stable	1	200	19	sv	turquoise	purple	purple	turquoise	right	left	0.7	0.30000000000000004	6	2	4.199999999999998	0.6000000000000001	1	0	0.30000000000000004	0.7	2	6	0.6000000000000001	4.199999999999998	valid	0.483229344999927	53248	0	1	1	53248	1	53248	1	53248	1	0.7	53248	purple	turquoise	1	6	ml	2.7.3	bip	sub-07_ses-02_task-ml_proj-bip_2020-12-04-10-27-36.600613
19	7	2	1	20	stable	1	200	20	sv	turquoise	purple	purple	turquoise	right	left	0.7	0.30000000000000004	4	6	2.8	1.8000000000000005	1	0	0.30000000000000004	0.7	6	4	1.8000000000000005	2.8	valid	0.4665750869990006	53248	0	1	1	53248	1	53248	1	51200	0	0.7	53248	purple	turquoise	0	4	ml	2.7.3	bip	sub-07_ses-02_task-ml_proj-bip_2020-12-04-10-27-36.600613
20	7	2	1	21	stable	1	200	21	sv	purple	turquoise	purple	turquoise	left	right	0.7	0.30000000000000004	4	6	2.8	1.8000000000000005	0	1	0.7	0.30000000000000004	4	6	2.8	1.8000000000000005	invalid	0.549867498999447	51200	0	0	1	51200	1	51200	1	53248	0	0.7	51200	purple	turquoise	0	0	ml	2.7.3	bip	sub-07_ses-02_task-ml_proj-bip_2020-12-04-10-27-36.600613
21	7	2	1	22	stable	1	200	22	sv	purple	turquoise	purple	turquoise	left	right	0.7	0.30000000000000004	4	2	2.8	0.6000000000000001	1	0	0.7	0.30000000000000004	4	2	2.8	0.6000000000000001	valid	0.4165708119999181	51200	0	0	1	51200	1	51200	1	51200	1	0.7	51200	purple	turquoise	1	4	ml	2.7.3	bip	sub-07_ses-02_task-ml_proj-bip_2020-12-04-10-27-36.600613
22	7	2	1	23	stable	1	200	23	sv	turquoise	purple	purple	turquoise	right	left	0.7	0.30000000000000004	2	6	1.4	1.8000000000000005	1	0	0.30000000000000004	0.7	6	2	1.8000000000000005	1.4	valid	0.9831059190000816	53248	0	1	1	51200	0	53248	1	51200	0	0.7	53248	purple	turquoise	0	2	ml	2.7.3	bip	sub-07_ses-02_task-ml_proj-bip_2020-12-04-10-27-36.600613
23	7	2	1	24	stable	1	200	24	sv	purple	turquoise	purple	turquoise	left	right	0.7	0.30000000000000004	6	2	4.199999999999998	0.6000000000000001	1	0	0.7	0.30000000000000004	6	2	4.199999999999998	0.6000000000000001	valid	0.4665563629987446	51200	0	0	1	51200	1	51200	1	51200	1	0.7	51200	purple	turquoise	1	6	ml	2.7.3	bip	sub-07_ses-02_task-ml_proj-bip_2020-12-04-10-27-36.600613
24	7	2	1	25	stable	1	200	25	sv	turquoise	purple	purple	turquoise	right	left	0.7	0.30000000000000004	2	4	1.4	1.2000000000000002	0	1	0.30000000000000004	0.7	4	2	1.2000000000000002	1.4	invalid	0.7331472850000864	51200	0	0	2	53248	0	53248	0	51200	1	0.7	53248	purple	turquoise	0	4	ml	2.7.3	bip	sub-07_ses-02_task-ml_proj-bip_2020-12-04-10-27-36.600613
25	7	2	1	26	stable	1	200	26	sv	purple	turquoise	purple	turquoise	left	right	0.7	0.30000000000000004	2	2	1.4	0.6000000000000001	1	0	0.7	0.30000000000000004	2	2	1.4	0.6000000000000001	valid	0.7164864280002803	51200	0	0	1	51200	1	51200	1	53248	0	0.7	51200	purple	turquoise	1	2	ml	2.7.3	bip	sub-07_ses-02_task-ml_proj-bip_2020-12-04-10-27-36.600613
26	7	2	1	27	stable	1	200	27	sv	turquoise	purple	purple	turquoise	right	left	0.7	0.30000000000000004	2	2	1.4	0.6000000000000001	0	1	0.30000000000000004	0.7	2	2	0.6000000000000001	1.4	invalid	0.9664267809985176	53248	0	1	1	53248	1	53248	1	53248	1	0.7	53248	purple	turquoise	0	0	ml	2.7.3	bip	sub-07_ses-02_task-ml_proj-bip_2020-12-04-10-27-36.600613
27	7	2	1	28	stable	1	200	28	sv	purple	turquoise	purple	turquoise	left	right	0.7	0.30000000000000004	10	2	7.0	0.6000000000000001	1	0	0.7	0.30000000000000004	10	2	7.0	0.6000000000000001	valid	0.4332339029988361	51200	0	0	1	51200	1	51200	1	51200	1	0.7	51200	purple	turquoise	1	10	ml	2.7.3	bip	sub-07_ses-02_task-ml_proj-bip_2020-12-04-10-27-36.600613
28	7	2	1	29	stable	1	200	29	sv	purple	turquoise	purple	turquoise	left	right	0.7	0.30000000000000004	6	2	4.199999999999998	0.6000000000000001	1	0	0.7	0.30000000000000004	6	2	4.199999999999998	0.6000000000000001	valid	0.5665348729999096	51200	0	0	1	51200	1	51200	1	51200	1	0.7	51200	purple	turquoise	1	6	ml	2.7.3	bip	sub-07_ses-02_task-ml_proj-bip_2020-12-04-10-27-36.600613
29	7	2	1	30	stable	1	200	30	sv	turquoise	purple	purple	turquoise	right	left	0.7	0.30000000000000004	4	2	2.8	0.6000000000000001	1	0	0.30000000000000004	0.7	2	4	0.6000000000000001	2.8	valid	0.6831799020001199	53248	0	1	1	53248	1	53248	1	53248	1	0.7	53248	purple	turquoise	1	4	ml	2.7.3	bip	sub-07_ses-02_task-ml_proj-bip_2020-12-04-10-27-36.600613
30	7	2	1	31	stable	1	200	31	sv	turquoise	purple	purple	turquoise	right	left	0.7	0.30000000000000004	6	6	4.199999999999998	1.8000000000000005	0	1	0.30000000000000004	0.7	6	6	1.8000000000000005	4.199999999999998	invalid	0.6498409270006961	53248	0	1	1	53248	1	53248	1	53248	1	0.7	53248	purple	turquoise	0	0	ml	2.7.3	bip	sub-07_ses-02_task-ml_proj-bip_2020-12-04-10-27-36.600613
31	7	2	1	32	stable	1	200	32	sv	purple	turquoise	purple	turquoise	left	right	0.7	0.30000000000000004	2	6	1.4	1.8000000000000005	1	0	0.7	0.30000000000000004	2	6	1.4	1.8000000000000005	valid	0.6831689789996744	53248	0	1	2	53248	1	51200	0	53248	1	0.7	51200	purple	turquoise	0	0	ml	2.7.3	bip	sub-07_ses-02_task-ml_proj-bip_2020-12-04-10-27-36.600613
32	7	2	1	33	stable	1	200	33	sv	purple	turquoise	purple	turquoise	left	right	0.7	0.30000000000000004	2	10	1.4	3.0000000000000004	1	0	0.7	0.30000000000000004	2	10	1.4	3.0000000000000004	valid	0.6831800159998238	53248	0	1	2	53248	1	51200	0	53248	1	0.7	51200	purple	turquoise	0	0	ml	2.7.3	bip	sub-07_ses-02_task-ml_proj-bip_2020-12-04-10-27-36.600613
33	7	2	1	34	stable	1	200	34	sv	turquoise	purple	purple	turquoise	right	left	0.7	0.30000000000000004	4	2	2.8	0.6000000000000001	1	0	0.30000000000000004	0.7	2	4	0.6000000000000001	2.8	valid	0.9664257030017324	53248	0	1	1	53248	1	53248	1	53248	1	0.7	53248	purple	turquoise	1	4	ml	2.7.3	bip	sub-07_ses-02_task-ml_proj-bip_2020-12-04-10-27-36.600613
34	7	2	1	35	stable	1	200	35	sv	purple	turquoise	purple	turquoise	left	right	0.7	0.30000000000000004	4	6	2.8	1.8000000000000005	0	1	0.7	0.30000000000000004	4	6	2.8	1.8000000000000005	invalid	0.483219134999672	51200	0	0	1	51200	1	51200	1	53248	0	0.7	51200	purple	turquoise	0	0	ml	2.7.3	bip	sub-07_ses-02_task-ml_proj-bip_2020-12-04-10-27-36.600613
35	7	2	1	36	stable	1	200	36	sv	turquoise	purple	purple	turquoise	right	left	0.7	0.30000000000000004	4	6	2.8	1.8000000000000005	1	0	0.30000000000000004	0.7	6	4	1.8000000000000005	2.8	valid	0.6498406049995538	53248	0	1	1	53248	1	53248	1	51200	0	0.7	53248	purple	turquoise	0	4	ml	2.7.3	bip	sub-07_ses-02_task-ml_proj-bip_2020-12-04-10-27-36.600613
36	7	2	1	37	stable	1	200	37	sv	purple	turquoise	purple	turquoise	left	right	0.7	0.30000000000000004	6	6	4.199999999999998	1.8000000000000005	1	0	0.7	0.30000000000000004	6	6	4.199999999999998	1.8000000000000005	valid	0.4832203860005393	51200	0	0	1	51200	1	51200	1	53248	0	0.7	51200	purple	turquoise	1	6	ml	2.7.3	bip	sub-07_ses-02_task-ml_proj-bip_2020-12-04-10-27-36.600613
37	7	2	1	38	stable	1	200	38	sv	purple	turquoise	purple	turquoise	left	right	0.7	0.30000000000000004	2	4	1.4	1.2000000000000002	0	1	0.7	0.30000000000000004	2	4	1.4	1.2000000000000002	invalid	0.6331742330003179	51200	0	0	1	51200	1	51200	1	53248	0	0.7	51200	purple	turquoise	0	0	ml	2.7.3	bip	sub-07_ses-02_task-ml_proj-bip_2020-12-04-10-27-36.600613
38	7	2	1	39	stable	1	200	39	sv	purple	turquoise	purple	turquoise	left	right	0.7	0.30000000000000004	10	2	7.0	0.6000000000000001	1	0	0.7	0.30000000000000004	10	2	7.0	0.6000000000000001	valid	0.599851522998506	51200	0	0	1	51200	1	51200	1	51200	1	0.7	51200	purple	turquoise	1	10	ml	2.7.3	bip	sub-07_ses-02_task-ml_proj-bip_2020-12-04-10-27-36.600613
39	7	2	1	40	stable	1	200	40	sv	turquoise	purple	purple	turquoise	right	left	0.7	0.30000000000000004	4	2	2.8	0.6000000000000001	1	0	0.30000000000000004	0.7	2	4	0.6000000000000001	2.8	valid	0.4832321090016194	53248	0	1	1	53248	1	53248	1	53248	1	0.7	53248	purple	turquoise	1	4	ml	2.7.3	bip	sub-07_ses-02_task-ml_proj-bip_2020-12-04-10-27-36.600613
40	7	2	1	41	stable	1	200	41	sv	turquoise	purple	purple	turquoise	right	left	0.7	0.30000000000000004	4	2	2.8	0.6000000000000001	1	0	0.30000000000000004	0.7	2	4	0.6000000000000001	2.8	valid	0.5498800470013521	53248	0	1	1	53248	1	53248	1	53248	1	0.7	53248	purple	turquoise	1	4	ml	2.7.3	bip	sub-07_ses-02_task-ml_proj-bip_2020-12-04-10-27-36.600613
41	7	2	1	42	stable	1	200	42	sv	purple	turquoise	purple	turquoise	left	right	0.7	0.30000000000000004	10	2	7.0	0.6000000000000001	1	0	0.7	0.30000000000000004	10	2	7.0	0.6000000000000001	valid	0.7164866820003226	51200	0	0	1	51200	1	51200	1	51200	1	0.7	51200	purple	turquoise	1	10	ml	2.7.3	bip	sub-07_ses-02_task-ml_proj-bip_2020-12-04-10-27-36.600613
42	7	2	1	43	stable	1	200	43	sv	purple	turquoise	purple	turquoise	left	right	0.7	0.30000000000000004	2	6	1.4	1.8000000000000005	1	0	0.7	0.30000000000000004	2	6	1.4	1.8000000000000005	valid	0.6165106170010404	51200	0	0	1	53248	0	51200	1	53248	0	0.7	51200	purple	turquoise	0	2	ml	2.7.3	bip	sub-07_ses-02_task-ml_proj-bip_2020-12-04-10-27-36.600613
43	7	2	1	44	stable	1	200	44	sv	turquoise	purple	purple	turquoise	right	left	0.7	0.30000000000000004	4	2	2.8	0.6000000000000001	0	1	0.30000000000000004	0.7	2	4	0.6000000000000001	2.8	invalid	0.583201695999378	53248	0	1	1	53248	1	53248	1	53248	1	0.7	53248	purple	turquoise	1	0	ml	2.7.3	bip	sub-07_ses-02_task-ml_proj-bip_2020-12-04-10-27-36.600613
44	7	2	1	45	stable	1	200	45	sv	purple	turquoise	purple	turquoise	left	right	0.7	0.30000000000000004	6	2	4.199999999999998	0.6000000000000001	1	0	0.7	0.30000000000000004	6	2	4.199999999999998	0.6000000000000001	valid	0.6664988200009248	51200	0	0	1	51200	1	51200	1	51200	1	0.7	51200	purple	turquoise	1	6	ml	2.7.3	bip	sub-07_ses-02_task-ml_proj-bip_2020-12-04-10-27-36.600613
45	7	2	1	46	stable	1	200	46	sv	turquoise	purple	purple	turquoise	right	left	0.7	0.30000000000000004	2	4	1.4	1.2000000000000002	0	1	0.30000000000000004	0.7	4	2	1.2000000000000002	1.4	invalid	0.8164919250011735	53248	0	1	1	53248	1	53248	1	51200	0	0.7	53248	purple	turquoise	0	0	ml	2.7.3	bip	sub-07_ses-02_task-ml_proj-bip_2020-12-04-10-27-36.600613
46	7	2	1	47	stable	1	200	47	sv	turquoise	purple	purple	turquoise	right	left	0.7	0.30000000000000004	2	6	1.4	1.8000000000000005	1	0	0.30000000000000004	0.7	6	2	1.8000000000000005	1.4	valid	1.1830165990013484	51200	0	0	2	51200	1	53248	0	51200	1	0.7	53248	purple	turquoise	0	0	ml	2.7.3	bip	sub-07_ses-02_task-ml_proj-bip_2020-12-04-10-27-36.600613
47	7	2	1	48	stable	1	200	48	sv	purple	turquoise	purple	turquoise	left	right	0.7	0.30000000000000004	4	6	2.8	1.8000000000000005	1	0	0.7	0.30000000000000004	4	6	2.8	1.8000000000000005	valid	1.0663842080011818	51200	0	0	1	51200	1	51200	1	53248	0	0.7	51200	purple	turquoise	0	4	ml	2.7.3	bip	sub-07_ses-02_task-ml_proj-bip_2020-12-04-10-27-36.600613
48	7	2	1	49	stable	1	200	49	sv	purple	turquoise	purple	turquoise	left	right	0.7	0.30000000000000004	6	2	4.199999999999998	0.6000000000000001	1	0	0.7	0.30000000000000004	6	2	4.199999999999998	0.6000000000000001	valid	0.6165131819998351	51200	0	0	1	51200	1	51200	1	51200	1	0.7	51200	purple	turquoise	1	6	ml	2.7.3	bip	sub-07_ses-02_task-ml_proj-bip_2020-12-04-10-27-36.600613
49	7	2	1	50	stable	1	200	50	sv	turquoise	purple	purple	turquoise	right	left	0.7	0.30000000000000004	2	6	1.4	1.8000000000000005	0	1	0.30000000000000004	0.7	6	2	1.8000000000000005	1.4	invalid	1.1663484380005684	51200	0	0	2	51200	1	53248	0	51200	1	0.7	53248	purple	turquoise	0	6	ml	2.7.3	bip	sub-07_ses-02_task-ml_proj-bip_2020-12-04-10-27-36.600613
50	7	2	2	51	stable	1	200	51	sv	purple	turquoise	purple	turquoise	left	right	0.7	0.30000000000000004	2	6	1.4	1.8000000000000005	1	0	0.7	0.30000000000000004	2	6	1.4	1.8000000000000005	valid	0.483231831998637	53248	0	1	2	53248	1	51200	0	53248	1	0.7	51200	purple	turquoise	0	0	ml	2.7.3	bip	sub-07_ses-02_task-ml_proj-bip_2020-12-04-10-27-36.600613
51	7	2	2	52	stable	1	200	52	sv	turquoise	purple	purple	turquoise	right	left	0.7	0.30000000000000004	2	2	1.4	0.6000000000000001	1	0	0.30000000000000004	0.7	2	2	0.6000000000000001	1.4	valid	0.5165689549994568	51200	0	0	2	53248	0	53248	0	53248	0	0.7	53248	purple	turquoise	0	0	ml	2.7.3	bip	sub-07_ses-02_task-ml_proj-bip_2020-12-04-10-27-36.600613
52	7	2	2	53	stable	1	200	53	sv	turquoise	purple	purple	turquoise	right	left	0.7	0.30000000000000004	2	4	1.4	1.2000000000000002	1	0	0.30000000000000004	0.7	4	2	1.2000000000000002	1.4	valid	0.5998486750013399	51200	0	0	2	53248	0	53248	0	51200	1	0.7	53248	purple	turquoise	0	0	ml	2.7.3	bip	sub-07_ses-02_task-ml_proj-bip_2020-12-04-10-27-36.600613
53	7	2	2	54	stable	1	200	54	sv	turquoise	purple	purple	turquoise	right	left	0.7	0.30000000000000004	4	6	2.8	1.8000000000000005	1	0	0.30000000000000004	0.7	6	4	1.8000000000000005	2.8	valid	0.7498201349990268	53248	0	1	1	53248	1	53248	1	51200	0	0.7	53248	purple	turquoise	0	4	ml	2.7.3	bip	sub-07_ses-02_task-ml_proj-bip_2020-12-04-10-27-36.600613
54	7	2	2	55	stable	1	200	55	sv	turquoise	purple	purple	turquoise	right	left	0.7	0.30000000000000004	2	4	1.4	1.2000000000000002	1	0	0.30000000000000004	0.7	4	2	1.2000000000000002	1.4	valid	0.6665105890006089	53248	0	1	1	53248	1	53248	1	51200	0	0.7	53248	purple	turquoise	0	2	ml	2.7.3	bip	sub-07_ses-02_task-ml_proj-bip_2020-12-04-10-27-36.600613
55	7	2	2	56	stable	1	200	56	sv	purple	turquoise	purple	turquoise	left	right	0.7	0.30000000000000004	6	2	4.199999999999998	0.6000000000000001	0	1	0.7	0.30000000000000004	6	2	4.199999999999998	0.6000000000000001	invalid	0.5831925589991442	51200	0	0	1	51200	1	51200	1	51200	1	0.7	51200	purple	turquoise	1	0	ml	2.7.3	bip	sub-07_ses-02_task-ml_proj-bip_2020-12-04-10-27-36.600613
56	7	2	2	57	stable	1	200	57	sv	purple	turquoise	purple	turquoise	left	right	0.7	0.30000000000000004	6	4	4.199999999999998	1.2000000000000002	0	1	0.7	0.30000000000000004	6	4	4.199999999999998	1.2000000000000002	invalid	0.4498969919986848	51200	0	0	1	51200	1	51200	1	51200	1	0.7	51200	purple	turquoise	1	0	ml	2.7.3	bip	sub-07_ses-02_task-ml_proj-bip_2020-12-04-10-27-36.600613
57	7	2	2	58	stable	1	200	58	sv	turquoise	purple	purple	turquoise	right	left	0.7	0.30000000000000004	4	2	2.8	0.6000000000000001	0	1	0.30000000000000004	0.7	2	4	0.6000000000000001	2.8	invalid	0.9830876989999524	53248	0	1	1	53248	1	53248	1	53248	1	0.7	53248	purple	turquoise	1	0	ml	2.7.3	bip	sub-07_ses-02_task-ml_proj-bip_2020-12-04-10-27-36.600613
58	7	2	2	59	stable	1	200	59	sv	purple	turquoise	purple	turquoise	left	right	0.7	0.30000000000000004	10	2	7.0	0.6000000000000001	1	0	0.7	0.30000000000000004	10	2	7.0	0.6000000000000001	valid	0.6665110129997629	53248	0	1	2	51200	0	51200	0	51200	0	0.7	51200	purple	turquoise	1	0	ml	2.7.3	bip	sub-07_ses-02_task-ml_proj-bip_2020-12-04-10-27-36.600613
59	7	2	2	60	stable	1	200	60	sv	purple	turquoise	purple	turquoise	left	right	0.7	0.30000000000000004	4	6	2.8	1.8000000000000005	1	0	0.7	0.30000000000000004	4	6	2.8	1.8000000000000005	valid	0.5332154050011013	53248	0	1	2	51200	0	51200	0	53248	1	0.7	51200	purple	turquoise	0	0	ml	2.7.3	bip	sub-07_ses-02_task-ml_proj-bip_2020-12-04-10-27-36.600613
60	7	2	2	61	stable	1	200	61	sv	purple	turquoise	purple	turquoise	left	right	0.7	0.30000000000000004	6	6	4.199999999999998	1.8000000000000005	1	0	0.7	0.30000000000000004	6	6	4.199999999999998	1.8000000000000005	valid	0.3832594819996302	53248	0	1	2	51200	0	51200	0	53248	1	0.7	51200	purple	turquoise	1	0	ml	2.7.3	bip	sub-07_ses-02_task-ml_proj-bip_2020-12-04-10-27-36.600613
61	7	2	2	62	stable	1	200	62	sv	turquoise	purple	purple	turquoise	right	left	0.7	0.30000000000000004	2	2	1.4	0.6000000000000001	1	0	0.30000000000000004	0.7	2	2	0.6000000000000001	1.4	valid	0.6665123239999957	53248	0	1	1	53248	1	53248	1	53248	1	0.7	53248	purple	turquoise	0	2	ml	2.7.3	bip	sub-07_ses-02_task-ml_proj-bip_2020-12-04-10-27-36.600613
62	7	2	2	63	stable	1	200	63	sv	purple	turquoise	purple	turquoise	left	right	0.7	0.30000000000000004	2	2	1.4	0.6000000000000001	1	0	0.7	0.30000000000000004	2	2	1.4	0.6000000000000001	valid	0.4498934530001861	51200	0	0	1	51200	1	51200	1	53248	0	0.7	51200	purple	turquoise	1	2	ml	2.7.3	bip	sub-07_ses-02_task-ml_proj-bip_2020-12-04-10-27-36.600613
63	7	2	2	64	stable	1	200	64	sv	turquoise	purple	purple	turquoise	right	left	0.7	0.30000000000000004	10	2	7.0	0.6000000000000001	1	0	0.30000000000000004	0.7	2	10	0.6000000000000001	7.0	valid	0.5498754520012881	53248	0	1	1	53248	1	53248	1	53248	1	0.7	53248	purple	turquoise	1	10	ml	2.7.3	bip	sub-07_ses-02_task-ml_proj-bip_2020-12-04-10-27-36.600613
64	7	2	2	65	stable	1	200	65	sv	purple	turquoise	purple	turquoise	left	right	0.7	0.30000000000000004	4	2	2.8	0.6000000000000001	1	0	0.7	0.30000000000000004	4	2	2.8	0.6000000000000001	valid	0.5498673530000815	51200	0	0	1	51200	1	51200	1	51200	1	0.7	51200	purple	turquoise	1	4	ml	2.7.3	bip	sub-07_ses-02_task-ml_proj-bip_2020-12-04-10-27-36.600613
65	7	2	2	66	stable	1	200	66	sv	purple	turquoise	purple	turquoise	left	right	0.7	0.30000000000000004	10	2	7.0	0.6000000000000001	1	0	0.7	0.30000000000000004	10	2	7.0	0.6000000000000001	valid	0.5498674480004411	51200	0	0	1	51200	1	51200	1	51200	1	0.7	51200	purple	turquoise	1	10	ml	2.7.3	bip	sub-07_ses-02_task-ml_proj-bip_2020-12-04-10-27-36.600613
66	7	2	2	67	stable	1	200	67	sv	purple	turquoise	purple	turquoise	left	right	0.7	0.30000000000000004	2	10	1.4	3.0000000000000004	1	0	0.7	0.30000000000000004	2	10	1.4	3.0000000000000004	valid	0.6831725970005209	53248	0	1	2	53248	1	51200	0	53248	1	0.7	51200	purple	turquoise	0	0	ml	2.7.3	bip	sub-07_ses-02_task-ml_proj-bip_2020-12-04-10-27-36.600613
67	7	2	2	68	stable	1	200	68	sv	turquoise	purple	purple	turquoise	right	left	0.7	0.30000000000000004	6	4	4.199999999999998	1.2000000000000002	0	1	0.30000000000000004	0.7	4	6	1.2000000000000002	4.199999999999998	invalid	0.6831661720007105	53248	0	1	1	53248	1	53248	1	53248	1	0.7	53248	purple	turquoise	1	0	ml	2.7.3	bip	sub-07_ses-02_task-ml_proj-bip_2020-12-04-10-27-36.600613
68	7	2	2	69	stable	1	200	69	sv	turquoise	purple	purple	turquoise	right	left	0.7	0.30000000000000004	2	10	1.4	3.0000000000000004	1	0	0.30000000000000004	0.7	10	2	3.0000000000000004	1.4	valid	0.7997939350007073	51200	0	0	2	51200	1	53248	0	51200	1	0.7	53248	purple	turquoise	0	0	ml	2.7.3	bip	sub-07_ses-02_task-ml_proj-bip_2020-12-04-10-27-36.600613
69	7	2	2	70	stable	1	200	70	sv	purple	turquoise	purple	turquoise	left	right	0.7	0.30000000000000004	4	2	2.8	0.6000000000000001	0	1	0.7	0.30000000000000004	4	2	2.8	0.6000000000000001	invalid	0.6498367399999552	51200	0	0	1	51200	1	51200	1	51200	1	0.7	51200	purple	turquoise	1	0	ml	2.7.3	bip	sub-07_ses-02_task-ml_proj-bip_2020-12-04-10-27-36.600613
70	7	2	2	71	stable	1	200	71	sv	turquoise	purple	purple	turquoise	right	left	0.7	0.30000000000000004	6	4	4.199999999999998	1.2000000000000002	1	0	0.30000000000000004	0.7	4	6	1.2000000000000002	4.199999999999998	valid	0.4665663539999514	53248	0	1	1	53248	1	53248	1	53248	1	0.7	53248	purple	turquoise	1	6	ml	2.7.3	bip	sub-07_ses-02_task-ml_proj-bip_2020-12-04-10-27-36.600613
71	7	2	2	72	stable	1	200	72	sv	purple	turquoise	purple	turquoise	left	right	0.7	0.30000000000000004	6	6	4.199999999999998	1.8000000000000005	0	1	0.7	0.30000000000000004	6	6	4.199999999999998	1.8000000000000005	invalid	0.6498395070011611	51200	0	0	1	51200	1	51200	1	53248	0	0.7	51200	purple	turquoise	1	0	ml	2.7.3	bip	sub-07_ses-02_task-ml_proj-bip_2020-12-04-10-27-36.600613
72	7	2	2	73	stable	1	200	73	sv	turquoise	purple	purple	turquoise	right	left	0.7	0.30000000000000004	2	2	1.4	0.6000000000000001	1	0	0.30000000000000004	0.7	2	2	0.6000000000000001	1.4	valid	0.5332147760000225	53248	0	1	1	53248	1	53248	1	53248	1	0.7	53248	purple	turquoise	0	2	ml	2.7.3	bip	sub-07_ses-02_task-ml_proj-bip_2020-12-04-10-27-36.600613
73	7	2	2	74	stable	1	200	74	sv	purple	turquoise	purple	turquoise	left	right	0.7	0.30000000000000004	4	2	2.8	0.6000000000000001	1	0	0.7	0.30000000000000004	4	2	2.8	0.6000000000000001	valid	0.4832099490013206	51200	0	0	1	51200	1	51200	1	51200	1	0.7	51200	purple	turquoise	1	4	ml	2.7.3	bip	sub-07_ses-02_task-ml_proj-bip_2020-12-04-10-27-36.600613
74	7	2	2	75	stable	1	200	75	sv	purple	turquoise	purple	turquoise	left	right	0.7	0.30000000000000004	6	6	4.199999999999998	1.8000000000000005	1	0	0.7	0.30000000000000004	6	6	4.199999999999998	1.8000000000000005	valid	0.5665353300009883	51200	0	0	1	51200	1	51200	1	53248	0	0.7	51200	purple	turquoise	1	6	ml	2.7.3	bip	sub-07_ses-02_task-ml_proj-bip_2020-12-04-10-27-36.600613
75	7	2	2	76	stable	1	200	76	sv	purple	turquoise	purple	turquoise	left	right	0.7	0.30000000000000004	2	6	1.4	1.8000000000000005	1	0	0.7	0.30000000000000004	2	6	1.4	1.8000000000000005	valid	1.0330606429997715	51200	0	0	1	53248	0	51200	1	53248	0	0.7	51200	purple	turquoise	0	2	ml	2.7.3	bip	sub-07_ses-02_task-ml_proj-bip_2020-12-04-10-27-36.600613
76	7	2	2	77	stable	1	200	77	sv	purple	turquoise	purple	turquoise	left	right	0.7	0.30000000000000004	2	10	1.4	3.0000000000000004	1	0	0.7	0.30000000000000004	2	10	1.4	3.0000000000000004	valid	0.5998680310003692	53248	0	1	2	53248	1	51200	0	53248	1	0.7	51200	purple	turquoise	0	0	ml	2.7.3	bip	sub-07_ses-02_task-ml_proj-bip_2020-12-04-10-27-36.600613
77	7	2	2	78	stable	1	200	78	sv	purple	turquoise	purple	turquoise	left	right	0.7	0.30000000000000004	2	2	1.4	0.6000000000000001	1	0	0.7	0.30000000000000004	2	2	1.4	0.6000000000000001	valid	0.6331768370000646	51200	0	0	1	51200	1	51200	1	53248	0	0.7	51200	purple	turquoise	1	2	ml	2.7.3	bip	sub-07_ses-02_task-ml_proj-bip_2020-12-04-10-27-36.600613
78	7	2	2	79	stable	1	200	79	sv	turquoise	purple	purple	turquoise	right	left	0.7	0.30000000000000004	2	4	1.4	1.2000000000000002	1	0	0.30000000000000004	0.7	4	2	1.2000000000000002	1.4	valid	0.5498684140002297	51200	0	0	2	53248	0	53248	0	51200	1	0.7	53248	purple	turquoise	0	0	ml	2.7.3	bip	sub-07_ses-02_task-ml_proj-bip_2020-12-04-10-27-36.600613
79	7	2	2	80	stable	1	200	80	sv	purple	turquoise	purple	turquoise	left	right	0.7	0.30000000000000004	2	6	1.4	1.8000000000000005	1	0	0.7	0.30000000000000004	2	6	1.4	1.8000000000000005	valid	0.5332079519994295	51200	0	0	1	53248	0	51200	1	53248	0	0.7	51200	purple	turquoise	0	2	ml	2.7.3	bip	sub-07_ses-02_task-ml_proj-bip_2020-12-04-10-27-36.600613
80	7	2	2	81	stable	1	200	81	sv	turquoise	purple	purple	turquoise	right	left	0.7	0.30000000000000004	6	2	4.199999999999998	0.6000000000000001	1	0	0.30000000000000004	0.7	2	6	0.6000000000000001	4.199999999999998	valid	0.49989321500106604	53248	0	1	1	53248	1	53248	1	53248	1	0.7	53248	purple	turquoise	1	6	ml	2.7.3	bip	sub-07_ses-02_task-ml_proj-bip_2020-12-04-10-27-36.600613
81	7	2	2	82	stable	1	200	82	sv	turquoise	purple	purple	turquoise	right	left	0.7	0.30000000000000004	2	10	1.4	3.0000000000000004	1	0	0.30000000000000004	0.7	10	2	3.0000000000000004	1.4	valid	0.5831886969990592	51200	0	0	2	51200	1	53248	0	51200	1	0.7	53248	purple	turquoise	0	0	ml	2.7.3	bip	sub-07_ses-02_task-ml_proj-bip_2020-12-04-10-27-36.600613
82	7	2	2	83	stable	1	200	83	sv	purple	turquoise	purple	turquoise	left	right	0.7	0.30000000000000004	2	2	1.4	0.6000000000000001	1	0	0.7	0.30000000000000004	2	2	1.4	0.6000000000000001	valid	0.5998500339992461	51200	0	0	1	51200	1	51200	1	53248	0	0.7	51200	purple	turquoise	1	2	ml	2.7.3	bip	sub-07_ses-02_task-ml_proj-bip_2020-12-04-10-27-36.600613
83	7	2	2	84	stable	1	200	84	sv	purple	turquoise	purple	turquoise	left	right	0.7	0.30000000000000004	4	2	2.8	0.6000000000000001	1	0	0.7	0.30000000000000004	4	2	2.8	0.6000000000000001	valid	0.6665003119996982	51200	0	0	1	51200	1	51200	1	51200	1	0.7	51200	purple	turquoise	1	4	ml	2.7.3	bip	sub-07_ses-02_task-ml_proj-bip_2020-12-04-10-27-36.600613
84	7	2	2	85	stable	1	200	85	sv	purple	turquoise	purple	turquoise	left	right	0.7	0.30000000000000004	2	4	1.4	1.2000000000000002	0	1	0.7	0.30000000000000004	2	4	1.4	1.2000000000000002	invalid	0.7331456450010592	51200	0	0	1	51200	1	51200	1	53248	0	0.7	51200	purple	turquoise	0	0	ml	2.7.3	bip	sub-07_ses-02_task-ml_proj-bip_2020-12-04-10-27-36.600613
85	7	2	2	86	stable	1	200	86	sv	purple	turquoise	purple	turquoise	left	right	0.7	0.30000000000000004	4	2	2.8	0.6000000000000001	1	0	0.7	0.30000000000000004	4	2	2.8	0.6000000000000001	valid	0.5998525519989926	51200	0	0	1	51200	1	51200	1	51200	1	0.7	51200	purple	turquoise	1	4	ml	2.7.3	bip	sub-07_ses-02_task-ml_proj-bip_2020-12-04-10-27-36.600613
86	7	2	2	87	stable	1	200	87	sv	turquoise	purple	purple	turquoise	right	left	0.7	0.30000000000000004	2	2	1.4	0.6000000000000001	1	0	0.30000000000000004	0.7	2	2	0.6000000000000001	1.4	valid	0.5998595649998606	53248	0	1	1	53248	1	53248	1	53248	1	0.7	53248	purple	turquoise	0	2	ml	2.7.3	bip	sub-07_ses-02_task-ml_proj-bip_2020-12-04-10-27-36.600613
87	7	2	2	88	stable	1	200	88	sv	turquoise	purple	purple	turquoise	right	left	0.7	0.30000000000000004	4	2	2.8	0.6000000000000001	1	0	0.30000000000000004	0.7	2	4	0.6000000000000001	2.8	valid	0.7331507459985005	53248	0	1	1	53248	1	53248	1	53248	1	0.7	53248	purple	turquoise	1	4	ml	2.7.3	bip	sub-07_ses-02_task-ml_proj-bip_2020-12-04-10-27-36.600613
88	7	2	2	89	stable	1	200	89	sv	purple	turquoise	purple	turquoise	left	right	0.7	0.30000000000000004	2	6	1.4	1.8000000000000005	0	1	0.7	0.30000000000000004	2	6	1.4	1.8000000000000005	invalid	0.9997480440015352	53248	0	1	2	53248	1	51200	0	53248	1	0.7	51200	purple	turquoise	0	6	ml	2.7.3	bip	sub-07_ses-02_task-ml_proj-bip_2020-12-04-10-27-36.600613
89	7	2	2	90	stable	1	200	90	sv	purple	turquoise	purple	turquoise	left	right	0.7	0.30000000000000004	4	6	2.8	1.8000000000000005	0	1	0.7	0.30000000000000004	4	6	2.8	1.8000000000000005	invalid	0.7664701940011582	51200	0	0	1	51200	1	51200	1	53248	0	0.7	51200	purple	turquoise	0	0	ml	2.7.3	bip	sub-07_ses-02_task-ml_proj-bip_2020-12-04-10-27-36.600613
90	7	2	2	91	stable	1	200	91	sv	turquoise	purple	purple	turquoise	right	left	0.7	0.30000000000000004	6	4	4.199999999999998	1.2000000000000002	1	0	0.30000000000000004	0.7	4	6	1.2000000000000002	4.199999999999998	valid	0.6165108990007866	51200	0	0	2	53248	0	53248	0	53248	0	0.7	53248	purple	turquoise	1	0	ml	2.7.3	bip	sub-07_ses-02_task-ml_proj-bip_2020-12-04-10-27-36.600613
91	7	2	2	92	stable	1	200	92	sv	purple	turquoise	purple	turquoise	left	right	0.7	0.30000000000000004	2	6	1.4	1.8000000000000005	0	1	0.7	0.30000000000000004	2	6	1.4	1.8000000000000005	invalid	0.4665705039988097	53248	0	1	2	53248	1	51200	0	53248	1	0.7	51200	purple	turquoise	0	6	ml	2.7.3	bip	sub-07_ses-02_task-ml_proj-bip_2020-12-04-10-27-36.600613
92	7	2	2	93	stable	1	200	93	sv	purple	turquoise	purple	turquoise	left	right	0.7	0.30000000000000004	2	10	1.4	3.0000000000000004	1	0	0.7	0.30000000000000004	2	10	1.4	3.0000000000000004	valid	0.5332158199998958	53248	0	1	2	53248	1	51200	0	53248	1	0.7	51200	purple	turquoise	0	0	ml	2.7.3	bip	sub-07_ses-02_task-ml_proj-bip_2020-12-04-10-27-36.600613
93	7	2	2	94	stable	1	200	94	sv	turquoise	purple	purple	turquoise	right	left	0.7	0.30000000000000004	10	2	7.0	0.6000000000000001	1	0	0.30000000000000004	0.7	2	10	0.6000000000000001	7.0	valid	0.8830978180012607	51200	0	0	2	53248	0	53248	0	53248	0	0.7	53248	purple	turquoise	1	0	ml	2.7.3	bip	sub-07_ses-02_task-ml_proj-bip_2020-12-04-10-27-36.600613
94	7	2	2	95	stable	1	200	95	sv	turquoise	purple	purple	turquoise	right	left	0.7	0.30000000000000004	4	6	2.8	1.8000000000000005	1	0	0.30000000000000004	0.7	6	4	1.8000000000000005	2.8	valid	0.7831573169987678	51200	0	0	2	53248	0	53248	0	51200	1	0.7	53248	purple	turquoise	0	0	ml	2.7.3	bip	sub-07_ses-02_task-ml_proj-bip_2020-12-04-10-27-36.600613
95	7	2	2	96	stable	1	200	96	sv	purple	turquoise	purple	turquoise	left	right	0.7	0.30000000000000004	6	4	4.199999999999998	1.2000000000000002	1	0	0.7	0.30000000000000004	6	4	4.199999999999998	1.2000000000000002	valid	0.4665557339994848	51200	0	0	1	51200	1	51200	1	51200	1	0.7	51200	purple	turquoise	1	6	ml	2.7.3	bip	sub-07_ses-02_task-ml_proj-bip_2020-12-04-10-27-36.600613
96	7	2	2	97	stable	1	200	97	sv	turquoise	purple	purple	turquoise	right	left	0.7	0.30000000000000004	2	6	1.4	1.8000000000000005	0	1	0.30000000000000004	0.7	6	2	1.8000000000000005	1.4	invalid	0.5998631479997131	53248	0	1	1	51200	0	53248	1	51200	0	0.7	53248	purple	turquoise	0	0	ml	2.7.3	bip	sub-07_ses-02_task-ml_proj-bip_2020-12-04-10-27-36.600613
97	7	2	2	98	stable	1	200	98	sv	purple	turquoise	purple	turquoise	left	right	0.7	0.30000000000000004	6	6	4.199999999999998	1.8000000000000005	0	1	0.7	0.30000000000000004	6	6	4.199999999999998	1.8000000000000005	invalid	0.38324216100045305	51200	0	0	1	51200	1	51200	1	53248	0	0.7	51200	purple	turquoise	1	0	ml	2.7.3	bip	sub-07_ses-02_task-ml_proj-bip_2020-12-04-10-27-36.600613
98	7	2	2	99	stable	1	200	99	sv	turquoise	purple	purple	turquoise	right	left	0.7	0.30000000000000004	2	2	1.4	0.6000000000000001	1	0	0.30000000000000004	0.7	2	2	0.6000000000000001	1.4	valid	0.6831700100010494	53248	0	1	1	53248	1	53248	1	53248	1	0.7	53248	purple	turquoise	0	2	ml	2.7.3	bip	sub-07_ses-02_task-ml_proj-bip_2020-12-04-10-27-36.600613
99	7	2	2	100	stable	1	200	100	sv	purple	turquoise	purple	turquoise	left	right	0.7	0.30000000000000004	4	2	2.8	0.6000000000000001	1	0	0.7	0.30000000000000004	4	2	2.8	0.6000000000000001	valid	0.4498941990004823	51200	0	0	1	51200	1	51200	1	51200	1	0.7	51200	purple	turquoise	1	4	ml	2.7.3	bip	sub-07_ses-02_task-ml_proj-bip_2020-12-04-10-27-36.600613
100	7	2	3	101	stable	1	200	101	sv	turquoise	purple	purple	turquoise	right	left	0.7	0.30000000000000004	6	2	4.199999999999998	0.6000000000000001	1	0	0.30000000000000004	0.7	2	6	0.6000000000000001	4.199999999999998	valid	0.8497841749995132	53248	0	1	1	53248	1	53248	1	53248	1	0.7	53248	purple	turquoise	1	6	ml	2.7.3	bip	sub-07_ses-02_task-ml_proj-bip_2020-12-04-10-27-36.600613
101	7	2	3	102	stable	1	200	102	sv	turquoise	purple	purple	turquoise	right	left	0.7	0.30000000000000004	10	2	7.0	0.6000000000000001	0	1	0.30000000000000004	0.7	2	10	0.6000000000000001	7.0	invalid	0.449907001999236	53248	0	1	1	53248	1	53248	1	53248	1	0.7	53248	purple	turquoise	1	0	ml	2.7.3	bip	sub-07_ses-02_task-ml_proj-bip_2020-12-04-10-27-36.600613
102	7	2	3	103	stable	1	200	103	sv	purple	turquoise	purple	turquoise	left	right	0.7	0.30000000000000004	2	6	1.4	1.8000000000000005	1	0	0.7	0.30000000000000004	2	6	1.4	1.8000000000000005	valid	0.6331761670007836	51200	0	0	1	53248	0	51200	1	53248	0	0.7	51200	purple	turquoise	0	2	ml	2.7.3	bip	sub-07_ses-02_task-ml_proj-bip_2020-12-04-10-27-36.600613
103	7	2	3	104	stable	1	200	104	sv	turquoise	purple	purple	turquoise	right	left	0.7	0.30000000000000004	6	6	4.199999999999998	1.8000000000000005	1	0	0.30000000000000004	0.7	6	6	1.8000000000000005	4.199999999999998	valid	0.7331481809997058	51200	0	0	2	53248	0	53248	0	53248	0	0.7	53248	purple	turquoise	0	0	ml	2.7.3	bip	sub-07_ses-02_task-ml_proj-bip_2020-12-04-10-27-36.600613
104	7	2	3	105	stable	1	200	105	sv	turquoise	purple	purple	turquoise	right	left	0.7	0.30000000000000004	6	4	4.199999999999998	1.2000000000000002	0	1	0.30000000000000004	0.7	4	6	1.2000000000000002	4.199999999999998	invalid	0.5665431970010104	53248	0	1	1	53248	1	53248	1	53248	1	0.7	53248	purple	turquoise	1	0	ml	2.7.3	bip	sub-07_ses-02_task-ml_proj-bip_2020-12-04-10-27-36.600613
105	7	2	3	106	stable	1	200	106	sv	turquoise	purple	purple	turquoise	right	left	0.7	0.30000000000000004	6	4	4.199999999999998	1.2000000000000002	0	1	0.30000000000000004	0.7	4	6	1.2000000000000002	4.199999999999998	invalid	0.4998975719990994	53248	0	1	1	53248	1	53248	1	53248	1	0.7	53248	purple	turquoise	1	0	ml	2.7.3	bip	sub-07_ses-02_task-ml_proj-bip_2020-12-04-10-27-36.600613
106	7	2	3	107	stable	1	200	107	sv	turquoise	purple	purple	turquoise	right	left	0.7	0.30000000000000004	2	6	1.4	1.8000000000000005	1	0	0.30000000000000004	0.7	6	2	1.8000000000000005	1.4	valid	0.8497914950003178	53248	0	1	1	51200	0	53248	1	51200	0	0.7	53248	purple	turquoise	0	2	ml	2.7.3	bip	sub-07_ses-02_task-ml_proj-bip_2020-12-04-10-27-36.600613
107	7	2	3	108	stable	1	200	108	sv	purple	turquoise	purple	turquoise	left	right	0.7	0.30000000000000004	2	6	1.4	1.8000000000000005	1	0	0.7	0.30000000000000004	2	6	1.4	1.8000000000000005	valid	0.6998229199998605	51200	0	0	1	53248	0	51200	1	53248	0	0.7	51200	purple	turquoise	0	2	ml	2.7.3	bip	sub-07_ses-02_task-ml_proj-bip_2020-12-04-10-27-36.600613
108	7	2	3	109	stable	1	200	109	sv	purple	turquoise	purple	turquoise	left	right	0.7	0.30000000000000004	6	4	4.199999999999998	1.2000000000000002	0	1	0.7	0.30000000000000004	6	4	4.199999999999998	1.2000000000000002	invalid	0.5165433849997498	51200	0	0	1	51200	1	51200	1	51200	1	0.7	51200	purple	turquoise	1	0	ml	2.7.3	bip	sub-07_ses-02_task-ml_proj-bip_2020-12-04-10-27-36.600613
109	7	2	3	110	stable	1	200	110	sv	purple	turquoise	purple	turquoise	left	right	0.7	0.30000000000000004	2	4	1.4	1.2000000000000002	0	1	0.7	0.30000000000000004	2	4	1.4	1.2000000000000002	invalid	0.6664927780002472	51200	0	0	1	51200	1	51200	1	53248	0	0.7	51200	purple	turquoise	0	0	ml	2.7.3	bip	sub-07_ses-02_task-ml_proj-bip_2020-12-04-10-27-36.600613
110	7	2	3	111	stable	1	200	111	sv	purple	turquoise	purple	turquoise	left	right	0.7	0.30000000000000004	2	10	1.4	3.0000000000000004	1	0	0.7	0.30000000000000004	2	10	1.4	3.0000000000000004	valid	0.4165826250009559	53248	0	1	2	53248	1	51200	0	53248	1	0.7	51200	purple	turquoise	0	0	ml	2.7.3	bip	sub-07_ses-02_task-ml_proj-bip_2020-12-04-10-27-36.600613
111	7	2	3	112	stable	1	200	112	sv	turquoise	purple	purple	turquoise	right	left	0.7	0.30000000000000004	4	2	2.8	0.6000000000000001	1	0	0.30000000000000004	0.7	2	4	0.6000000000000001	2.8	valid	1.1497146500005329	53248	0	1	1	53248	1	53248	1	53248	1	0.7	53248	purple	turquoise	1	4	ml	2.7.3	bip	sub-07_ses-02_task-ml_proj-bip_2020-12-04-10-27-36.600613
112	7	2	3	113	stable	1	200	113	sv	purple	turquoise	purple	turquoise	left	right	0.7	0.30000000000000004	6	2	4.199999999999998	0.6000000000000001	1	0	0.7	0.30000000000000004	6	2	4.199999999999998	0.6000000000000001	valid	0.43323236200012616	51200	0	0	1	51200	1	51200	1	51200	1	0.7	51200	purple	turquoise	1	6	ml	2.7.3	bip	sub-07_ses-02_task-ml_proj-bip_2020-12-04-10-27-36.600613
113	7	2	3	114	stable	1	200	114	sv	turquoise	purple	purple	turquoise	right	left	0.7	0.30000000000000004	10	2	7.0	0.6000000000000001	1	0	0.30000000000000004	0.7	2	10	0.6000000000000001	7.0	valid	0.949763176000488	53248	0	1	1	53248	1	53248	1	53248	1	0.7	53248	purple	turquoise	1	10	ml	2.7.3	bip	sub-07_ses-02_task-ml_proj-bip_2020-12-04-10-27-36.600613
114	7	2	3	115	stable	1	200	115	sv	purple	turquoise	purple	turquoise	left	right	0.7	0.30000000000000004	6	4	4.199999999999998	1.2000000000000002	1	0	0.7	0.30000000000000004	6	4	4.199999999999998	1.2000000000000002	valid	0.68316102999961	51200	0	0	1	51200	1	51200	1	51200	1	0.7	51200	purple	turquoise	1	6	ml	2.7.3	bip	sub-07_ses-02_task-ml_proj-bip_2020-12-04-10-27-36.600613
115	7	2	3	116	stable	1	200	116	sv	turquoise	purple	purple	turquoise	right	left	0.7	0.30000000000000004	2	10	1.4	3.0000000000000004	1	0	0.30000000000000004	0.7	10	2	3.0000000000000004	1.4	valid	0.9664181370008008	51200	0	0	2	51200	1	53248	0	51200	1	0.7	53248	purple	turquoise	0	0	ml	2.7.3	bip	sub-07_ses-02_task-ml_proj-bip_2020-12-04-10-27-36.600613
116	7	2	3	117	stable	1	200	117	sv	purple	turquoise	purple	turquoise	left	right	0.7	0.30000000000000004	6	6	4.199999999999998	1.8000000000000005	1	0	0.7	0.30000000000000004	6	6	4.199999999999998	1.8000000000000005	valid	0.4332350360000419	51200	0	0	1	51200	1	51200	1	53248	0	0.7	51200	purple	turquoise	1	6	ml	2.7.3	bip	sub-07_ses-02_task-ml_proj-bip_2020-12-04-10-27-36.600613
117	7	2	3	118	stable	1	200	118	sv	purple	turquoise	purple	turquoise	left	right	0.7	0.30000000000000004	2	4	1.4	1.2000000000000002	0	1	0.7	0.30000000000000004	2	4	1.4	1.2000000000000002	invalid	0.9664178179991724	51200	0	0	1	51200	1	51200	1	53248	0	0.7	51200	purple	turquoise	0	0	ml	2.7.3	bip	sub-07_ses-02_task-ml_proj-bip_2020-12-04-10-27-36.600613
118	7	2	3	119	stable	1	200	119	sv	turquoise	purple	purple	turquoise	right	left	0.7	0.30000000000000004	2	10	1.4	3.0000000000000004	0	1	0.30000000000000004	0.7	10	2	3.0000000000000004	1.4	invalid	0.5498661729998275	51200	0	0	2	51200	1	53248	0	51200	1	0.7	53248	purple	turquoise	0	10	ml	2.7.3	bip	sub-07_ses-02_task-ml_proj-bip_2020-12-04-10-27-36.600613
119	7	2	3	120	stable	1	200	120	sv	turquoise	purple	purple	turquoise	right	left	0.7	0.30000000000000004	2	2	1.4	0.6000000000000001	1	0	0.30000000000000004	0.7	2	2	0.6000000000000001	1.4	valid	0.6331864459989447	51200	0	0	2	53248	0	53248	0	53248	0	0.7	53248	purple	turquoise	0	0	ml	2.7.3	bip	sub-07_ses-02_task-ml_proj-bip_2020-12-04-10-27-36.600613
120	7	2	3	121	stable	1	200	121	sv	purple	turquoise	purple	turquoise	left	right	0.7	0.30000000000000004	2	6	1.4	1.8000000000000005	0	1	0.7	0.30000000000000004	2	6	1.4	1.8000000000000005	invalid	0.44990406299984903	53248	0	1	2	53248	1	51200	0	53248	1	0.7	51200	purple	turquoise	0	6	ml	2.7.3	bip	sub-07_ses-02_task-ml_proj-bip_2020-12-04-10-27-36.600613
121	7	2	3	122	stable	1	200	122	sv	turquoise	purple	purple	turquoise	right	left	0.7	0.30000000000000004	10	2	7.0	0.6000000000000001	1	0	0.30000000000000004	0.7	2	10	0.6000000000000001	7.0	valid	0.7164781339997717	51200	0	0	2	53248	0	53248	0	53248	0	0.7	53248	purple	turquoise	1	0	ml	2.7.3	bip	sub-07_ses-02_task-ml_proj-bip_2020-12-04-10-27-36.600613
122	7	2	3	123	stable	1	200	123	sv	purple	turquoise	purple	turquoise	left	right	0.7	0.30000000000000004	4	6	2.8	1.8000000000000005	1	0	0.7	0.30000000000000004	4	6	2.8	1.8000000000000005	valid	0.716497294999499	53248	0	1	2	51200	0	51200	0	53248	1	0.7	51200	purple	turquoise	0	0	ml	2.7.3	bip	sub-07_ses-02_task-ml_proj-bip_2020-12-04-10-27-36.600613
123	7	2	3	124	stable	1	200	124	sv	turquoise	purple	purple	turquoise	right	left	0.7	0.30000000000000004	6	2	4.199999999999998	0.6000000000000001	0	1	0.30000000000000004	0.7	2	6	0.6000000000000001	4.199999999999998	invalid	1.2496641219986486	51200	0	0	2	53248	0	53248	0	53248	0	0.7	53248	purple	turquoise	1	2	ml	2.7.3	bip	sub-07_ses-02_task-ml_proj-bip_2020-12-04-10-27-36.600613
124	7	2	3	125	stable	1	200	125	sv	purple	turquoise	purple	turquoise	left	right	0.7	0.30000000000000004	2	6	1.4	1.8000000000000005	1	0	0.7	0.30000000000000004	2	6	1.4	1.8000000000000005	valid	0.5665392039991275	53248	0	1	2	53248	1	51200	0	53248	1	0.7	51200	purple	turquoise	0	0	ml	2.7.3	bip	sub-07_ses-02_task-ml_proj-bip_2020-12-04-10-27-36.600613
125	7	2	3	126	stable	1	200	126	sv	purple	turquoise	purple	turquoise	left	right	0.7	0.30000000000000004	6	6	4.199999999999998	1.8000000000000005	1	0	0.7	0.30000000000000004	6	6	4.199999999999998	1.8000000000000005	valid	0.649836234999384	51200	0	0	1	51200	1	51200	1	53248	0	0.7	51200	purple	turquoise	1	6	ml	2.7.3	bip	sub-07_ses-02_task-ml_proj-bip_2020-12-04-10-27-36.600613
126	7	2	3	127	stable	1	200	127	sv	purple	turquoise	purple	turquoise	left	right	0.7	0.30000000000000004	2	2	1.4	0.6000000000000001	1	0	0.7	0.30000000000000004	2	2	1.4	0.6000000000000001	valid	0.5665281809997396	51200	0	0	1	51200	1	51200	1	53248	0	0.7	51200	purple	turquoise	1	2	ml	2.7.3	bip	sub-07_ses-02_task-ml_proj-bip_2020-12-04-10-27-36.600613
127	7	2	3	128	stable	1	200	128	sv	turquoise	purple	purple	turquoise	right	left	0.7	0.30000000000000004	4	6	2.8	1.8000000000000005	0	1	0.30000000000000004	0.7	6	4	1.8000000000000005	2.8	invalid	0.9164372679988446	53248	0	1	1	53248	1	53248	1	51200	0	0.7	53248	purple	turquoise	0	0	ml	2.7.3	bip	sub-07_ses-02_task-ml_proj-bip_2020-12-04-10-27-36.600613
128	7	2	3	129	stable	1	200	129	sv	turquoise	purple	purple	turquoise	right	left	0.7	0.30000000000000004	2	4	1.4	1.2000000000000002	0	1	0.30000000000000004	0.7	4	2	1.2000000000000002	1.4	invalid	0.6665054010009044	53248	0	1	1	53248	1	53248	1	51200	0	0.7	53248	purple	turquoise	0	0	ml	2.7.3	bip	sub-07_ses-02_task-ml_proj-bip_2020-12-04-10-27-36.600613
129	7	2	3	130	stable	1	200	130	sv	turquoise	purple	purple	turquoise	right	left	0.7	0.30000000000000004	6	2	4.199999999999998	0.6000000000000001	1	0	0.30000000000000004	0.7	2	6	0.6000000000000001	4.199999999999998	valid	0.6331807500009745	53248	0	1	1	53248	1	53248	1	53248	1	0.7	53248	purple	turquoise	1	6	ml	2.7.3	bip	sub-07_ses-02_task-ml_proj-bip_2020-12-04-10-27-36.600613
130	7	2	3	131	stable	1	200	131	sv	purple	turquoise	purple	turquoise	left	right	0.7	0.30000000000000004	6	2	4.199999999999998	0.6000000000000001	1	0	0.7	0.30000000000000004	6	2	4.199999999999998	0.6000000000000001	valid	0.633176094999726	51200	0	0	1	51200	1	51200	1	51200	1	0.7	51200	purple	turquoise	1	6	ml	2.7.3	bip	sub-07_ses-02_task-ml_proj-bip_2020-12-04-10-27-36.600613
131	7	2	3	132	stable	1	200	132	sv	purple	turquoise	purple	turquoise	left	right	0.7	0.30000000000000004	4	2	2.8	0.6000000000000001	1	0	0.7	0.30000000000000004	4	2	2.8	0.6000000000000001	valid	0.8664405980016454	51200	0	0	1	51200	1	51200	1	51200	1	0.7	51200	purple	turquoise	1	4	ml	2.7.3	bip	sub-07_ses-02_task-ml_proj-bip_2020-12-04-10-27-36.600613
132	7	2	3	133	stable	1	200	133	sv	purple	turquoise	purple	turquoise	left	right	0.7	0.30000000000000004	10	2	7.0	0.6000000000000001	1	0	0.7	0.30000000000000004	10	2	7.0	0.6000000000000001	valid	0.4665590909989987	51200	0	0	1	51200	1	51200	1	51200	1	0.7	51200	purple	turquoise	1	10	ml	2.7.3	bip	sub-07_ses-02_task-ml_proj-bip_2020-12-04-10-27-36.600613
133	7	2	3	134	stable	1	200	134	sv	turquoise	purple	purple	turquoise	right	left	0.7	0.30000000000000004	2	4	1.4	1.2000000000000002	1	0	0.30000000000000004	0.7	4	2	1.2000000000000002	1.4	valid	0.733158872999411	53248	0	1	1	53248	1	53248	1	51200	0	0.7	53248	purple	turquoise	0	2	ml	2.7.3	bip	sub-07_ses-02_task-ml_proj-bip_2020-12-04-10-27-36.600613
134	7	2	3	135	stable	1	200	135	sv	turquoise	purple	purple	turquoise	right	left	0.7	0.30000000000000004	4	2	2.8	0.6000000000000001	1	0	0.30000000000000004	0.7	2	4	0.6000000000000001	2.8	valid	0.6331846359989868	53248	0	1	1	53248	1	53248	1	53248	1	0.7	53248	purple	turquoise	1	4	ml	2.7.3	bip	sub-07_ses-02_task-ml_proj-bip_2020-12-04-10-27-36.600613
135	7	2	3	136	stable	1	200	136	sv	turquoise	purple	purple	turquoise	right	left	0.7	0.30000000000000004	6	2	4.199999999999998	0.6000000000000001	0	1	0.30000000000000004	0.7	2	6	0.6000000000000001	4.199999999999998	invalid	0.5498754660002305	53248	0	1	1	53248	1	53248	1	53248	1	0.7	53248	purple	turquoise	1	0	ml	2.7.3	bip	sub-07_ses-02_task-ml_proj-bip_2020-12-04-10-27-36.600613
136	7	2	3	137	stable	1	200	137	sv	purple	turquoise	purple	turquoise	left	right	0.7	0.30000000000000004	4	6	2.8	1.8000000000000005	0	1	0.7	0.30000000000000004	4	6	2.8	1.8000000000000005	invalid	0.8664283000016441	51200	0	0	1	51200	1	51200	1	53248	0	0.7	51200	purple	turquoise	0	0	ml	2.7.3	bip	sub-07_ses-02_task-ml_proj-bip_2020-12-04-10-27-36.600613
137	7	2	3	138	stable	1	200	138	sv	turquoise	purple	purple	turquoise	right	left	0.7	0.30000000000000004	4	2	2.8	0.6000000000000001	0	1	0.30000000000000004	0.7	2	4	0.6000000000000001	2.8	invalid	0.7998025280012371	53248	0	1	1	53248	1	53248	1	53248	1	0.7	53248	purple	turquoise	1	0	ml	2.7.3	bip	sub-07_ses-02_task-ml_proj-bip_2020-12-04-10-27-36.600613
138	7	2	3	139	stable	1	200	139	sv	turquoise	purple	purple	turquoise	right	left	0.7	0.30000000000000004	4	2	2.8	0.6000000000000001	1	0	0.30000000000000004	0.7	2	4	0.6000000000000001	2.8	valid	0.5332044330007193	51200	0	0	2	53248	0	53248	0	53248	0	0.7	53248	purple	turquoise	1	0	ml	2.7.3	bip	sub-07_ses-02_task-ml_proj-bip_2020-12-04-10-27-36.600613
139	7	2	3	140	stable	1	200	140	sv	turquoise	purple	purple	turquoise	right	left	0.7	0.30000000000000004	10	2	7.0	0.6000000000000001	0	1	0.30000000000000004	0.7	2	10	0.6000000000000001	7.0	invalid	0.916430555998886	53248	0	1	1	53248	1	53248	1	53248	1	0.7	53248	purple	turquoise	1	0	ml	2.7.3	bip	sub-07_ses-02_task-ml_proj-bip_2020-12-04-10-27-36.600613
140	7	2	3	141	stable	1	200	141	sv	purple	turquoise	purple	turquoise	left	right	0.7	0.30000000000000004	2	10	1.4	3.0000000000000004	1	0	0.7	0.30000000000000004	2	10	1.4	3.0000000000000004	valid	0.7998042779981915	53248	0	1	2	53248	1	51200	0	53248	1	0.7	51200	purple	turquoise	0	0	ml	2.7.3	bip	sub-07_ses-02_task-ml_proj-bip_2020-12-04-10-27-36.600613
141	7	2	3	142	stable	1	200	142	sv	purple	turquoise	purple	turquoise	left	right	0.7	0.30000000000000004	4	2	2.8	0.6000000000000001	0	1	0.7	0.30000000000000004	4	2	2.8	0.6000000000000001	invalid	0.6665018819985562	53248	0	1	2	51200	0	51200	0	51200	0	0.7	51200	purple	turquoise	1	2	ml	2.7.3	bip	sub-07_ses-02_task-ml_proj-bip_2020-12-04-10-27-36.600613
142	7	2	3	143	stable	1	200	143	sv	turquoise	purple	purple	turquoise	right	left	0.7	0.30000000000000004	6	6	4.199999999999998	1.8000000000000005	1	0	0.30000000000000004	0.7	6	6	1.8000000000000005	4.199999999999998	valid	0.4665557280004578	51200	0	0	2	53248	0	53248	0	53248	0	0.7	53248	purple	turquoise	0	0	ml	2.7.3	bip	sub-07_ses-02_task-ml_proj-bip_2020-12-04-10-27-36.600613
143	7	2	3	144	stable	1	200	144	sv	turquoise	purple	purple	turquoise	right	left	0.7	0.30000000000000004	6	6	4.199999999999998	1.8000000000000005	1	0	0.30000000000000004	0.7	6	6	1.8000000000000005	4.199999999999998	valid	0.7831331479992514	51200	0	0	2	53248	0	53248	0	53248	0	0.7	53248	purple	turquoise	0	0	ml	2.7.3	bip	sub-07_ses-02_task-ml_proj-bip_2020-12-04-10-27-36.600613
144	7	2	3	145	stable	1	200	145	sv	turquoise	purple	purple	turquoise	right	left	0.7	0.30000000000000004	4	2	2.8	0.6000000000000001	1	0	0.30000000000000004	0.7	2	4	0.6000000000000001	2.8	valid	0.4665665170014108	53248	0	1	1	53248	1	53248	1	53248	1	0.7	53248	purple	turquoise	1	4	ml	2.7.3	bip	sub-07_ses-02_task-ml_proj-bip_2020-12-04-10-27-36.600613
145	7	2	3	146	stable	1	200	146	sv	purple	turquoise	purple	turquoise	left	right	0.7	0.30000000000000004	2	2	1.4	0.6000000000000001	1	0	0.7	0.30000000000000004	2	2	1.4	0.6000000000000001	valid	0.5332122640011221	51200	0	0	1	51200	1	51200	1	53248	0	0.7	51200	purple	turquoise	1	2	ml	2.7.3	bip	sub-07_ses-02_task-ml_proj-bip_2020-12-04-10-27-36.600613
146	7	2	3	147	stable	1	200	147	sv	turquoise	purple	purple	turquoise	right	left	0.7	0.30000000000000004	4	6	2.8	1.8000000000000005	0	1	0.30000000000000004	0.7	6	4	1.8000000000000005	2.8	invalid	0.6165199219994975	53248	0	1	1	53248	1	53248	1	51200	0	0.7	53248	purple	turquoise	0	0	ml	2.7.3	bip	sub-07_ses-02_task-ml_proj-bip_2020-12-04-10-27-36.600613
147	7	2	3	148	stable	1	200	148	sv	turquoise	purple	purple	turquoise	right	left	0.7	0.30000000000000004	2	4	1.4	1.2000000000000002	1	0	0.30000000000000004	0.7	4	2	1.2000000000000002	1.4	valid	0.5831996420001815	53248	0	1	1	53248	1	53248	1	51200	0	0.7	53248	purple	turquoise	0	2	ml	2.7.3	bip	sub-07_ses-02_task-ml_proj-bip_2020-12-04-10-27-36.600613
148	7	2	3	149	stable	1	200	149	sv	purple	turquoise	purple	turquoise	left	right	0.7	0.30000000000000004	2	4	1.4	1.2000000000000002	1	0	0.7	0.30000000000000004	2	4	1.4	1.2000000000000002	valid	0.5998520520006423	51200	0	0	1	51200	1	51200	1	53248	0	0.7	51200	purple	turquoise	0	2	ml	2.7.3	bip	sub-07_ses-02_task-ml_proj-bip_2020-12-04-10-27-36.600613
149	7	2	3	150	stable	1	200	150	sv	purple	turquoise	purple	turquoise	left	right	0.7	0.30000000000000004	10	2	7.0	0.6000000000000001	1	0	0.7	0.30000000000000004	10	2	7.0	0.6000000000000001	valid	0.4665542639995692	51200	0	0	1	51200	1	51200	1	51200	1	0.7	51200	purple	turquoise	1	10	ml	2.7.3	bip	sub-07_ses-02_task-ml_proj-bip_2020-12-04-10-27-36.600613
150	7	2	4	151	stable	1	200	151	sv	purple	turquoise	purple	turquoise	left	right	0.7	0.30000000000000004	6	4	4.199999999999998	1.2000000000000002	0	1	0.7	0.30000000000000004	6	4	4.199999999999998	1.2000000000000002	invalid	0.5165374349999183	51200	0	0	1	51200	1	51200	1	51200	1	0.7	51200	purple	turquoise	1	0	ml	2.7.3	bip	sub-07_ses-02_task-ml_proj-bip_2020-12-04-10-27-36.600613
151	7	2	4	152	stable	1	200	152	sv	purple	turquoise	purple	turquoise	left	right	0.7	0.30000000000000004	6	4	4.199999999999998	1.2000000000000002	0	1	0.7	0.30000000000000004	6	4	4.199999999999998	1.2000000000000002	invalid	0.466554618000373	51200	0	0	1	51200	1	51200	1	51200	1	0.7	51200	purple	turquoise	1	0	ml	2.7.3	bip	sub-07_ses-02_task-ml_proj-bip_2020-12-04-10-27-36.600613
152	7	2	4	153	stable	1	200	153	sv	turquoise	purple	purple	turquoise	right	left	0.7	0.30000000000000004	6	6	4.199999999999998	1.8000000000000005	1	0	0.30000000000000004	0.7	6	6	1.8000000000000005	4.199999999999998	valid	0.933130503999564	53248	0	1	1	53248	1	53248	1	53248	1	0.7	53248	purple	turquoise	0	6	ml	2.7.3	bip	sub-07_ses-02_task-ml_proj-bip_2020-12-04-10-27-36.600613
153	7	2	4	154	stable	1	200	154	sv	purple	turquoise	purple	turquoise	left	right	0.7	0.30000000000000004	2	4	1.4	1.2000000000000002	0	1	0.7	0.30000000000000004	2	4	1.4	1.2000000000000002	invalid	0.6665037860002485	51200	0	0	1	51200	1	51200	1	53248	0	0.7	51200	purple	turquoise	0	0	ml	2.7.3	bip	sub-07_ses-02_task-ml_proj-bip_2020-12-04-10-27-36.600613
154	7	2	4	155	stable	1	200	155	sv	turquoise	purple	purple	turquoise	right	left	0.7	0.30000000000000004	2	6	1.4	1.8000000000000005	0	1	0.30000000000000004	0.7	6	2	1.8000000000000005	1.4	invalid	0.7331548910005949	51200	0	0	2	51200	1	53248	0	51200	1	0.7	53248	purple	turquoise	0	6	ml	2.7.3	bip	sub-07_ses-02_task-ml_proj-bip_2020-12-04-10-27-36.600613
155	7	2	4	156	stable	1	200	156	sv	purple	turquoise	purple	turquoise	left	right	0.7	0.30000000000000004	2	6	1.4	1.8000000000000005	1	0	0.7	0.30000000000000004	2	6	1.4	1.8000000000000005	valid	0.6831721240014303	53248	0	1	2	53248	1	51200	0	53248	1	0.7	51200	purple	turquoise	0	0	ml	2.7.3	bip	sub-07_ses-02_task-ml_proj-bip_2020-12-04-10-27-36.600613
156	7	2	4	157	stable	1	200	157	sv	purple	turquoise	purple	turquoise	left	right	0.7	0.30000000000000004	2	2	1.4	0.6000000000000001	1	0	0.7	0.30000000000000004	2	2	1.4	0.6000000000000001	valid	0.5832005829997797	53248	0	1	2	51200	0	51200	0	53248	1	0.7	51200	purple	turquoise	1	0	ml	2.7.3	bip	sub-07_ses-02_task-ml_proj-bip_2020-12-04-10-27-36.600613
157	7	2	4	158	stable	1	200	158	sv	turquoise	purple	purple	turquoise	right	left	0.7	0.30000000000000004	10	2	7.0	0.6000000000000001	0	1	0.30000000000000004	0.7	2	10	0.6000000000000001	7.0	invalid	0.6165389269990555	53248	0	1	1	53248	1	53248	1	53248	1	0.7	53248	purple	turquoise	1	0	ml	2.7.3	bip	sub-07_ses-02_task-ml_proj-bip_2020-12-04-10-27-36.600613
158	7	2	4	159	stable	1	200	159	sv	purple	turquoise	purple	turquoise	left	right	0.7	0.30000000000000004	2	10	1.4	3.0000000000000004	0	1	0.7	0.30000000000000004	2	10	1.4	3.0000000000000004	invalid	1.1996782639998855	51200	0	0	1	53248	0	51200	1	53248	0	0.7	51200	purple	turquoise	0	0	ml	2.7.3	bip	sub-07_ses-02_task-ml_proj-bip_2020-12-04-10-27-36.600613
159	7	2	4	160	stable	1	200	160	sv	turquoise	purple	purple	turquoise	right	left	0.7	0.30000000000000004	4	6	2.8	1.8000000000000005	1	0	0.30000000000000004	0.7	6	4	1.8000000000000005	2.8	valid	0.4832258690003073	51200	0	0	2	53248	0	53248	0	51200	1	0.7	53248	purple	turquoise	0	0	ml	2.7.3	bip	sub-07_ses-02_task-ml_proj-bip_2020-12-04-10-27-36.600613
160	7	2	4	161	stable	1	200	161	sv	turquoise	purple	purple	turquoise	right	left	0.7	0.30000000000000004	6	6	4.199999999999998	1.8000000000000005	0	1	0.30000000000000004	0.7	6	6	1.8000000000000005	4.199999999999998	invalid	0.5332079159998102	51200	0	0	2	53248	0	53248	0	53248	0	0.7	53248	purple	turquoise	0	6	ml	2.7.3	bip	sub-07_ses-02_task-ml_proj-bip_2020-12-04-10-27-36.600613
161	7	2	4	162	stable	1	200	162	sv	purple	turquoise	purple	turquoise	left	right	0.7	0.30000000000000004	4	2	2.8	0.6000000000000001	1	0	0.7	0.30000000000000004	4	2	2.8	0.6000000000000001	valid	0.5998603050011297	53248	0	1	2	51200	0	51200	0	51200	0	0.7	51200	purple	turquoise	1	0	ml	2.7.3	bip	sub-07_ses-02_task-ml_proj-bip_2020-12-04-10-27-36.600613
162	7	2	4	163	stable	1	200	163	sv	purple	turquoise	purple	turquoise	left	right	0.7	0.30000000000000004	2	10	1.4	3.0000000000000004	1	0	0.7	0.30000000000000004	2	10	1.4	3.0000000000000004	valid	0.4332473790000222	53248	0	1	2	53248	1	51200	0	53248	1	0.7	51200	purple	turquoise	0	0	ml	2.7.3	bip	sub-07_ses-02_task-ml_proj-bip_2020-12-04-10-27-36.600613
163	7	2	4	164	stable	1	200	164	sv	turquoise	purple	purple	turquoise	right	left	0.7	0.30000000000000004	6	4	4.199999999999998	1.2000000000000002	0	1	0.30000000000000004	0.7	4	6	1.2000000000000002	4.199999999999998	invalid	0.6165150590004487	51200	0	0	2	53248	0	53248	0	53248	0	0.7	53248	purple	turquoise	1	4	ml	2.7.3	bip	sub-07_ses-02_task-ml_proj-bip_2020-12-04-10-27-36.600613
164	7	2	4	165	stable	1	200	165	sv	purple	turquoise	purple	turquoise	left	right	0.7	0.30000000000000004	2	10	1.4	3.0000000000000004	0	1	0.7	0.30000000000000004	2	10	1.4	3.0000000000000004	invalid	0.41658562699922186	53248	0	1	2	53248	1	51200	0	53248	1	0.7	51200	purple	turquoise	0	10	ml	2.7.3	bip	sub-07_ses-02_task-ml_proj-bip_2020-12-04-10-27-36.600613
165	7	2	4	166	stable	1	200	166	sv	turquoise	purple	purple	turquoise	right	left	0.7	0.30000000000000004	6	6	4.199999999999998	1.8000000000000005	1	0	0.30000000000000004	0.7	6	6	1.8000000000000005	4.199999999999998	valid	0.4498956209990865	51200	0	0	2	53248	0	53248	0	53248	0	0.7	53248	purple	turquoise	0	0	ml	2.7.3	bip	sub-07_ses-02_task-ml_proj-bip_2020-12-04-10-27-36.600613
166	7	2	4	167	stable	1	200	167	sv	turquoise	purple	purple	turquoise	right	left	0.7	0.30000000000000004	6	4	4.199999999999998	1.2000000000000002	0	1	0.30000000000000004	0.7	4	6	1.2000000000000002	4.199999999999998	invalid	0.4832200399996509	51200	0	0	2	53248	0	53248	0	53248	0	0.7	53248	purple	turquoise	1	4	ml	2.7.3	bip	sub-07_ses-02_task-ml_proj-bip_2020-12-04-10-27-36.600613
167	7	2	4	168	stable	1	200	168	sv	purple	turquoise	purple	turquoise	left	right	0.7	0.30000000000000004	6	2	4.199999999999998	0.6000000000000001	1	0	0.7	0.30000000000000004	6	2	4.199999999999998	0.6000000000000001	valid	0.4665655469998456	53248	0	1	2	51200	0	51200	0	51200	0	0.7	51200	purple	turquoise	1	0	ml	2.7.3	bip	sub-07_ses-02_task-ml_proj-bip_2020-12-04-10-27-36.600613
168	7	2	4	169	stable	1	200	169	sv	turquoise	purple	purple	turquoise	right	left	0.7	0.30000000000000004	6	4	4.199999999999998	1.2000000000000002	0	1	0.30000000000000004	0.7	4	6	1.2000000000000002	4.199999999999998	invalid	0.39991130599992175	51200	0	0	2	53248	0	53248	0	53248	0	0.7	53248	purple	turquoise	1	4	ml	2.7.3	bip	sub-07_ses-02_task-ml_proj-bip_2020-12-04-10-27-36.600613
169	7	2	4	170	stable	1	200	170	sv	turquoise	purple	purple	turquoise	right	left	0.7	0.30000000000000004	2	6	1.4	1.8000000000000005	1	0	0.30000000000000004	0.7	6	2	1.8000000000000005	1.4	valid	0.6165143030011677	51200	0	0	2	51200	1	53248	0	51200	1	0.7	53248	purple	turquoise	0	0	ml	2.7.3	bip	sub-07_ses-02_task-ml_proj-bip_2020-12-04-10-27-36.600613
170	7	2	4	171	stable	1	200	171	sv	turquoise	purple	purple	turquoise	right	left	0.7	0.30000000000000004	2	10	1.4	3.0000000000000004	1	0	0.30000000000000004	0.7	10	2	3.0000000000000004	1.4	valid	0.6498392749999766	51200	0	0	2	51200	1	53248	0	51200	1	0.7	53248	purple	turquoise	0	0	ml	2.7.3	bip	sub-07_ses-02_task-ml_proj-bip_2020-12-04-10-27-36.600613
171	7	2	4	172	stable	1	200	172	sv	turquoise	purple	purple	turquoise	right	left	0.7	0.30000000000000004	6	6	4.199999999999998	1.8000000000000005	1	0	0.30000000000000004	0.7	6	6	1.8000000000000005	4.199999999999998	valid	0.8831153640003322	53248	0	1	1	53248	1	53248	1	53248	1	0.7	53248	purple	turquoise	0	6	ml	2.7.3	bip	sub-07_ses-02_task-ml_proj-bip_2020-12-04-10-27-36.600613
172	7	2	4	173	stable	1	200	173	sv	turquoise	purple	purple	turquoise	right	left	0.7	0.30000000000000004	10	2	7.0	0.6000000000000001	0	1	0.30000000000000004	0.7	2	10	0.6000000000000001	7.0	invalid	1.2163514419989951	53248	0	1	1	53248	1	53248	1	53248	1	0.7	53248	purple	turquoise	1	0	ml	2.7.3	bip	sub-07_ses-02_task-ml_proj-bip_2020-12-04-10-27-36.600613
173	7	2	4	174	stable	1	200	174	sv	turquoise	purple	purple	turquoise	right	left	0.7	0.30000000000000004	6	6	4.199999999999998	1.8000000000000005	1	0	0.30000000000000004	0.7	6	6	1.8000000000000005	4.199999999999998	valid	0.4499061620008433	53248	0	1	1	53248	1	53248	1	53248	1	0.7	53248	purple	turquoise	0	6	ml	2.7.3	bip	sub-07_ses-02_task-ml_proj-bip_2020-12-04-10-27-36.600613
174	7	2	4	175	stable	1	200	175	sv	purple	turquoise	purple	turquoise	left	right	0.7	0.30000000000000004	2	2	1.4	0.6000000000000001	1	0	0.7	0.30000000000000004	2	2	1.4	0.6000000000000001	valid	0.5665279099994223	51200	0	0	1	51200	1	51200	1	53248	0	0.7	51200	purple	turquoise	1	2	ml	2.7.3	bip	sub-07_ses-02_task-ml_proj-bip_2020-12-04-10-27-36.600613
175	7	2	4	176	stable	1	200	176	sv	purple	turquoise	purple	turquoise	left	right	0.7	0.30000000000000004	4	6	2.8	1.8000000000000005	1	0	0.7	0.30000000000000004	4	6	2.8	1.8000000000000005	valid	0.4832188969994604	51200	0	0	1	51200	1	51200	1	53248	0	0.7	51200	purple	turquoise	0	4	ml	2.7.3	bip	sub-07_ses-02_task-ml_proj-bip_2020-12-04-10-27-36.600613
176	7	2	4	177	stable	1	200	177	sv	purple	turquoise	purple	turquoise	left	right	0.7	0.30000000000000004	6	4	4.199999999999998	1.2000000000000002	1	0	0.7	0.30000000000000004	6	4	4.199999999999998	1.2000000000000002	valid	0.4332355559999996	51200	0	0	1	51200	1	51200	1	51200	1	0.7	51200	purple	turquoise	1	6	ml	2.7.3	bip	sub-07_ses-02_task-ml_proj-bip_2020-12-04-10-27-36.600613
177	7	2	4	178	stable	1	200	178	sv	turquoise	purple	purple	turquoise	right	left	0.7	0.30000000000000004	6	2	4.199999999999998	0.6000000000000001	1	0	0.30000000000000004	0.7	2	6	0.6000000000000001	4.199999999999998	valid	0.5832078489984269	53248	0	1	1	53248	1	53248	1	53248	1	0.7	53248	purple	turquoise	1	6	ml	2.7.3	bip	sub-07_ses-02_task-ml_proj-bip_2020-12-04-10-27-36.600613
178	7	2	4	179	stable	1	200	179	sv	turquoise	purple	purple	turquoise	right	left	0.7	0.30000000000000004	2	10	1.4	3.0000000000000004	1	0	0.30000000000000004	0.7	10	2	3.0000000000000004	1.4	valid	0.6664980739988096	51200	0	0	2	51200	1	53248	0	51200	1	0.7	53248	purple	turquoise	0	0	ml	2.7.3	bip	sub-07_ses-02_task-ml_proj-bip_2020-12-04-10-27-36.600613
179	7	2	4	180	stable	1	200	180	sv	turquoise	purple	purple	turquoise	right	left	0.7	0.30000000000000004	2	10	1.4	3.0000000000000004	1	0	0.30000000000000004	0.7	10	2	3.0000000000000004	1.4	valid	0.6831618840005831	51200	0	0	2	51200	1	53248	0	51200	1	0.7	53248	purple	turquoise	0	0	ml	2.7.3	bip	sub-07_ses-02_task-ml_proj-bip_2020-12-04-10-27-36.600613
180	7	2	4	181	stable	1	200	181	sv	purple	turquoise	purple	turquoise	left	right	0.7	0.30000000000000004	6	4	4.199999999999998	1.2000000000000002	0	1	0.7	0.30000000000000004	6	4	4.199999999999998	1.2000000000000002	invalid	0.5665320869993593	51200	0	0	1	51200	1	51200	1	51200	1	0.7	51200	purple	turquoise	1	0	ml	2.7.3	bip	sub-07_ses-02_task-ml_proj-bip_2020-12-04-10-27-36.600613
181	7	2	4	182	stable	1	200	182	sv	turquoise	purple	purple	turquoise	right	left	0.7	0.30000000000000004	2	2	1.4	0.6000000000000001	1	0	0.30000000000000004	0.7	2	2	0.6000000000000001	1.4	valid	0.5998606199991627	53248	0	1	1	53248	1	53248	1	53248	1	0.7	53248	purple	turquoise	0	2	ml	2.7.3	bip	sub-07_ses-02_task-ml_proj-bip_2020-12-04-10-27-36.600613
182	7	2	4	183	stable	1	200	183	sv	purple	turquoise	purple	turquoise	left	right	0.7	0.30000000000000004	2	2	1.4	0.6000000000000001	1	0	0.7	0.30000000000000004	2	2	1.4	0.6000000000000001	valid	0.5831901950004976	51200	0	0	1	51200	1	51200	1	53248	0	0.7	51200	purple	turquoise	1	2	ml	2.7.3	bip	sub-07_ses-02_task-ml_proj-bip_2020-12-04-10-27-36.600613
183	7	2	4	184	stable	1	200	184	sv	purple	turquoise	purple	turquoise	left	right	0.7	0.30000000000000004	10	2	7.0	0.6000000000000001	1	0	0.7	0.30000000000000004	10	2	7.0	0.6000000000000001	valid	0.5831969859991659	51200	0	0	1	51200	1	51200	1	51200	1	0.7	51200	purple	turquoise	1	10	ml	2.7.3	bip	sub-07_ses-02_task-ml_proj-bip_2020-12-04-10-27-36.600613
184	7	2	4	185	stable	1	200	185	sv	purple	turquoise	purple	turquoise	left	right	0.7	0.30000000000000004	10	2	7.0	0.6000000000000001	1	0	0.7	0.30000000000000004	10	2	7.0	0.6000000000000001	valid	0.4498969649994251	51200	0	0	1	51200	1	51200	1	51200	1	0.7	51200	purple	turquoise	1	10	ml	2.7.3	bip	sub-07_ses-02_task-ml_proj-bip_2020-12-04-10-27-36.600613
185	7	2	4	186	stable	1	200	186	sv	turquoise	purple	purple	turquoise	right	left	0.7	0.30000000000000004	2	10	1.4	3.0000000000000004	1	0	0.30000000000000004	0.7	10	2	3.0000000000000004	1.4	valid	0.8497823010002321	51200	0	0	2	51200	1	53248	0	51200	1	0.7	53248	purple	turquoise	0	0	ml	2.7.3	bip	sub-07_ses-02_task-ml_proj-bip_2020-12-04-10-27-36.600613
186	7	2	4	187	stable	1	200	187	sv	purple	turquoise	purple	turquoise	left	right	0.7	0.30000000000000004	2	6	1.4	1.8000000000000005	1	0	0.7	0.30000000000000004	2	6	1.4	1.8000000000000005	valid	0.9497502849990268	51200	0	0	1	53248	0	51200	1	53248	0	0.7	51200	purple	turquoise	0	2	ml	2.7.3	bip	sub-07_ses-02_task-ml_proj-bip_2020-12-04-10-27-36.600613
187	7	2	4	188	stable	1	200	188	sv	turquoise	purple	purple	turquoise	right	left	0.7	0.30000000000000004	4	6	2.8	1.8000000000000005	1	0	0.30000000000000004	0.7	6	4	1.8000000000000005	2.8	valid	0.9331305329997122	53248	0	1	1	53248	1	53248	1	51200	0	0.7	53248	purple	turquoise	0	4	ml	2.7.3	bip	sub-07_ses-02_task-ml_proj-bip_2020-12-04-10-27-36.600613
188	7	2	4	189	stable	1	200	189	sv	turquoise	purple	purple	turquoise	right	left	0.7	0.30000000000000004	2	10	1.4	3.0000000000000004	1	0	0.30000000000000004	0.7	10	2	3.0000000000000004	1.4	valid	0.5998527470001136	51200	0	0	2	51200	1	53248	0	51200	1	0.7	53248	purple	turquoise	0	0	ml	2.7.3	bip	sub-07_ses-02_task-ml_proj-bip_2020-12-04-10-27-36.600613
189	7	2	4	190	stable	1	200	190	sv	purple	turquoise	purple	turquoise	left	right	0.7	0.30000000000000004	4	2	2.8	0.6000000000000001	0	1	0.7	0.30000000000000004	4	2	2.8	0.6000000000000001	invalid	0.4998821979988861	51200	0	0	1	51200	1	51200	1	51200	1	0.7	51200	purple	turquoise	1	0	ml	2.7.3	bip	sub-07_ses-02_task-ml_proj-bip_2020-12-04-10-27-36.600613
190	7	2	4	191	stable	1	200	191	sv	purple	turquoise	purple	turquoise	left	right	0.7	0.30000000000000004	6	6	4.199999999999998	1.8000000000000005	1	0	0.7	0.30000000000000004	6	6	4.199999999999998	1.8000000000000005	valid	0.4498964729991712	51200	0	0	1	51200	1	51200	1	53248	0	0.7	51200	purple	turquoise	1	6	ml	2.7.3	bip	sub-07_ses-02_task-ml_proj-bip_2020-12-04-10-27-36.600613
191	7	2	4	192	stable	1	200	192	sv	purple	turquoise	purple	turquoise	left	right	0.7	0.30000000000000004	6	2	4.199999999999998	0.6000000000000001	1	0	0.7	0.30000000000000004	6	2	4.199999999999998	0.6000000000000001	valid	0.4165724989998125	51200	0	0	1	51200	1	51200	1	51200	1	0.7	51200	purple	turquoise	1	6	ml	2.7.3	bip	sub-07_ses-02_task-ml_proj-bip_2020-12-04-10-27-36.600613
192	7	2	4	193	stable	1	200	193	sv	purple	turquoise	purple	turquoise	left	right	0.7	0.30000000000000004	6	2	4.199999999999998	0.6000000000000001	1	0	0.7	0.30000000000000004	6	2	4.199999999999998	0.6000000000000001	valid	0.5831882189995667	51200	0	0	1	51200	1	51200	1	51200	1	0.7	51200	purple	turquoise	1	6	ml	2.7.3	bip	sub-07_ses-02_task-ml_proj-bip_2020-12-04-10-27-36.600613
193	7	2	4	194	stable	1	200	194	sv	turquoise	purple	purple	turquoise	right	left	0.7	0.30000000000000004	4	6	2.8	1.8000000000000005	1	0	0.30000000000000004	0.7	6	4	1.8000000000000005	2.8	valid	0.666506687999572	53248	0	1	1	53248	1	53248	1	51200	0	0.7	53248	purple	turquoise	0	4	ml	2.7.3	bip	sub-07_ses-02_task-ml_proj-bip_2020-12-04-10-27-36.600613
194	7	2	4	195	stable	1	200	195	sv	turquoise	purple	purple	turquoise	right	left	0.7	0.30000000000000004	6	4	4.199999999999998	1.2000000000000002	1	0	0.30000000000000004	0.7	4	6	1.2000000000000002	4.199999999999998	valid	0.499892808000368	53248	0	1	1	53248	1	53248	1	53248	1	0.7	53248	purple	turquoise	1	6	ml	2.7.3	bip	sub-07_ses-02_task-ml_proj-bip_2020-12-04-10-27-36.600613
195	7	2	4	196	stable	1	200	196	sv	turquoise	purple	purple	turquoise	right	left	0.7	0.30000000000000004	6	6	4.199999999999998	1.8000000000000005	1	0	0.30000000000000004	0.7	6	6	1.8000000000000005	4.199999999999998	valid	0.4665664499989362	53248	0	1	1	53248	1	53248	1	53248	1	0.7	53248	purple	turquoise	0	6	ml	2.7.3	bip	sub-07_ses-02_task-ml_proj-bip_2020-12-04-10-27-36.600613
196	7	2	4	197	stable	1	200	197	sv	turquoise	purple	purple	turquoise	right	left	0.7	0.30000000000000004	4	2	2.8	0.6000000000000001	1	0	0.30000000000000004	0.7	2	4	0.6000000000000001	2.8	valid	0.6498457959987718	53248	0	1	1	53248	1	53248	1	53248	1	0.7	53248	purple	turquoise	1	4	ml	2.7.3	bip	sub-07_ses-02_task-ml_proj-bip_2020-12-04-10-27-36.600613
197	7	2	4	198	stable	1	200	198	sv	turquoise	purple	purple	turquoise	right	left	0.7	0.30000000000000004	2	6	1.4	1.8000000000000005	0	1	0.30000000000000004	0.7	6	2	1.8000000000000005	1.4	invalid	0.7331624369999191	53248	0	1	1	51200	0	53248	1	51200	0	0.7	53248	purple	turquoise	0	0	ml	2.7.3	bip	sub-07_ses-02_task-ml_proj-bip_2020-12-04-10-27-36.600613
198	7	2	4	199	stable	1	200	199	sv	turquoise	purple	purple	turquoise	right	left	0.7	0.30000000000000004	10	2	7.0	0.6000000000000001	1	0	0.30000000000000004	0.7	2	10	0.6000000000000001	7.0	valid	0.4998910730009811	53248	0	1	1	53248	1	53248	1	53248	1	0.7	53248	purple	turquoise	1	10	ml	2.7.3	bip	sub-07_ses-02_task-ml_proj-bip_2020-12-04-10-27-36.600613
199	7	2	4	200	stable	1	200	200	sv	turquoise	purple	purple	turquoise	right	left	0.7	0.30000000000000004	6	4	4.199999999999998	1.2000000000000002	1	0	0.30000000000000004	0.7	4	6	1.2000000000000002	4.199999999999998	valid	0.6831701629998861	53248	0	1	1	53248	1	53248	1	53248	1	0.7	53248	purple	turquoise	1	6	ml	2.7.3	bip	sub-07_ses-02_task-ml_proj-bip_2020-12-04-10-27-36.600613
200	7	2	5	201	volatile	2	20	1	sv	turquoise	purple	purple	turquoise	right	left	0.30000000000000004	0.7	2	6	0.6000000000000001	4.199999999999998	0	1	0.7	0.30000000000000004	6	2	4.199999999999998	0.6000000000000001	valid	0.5831903240014071	51200	0	0	2	51200	1	51200	1	51200	1	0.7	51200	turquoise	purple	1	6	ml	2.7.3	bip	sub-07_ses-02_task-ml_proj-bip_2020-12-04-10-27-36.600613
201	7	2	5	202	volatile	2	20	2	sv	purple	turquoise	purple	turquoise	left	right	0.30000000000000004	0.7	2	6	0.6000000000000001	4.199999999999998	0	1	0.30000000000000004	0.7	2	6	0.6000000000000001	4.199999999999998	valid	0.3832592529997783	53248	0	1	2	53248	1	53248	1	53248	1	0.7	53248	turquoise	purple	1	6	ml	2.7.3	bip	sub-07_ses-02_task-ml_proj-bip_2020-12-04-10-27-36.600613
202	7	2	5	203	volatile	2	20	3	sv	purple	turquoise	purple	turquoise	left	right	0.30000000000000004	0.7	2	2	0.6000000000000001	1.4	1	0	0.30000000000000004	0.7	2	2	0.6000000000000001	1.4	invalid	0.4665685789987037	53248	0	1	2	53248	1	53248	1	53248	1	0.7	53248	turquoise	purple	0	0	ml	2.7.3	bip	sub-07_ses-02_task-ml_proj-bip_2020-12-04-10-27-36.600613
203	7	2	5	204	volatile	2	20	4	sv	turquoise	purple	purple	turquoise	right	left	0.30000000000000004	0.7	6	4	1.8000000000000005	2.8	0	1	0.7	0.30000000000000004	4	6	2.8	1.8000000000000005	valid	0.5665303699988726	51200	0	0	2	51200	1	51200	1	53248	0	0.7	51200	turquoise	purple	0	4	ml	2.7.3	bip	sub-07_ses-02_task-ml_proj-bip_2020-12-04-10-27-36.600613
204	7	2	5	205	volatile	2	20	5	sv	turquoise	purple	purple	turquoise	right	left	0.30000000000000004	0.7	6	4	1.8000000000000005	2.8	0	1	0.7	0.30000000000000004	4	6	2.8	1.8000000000000005	valid	0.6664951780003321	51200	0	0	2	51200	1	51200	1	53248	0	0.7	51200	turquoise	purple	0	4	ml	2.7.3	bip	sub-07_ses-02_task-ml_proj-bip_2020-12-04-10-27-36.600613
205	7	2	5	206	volatile	2	20	6	sv	turquoise	purple	purple	turquoise	right	left	0.30000000000000004	0.7	2	2	0.6000000000000001	1.4	1	0	0.7	0.30000000000000004	2	2	1.4	0.6000000000000001	invalid	0.4498970079985156	51200	0	0	2	51200	1	51200	1	53248	0	0.7	51200	turquoise	purple	1	0	ml	2.7.3	bip	sub-07_ses-02_task-ml_proj-bip_2020-12-04-10-27-36.600613
206	7	2	5	207	volatile	2	20	7	sv	purple	turquoise	purple	turquoise	left	right	0.30000000000000004	0.7	2	6	0.6000000000000001	4.199999999999998	0	1	0.30000000000000004	0.7	2	6	0.6000000000000001	4.199999999999998	valid	0.4165813949985022	53248	0	1	2	53248	1	53248	1	53248	1	0.7	53248	turquoise	purple	1	6	ml	2.7.3	bip	sub-07_ses-02_task-ml_proj-bip_2020-12-04-10-27-36.600613
207	7	2	5	208	volatile	2	20	8	sv	turquoise	purple	purple	turquoise	right	left	0.30000000000000004	0.7	4	2	1.2000000000000002	1.4	0	1	0.7	0.30000000000000004	2	4	1.4	1.2000000000000002	valid	0.4665560619996541	51200	0	0	2	51200	1	51200	1	53248	0	0.7	51200	turquoise	purple	0	2	ml	2.7.3	bip	sub-07_ses-02_task-ml_proj-bip_2020-12-04-10-27-36.600613
208	7	2	5	209	volatile	2	20	9	sv	turquoise	purple	purple	turquoise	right	left	0.30000000000000004	0.7	6	6	1.8000000000000005	4.199999999999998	0	1	0.7	0.30000000000000004	6	6	4.199999999999998	1.8000000000000005	valid	0.6665003480011364	51200	0	0	2	51200	1	51200	1	53248	0	0.7	51200	turquoise	purple	1	6	ml	2.7.3	bip	sub-07_ses-02_task-ml_proj-bip_2020-12-04-10-27-36.600613
209	7	2	5	210	volatile	2	20	10	sv	purple	turquoise	purple	turquoise	left	right	0.30000000000000004	0.7	4	2	1.2000000000000002	1.4	0	1	0.30000000000000004	0.7	4	2	1.2000000000000002	1.4	valid	0.6165257590000692	53248	0	1	2	53248	1	53248	1	51200	0	0.7	53248	turquoise	purple	0	2	ml	2.7.3	bip	sub-07_ses-02_task-ml_proj-bip_2020-12-04-10-27-36.600613
210	7	2	5	211	volatile	2	20	11	sv	turquoise	purple	purple	turquoise	right	left	0.30000000000000004	0.7	6	6	1.8000000000000005	4.199999999999998	0	1	0.7	0.30000000000000004	6	6	4.199999999999998	1.8000000000000005	valid	0.5332176749998325	51200	0	0	2	51200	1	51200	1	53248	0	0.7	51200	turquoise	purple	1	6	ml	2.7.3	bip	sub-07_ses-02_task-ml_proj-bip_2020-12-04-10-27-36.600613
211	7	2	5	212	volatile	2	20	12	sv	purple	turquoise	purple	turquoise	left	right	0.30000000000000004	0.7	10	2	3.0000000000000004	1.4	0	1	0.30000000000000004	0.7	10	2	3.0000000000000004	1.4	valid	0.7498108409999986	51200	0	0	1	51200	1	53248	0	51200	1	0.7	53248	turquoise	purple	0	0	ml	2.7.3	bip	sub-07_ses-02_task-ml_proj-bip_2020-12-04-10-27-36.600613
212	7	2	5	213	volatile	2	20	13	sv	purple	turquoise	purple	turquoise	left	right	0.30000000000000004	0.7	2	4	0.6000000000000001	2.8	0	1	0.30000000000000004	0.7	2	4	0.6000000000000001	2.8	valid	0.4832305810014077	53248	0	1	2	53248	1	53248	1	53248	1	0.7	53248	turquoise	purple	1	4	ml	2.7.3	bip	sub-07_ses-02_task-ml_proj-bip_2020-12-04-10-27-36.600613
213	7	2	5	214	volatile	2	20	14	sv	turquoise	purple	purple	turquoise	right	left	0.30000000000000004	0.7	2	6	0.6000000000000001	4.199999999999998	1	0	0.7	0.30000000000000004	6	2	4.199999999999998	0.6000000000000001	invalid	0.7498103359994275	51200	0	0	2	51200	1	51200	1	51200	1	0.7	51200	turquoise	purple	1	0	ml	2.7.3	bip	sub-07_ses-02_task-ml_proj-bip_2020-12-04-10-27-36.600613
214	7	2	5	215	volatile	2	20	15	sv	turquoise	purple	purple	turquoise	right	left	0.30000000000000004	0.7	10	2	3.0000000000000004	1.4	1	0	0.7	0.30000000000000004	2	10	1.4	3.0000000000000004	invalid	0.6998322130002634	53248	0	1	1	53248	1	51200	0	53248	1	0.7	51200	turquoise	purple	0	10	ml	2.7.3	bip	sub-07_ses-02_task-ml_proj-bip_2020-12-04-10-27-36.600613
215	7	2	5	216	volatile	2	20	16	sv	turquoise	purple	purple	turquoise	right	left	0.30000000000000004	0.7	2	10	0.6000000000000001	7.0	0	1	0.7	0.30000000000000004	10	2	7.0	0.6000000000000001	valid	0.6498375230003148	51200	0	0	2	51200	1	51200	1	51200	1	0.7	51200	turquoise	purple	1	10	ml	2.7.3	bip	sub-07_ses-02_task-ml_proj-bip_2020-12-04-10-27-36.600613
216	7	2	5	217	volatile	2	20	17	sv	purple	turquoise	purple	turquoise	left	right	0.30000000000000004	0.7	4	2	1.2000000000000002	1.4	0	1	0.30000000000000004	0.7	4	2	1.2000000000000002	1.4	valid	0.5831984900014504	53248	0	1	2	53248	1	53248	1	51200	0	0.7	53248	turquoise	purple	0	2	ml	2.7.3	bip	sub-07_ses-02_task-ml_proj-bip_2020-12-04-10-27-36.600613
217	7	2	5	218	volatile	2	20	18	sv	purple	turquoise	purple	turquoise	left	right	0.30000000000000004	0.7	6	4	1.8000000000000005	2.8	1	0	0.30000000000000004	0.7	6	4	1.8000000000000005	2.8	invalid	0.8164646709992667	53248	0	1	2	53248	1	53248	1	51200	0	0.7	53248	turquoise	purple	0	0	ml	2.7.3	bip	sub-07_ses-02_task-ml_proj-bip_2020-12-04-10-27-36.600613
218	7	2	5	219	volatile	2	20	19	sv	purple	turquoise	purple	turquoise	left	right	0.30000000000000004	0.7	2	10	0.6000000000000001	7.0	0	1	0.30000000000000004	0.7	2	10	0.6000000000000001	7.0	valid	0.5831974639986583	53248	0	1	2	53248	1	53248	1	53248	1	0.7	53248	turquoise	purple	1	10	ml	2.7.3	bip	sub-07_ses-02_task-ml_proj-bip_2020-12-04-10-27-36.600613
219	7	2	5	220	volatile	2	20	20	sv	purple	turquoise	purple	turquoise	left	right	0.30000000000000004	0.7	6	4	1.8000000000000005	2.8	1	0	0.30000000000000004	0.7	6	4	1.8000000000000005	2.8	invalid	0.4998917980010447	53248	0	1	2	53248	1	53248	1	51200	0	0.7	53248	turquoise	purple	0	0	ml	2.7.3	bip	sub-07_ses-02_task-ml_proj-bip_2020-12-04-10-27-36.600613
220	7	2	5	221	volatile	3	20	1	sv	purple	turquoise	purple	turquoise	left	right	0.7	0.30000000000000004	2	10	1.4	3.0000000000000004	1	0	0.7	0.30000000000000004	2	10	1.4	3.0000000000000004	valid	0.4332464859999163	53248	0	1	2	53248	1	51200	0	53248	1	0.7	51200	purple	turquoise	0	0	ml	2.7.3	bip	sub-07_ses-02_task-ml_proj-bip_2020-12-04-10-27-36.600613
221	7	2	5	222	volatile	3	20	2	sv	purple	turquoise	purple	turquoise	left	right	0.7	0.30000000000000004	6	2	4.199999999999998	0.6000000000000001	0	1	0.7	0.30000000000000004	6	2	4.199999999999998	0.6000000000000001	invalid	0.5498658220003563	51200	0	0	1	51200	1	51200	1	51200	1	0.7	51200	purple	turquoise	1	0	ml	2.7.3	bip	sub-07_ses-02_task-ml_proj-bip_2020-12-04-10-27-36.600613
222	7	2	5	223	volatile	3	20	3	sv	turquoise	purple	purple	turquoise	right	left	0.7	0.30000000000000004	2	10	1.4	3.0000000000000004	1	0	0.30000000000000004	0.7	10	2	3.0000000000000004	1.4	valid	0.8497806449995551	51200	0	0	2	51200	1	53248	0	51200	1	0.7	53248	purple	turquoise	0	0	ml	2.7.3	bip	sub-07_ses-02_task-ml_proj-bip_2020-12-04-10-27-36.600613
223	7	2	5	224	volatile	3	20	4	sv	purple	turquoise	purple	turquoise	left	right	0.7	0.30000000000000004	2	2	1.4	0.6000000000000001	0	1	0.7	0.30000000000000004	2	2	1.4	0.6000000000000001	invalid	0.4165728810003202	51200	0	0	1	51200	1	51200	1	53248	0	0.7	51200	purple	turquoise	1	0	ml	2.7.3	bip	sub-07_ses-02_task-ml_proj-bip_2020-12-04-10-27-36.600613
224	7	2	5	225	volatile	3	20	5	sv	turquoise	purple	purple	turquoise	right	left	0.7	0.30000000000000004	6	6	4.199999999999998	1.8000000000000005	1	0	0.30000000000000004	0.7	6	6	1.8000000000000005	4.199999999999998	valid	0.3999210900001344	53248	0	1	1	53248	1	53248	1	53248	1	0.7	53248	purple	turquoise	0	6	ml	2.7.3	bip	sub-07_ses-02_task-ml_proj-bip_2020-12-04-10-27-36.600613
225	7	2	5	226	volatile	3	20	6	sv	purple	turquoise	purple	turquoise	left	right	0.7	0.30000000000000004	4	6	2.8	1.8000000000000005	1	0	0.7	0.30000000000000004	4	6	2.8	1.8000000000000005	valid	1.0497275710004033	51200	0	0	1	51200	1	51200	1	53248	0	0.7	51200	purple	turquoise	0	4	ml	2.7.3	bip	sub-07_ses-02_task-ml_proj-bip_2020-12-04-10-27-36.600613
226	7	2	5	227	volatile	3	20	7	sv	turquoise	purple	purple	turquoise	right	left	0.7	0.30000000000000004	4	2	2.8	0.6000000000000001	1	0	0.30000000000000004	0.7	2	4	0.6000000000000001	2.8	valid	0.3999180430000706	53248	0	1	1	53248	1	53248	1	53248	1	0.7	53248	purple	turquoise	1	4	ml	2.7.3	bip	sub-07_ses-02_task-ml_proj-bip_2020-12-04-10-27-36.600613
227	7	2	5	228	volatile	3	20	8	sv	purple	turquoise	purple	turquoise	left	right	0.7	0.30000000000000004	6	6	4.199999999999998	1.8000000000000005	1	0	0.7	0.30000000000000004	6	6	4.199999999999998	1.8000000000000005	valid	0.4165713830007007	51200	0	0	1	51200	1	51200	1	53248	0	0.7	51200	purple	turquoise	1	6	ml	2.7.3	bip	sub-07_ses-02_task-ml_proj-bip_2020-12-04-10-27-36.600613
228	7	2	5	229	volatile	3	20	9	sv	turquoise	purple	purple	turquoise	right	left	0.7	0.30000000000000004	10	2	7.0	0.6000000000000001	1	0	0.30000000000000004	0.7	2	10	0.6000000000000001	7.0	valid	0.3999217000000499	53248	0	1	1	53248	1	53248	1	53248	1	0.7	53248	purple	turquoise	1	10	ml	2.7.3	bip	sub-07_ses-02_task-ml_proj-bip_2020-12-04-10-27-36.600613
229	7	2	5	230	volatile	3	20	10	sv	turquoise	purple	purple	turquoise	right	left	0.7	0.30000000000000004	2	6	1.4	1.8000000000000005	0	1	0.30000000000000004	0.7	6	2	1.8000000000000005	1.4	invalid	0.9830823609991056	53248	0	1	1	51200	0	53248	1	51200	0	0.7	53248	purple	turquoise	0	0	ml	2.7.3	bip	sub-07_ses-02_task-ml_proj-bip_2020-12-04-10-27-36.600613
230	7	2	5	231	volatile	3	20	11	sv	purple	turquoise	purple	turquoise	left	right	0.7	0.30000000000000004	2	2	1.4	0.6000000000000001	0	1	0.7	0.30000000000000004	2	2	1.4	0.6000000000000001	invalid	0.3999045569998998	51200	0	0	1	51200	1	51200	1	53248	0	0.7	51200	purple	turquoise	1	0	ml	2.7.3	bip	sub-07_ses-02_task-ml_proj-bip_2020-12-04-10-27-36.600613
231	7	2	5	232	volatile	3	20	12	sv	purple	turquoise	purple	turquoise	left	right	0.7	0.30000000000000004	4	6	2.8	1.8000000000000005	1	0	0.7	0.30000000000000004	4	6	2.8	1.8000000000000005	valid	0.44989253300082055	51200	0	0	1	51200	1	51200	1	53248	0	0.7	51200	purple	turquoise	0	4	ml	2.7.3	bip	sub-07_ses-02_task-ml_proj-bip_2020-12-04-10-27-36.600613
232	7	2	5	233	volatile	3	20	13	sv	purple	turquoise	purple	turquoise	left	right	0.7	0.30000000000000004	2	4	1.4	1.2000000000000002	1	0	0.7	0.30000000000000004	2	4	1.4	1.2000000000000002	valid	0.6165187250007875	51200	0	0	1	51200	1	51200	1	53248	0	0.7	51200	purple	turquoise	0	2	ml	2.7.3	bip	sub-07_ses-02_task-ml_proj-bip_2020-12-04-10-27-36.600613
233	7	2	5	234	volatile	3	20	14	sv	purple	turquoise	purple	turquoise	left	right	0.7	0.30000000000000004	6	4	4.199999999999998	1.2000000000000002	1	0	0.7	0.30000000000000004	6	4	4.199999999999998	1.2000000000000002	valid	0.4832269210000959	51200	0	0	1	51200	1	51200	1	51200	1	0.7	51200	purple	turquoise	1	6	ml	2.7.3	bip	sub-07_ses-02_task-ml_proj-bip_2020-12-04-10-27-36.600613
234	7	2	5	235	volatile	3	20	15	sv	turquoise	purple	purple	turquoise	right	left	0.7	0.30000000000000004	6	2	4.199999999999998	0.6000000000000001	1	0	0.30000000000000004	0.7	2	6	0.6000000000000001	4.199999999999998	valid	0.4832291849998001	53248	0	1	1	53248	1	53248	1	53248	1	0.7	53248	purple	turquoise	1	6	ml	2.7.3	bip	sub-07_ses-02_task-ml_proj-bip_2020-12-04-10-27-36.600613
235	7	2	5	236	volatile	3	20	16	sv	turquoise	purple	purple	turquoise	right	left	0.7	0.30000000000000004	6	2	4.199999999999998	0.6000000000000001	0	1	0.30000000000000004	0.7	2	6	0.6000000000000001	4.199999999999998	invalid	0.5332148899997264	53248	0	1	1	53248	1	53248	1	53248	1	0.7	53248	purple	turquoise	1	0	ml	2.7.3	bip	sub-07_ses-02_task-ml_proj-bip_2020-12-04-10-27-36.600613
236	7	2	5	237	volatile	3	20	17	sv	turquoise	purple	purple	turquoise	right	left	0.7	0.30000000000000004	2	4	1.4	1.2000000000000002	0	1	0.30000000000000004	0.7	4	2	1.2000000000000002	1.4	invalid	0.4499036779998278	53248	0	1	1	53248	1	53248	1	51200	0	0.7	53248	purple	turquoise	0	0	ml	2.7.3	bip	sub-07_ses-02_task-ml_proj-bip_2020-12-04-10-27-36.600613
237	7	2	5	238	volatile	3	20	18	sv	purple	turquoise	purple	turquoise	left	right	0.7	0.30000000000000004	6	4	4.199999999999998	1.2000000000000002	1	0	0.7	0.30000000000000004	6	4	4.199999999999998	1.2000000000000002	valid	0.5165413759987132	51200	0	0	1	51200	1	51200	1	51200	1	0.7	51200	purple	turquoise	1	6	ml	2.7.3	bip	sub-07_ses-02_task-ml_proj-bip_2020-12-04-10-27-36.600613
238	7	2	5	239	volatile	3	20	19	sv	turquoise	purple	purple	turquoise	right	left	0.7	0.30000000000000004	2	10	1.4	3.0000000000000004	1	0	0.30000000000000004	0.7	10	2	3.0000000000000004	1.4	valid	0.5831920540003921	51200	0	0	2	51200	1	53248	0	51200	1	0.7	53248	purple	turquoise	0	0	ml	2.7.3	bip	sub-07_ses-02_task-ml_proj-bip_2020-12-04-10-27-36.600613
239	7	2	5	240	volatile	3	20	20	sv	turquoise	purple	purple	turquoise	right	left	0.7	0.30000000000000004	2	4	1.4	1.2000000000000002	1	0	0.30000000000000004	0.7	4	2	1.2000000000000002	1.4	valid	0.3665918589995272	51200	0	0	2	53248	0	53248	0	51200	1	0.7	53248	purple	turquoise	0	0	ml	2.7.3	bip	sub-07_ses-02_task-ml_proj-bip_2020-12-04-10-27-36.600613
240	7	2	5	241	volatile	4	40	1	sv	purple	turquoise	purple	turquoise	left	right	0.30000000000000004	0.7	6	2	1.8000000000000005	1.4	0	1	0.30000000000000004	0.7	6	2	1.8000000000000005	1.4	valid	0.48321710699929105	51200	0	0	1	51200	1	53248	0	51200	1	0.7	53248	turquoise	purple	0	0	ml	2.7.3	bip	sub-07_ses-02_task-ml_proj-bip_2020-12-04-10-27-36.600613
241	7	2	5	242	volatile	4	40	2	sv	purple	turquoise	purple	turquoise	left	right	0.30000000000000004	0.7	2	2	0.6000000000000001	1.4	0	1	0.30000000000000004	0.7	2	2	0.6000000000000001	1.4	valid	0.5332036929994501	51200	0	0	1	53248	0	53248	0	53248	0	0.7	53248	turquoise	purple	0	0	ml	2.7.3	bip	sub-07_ses-02_task-ml_proj-bip_2020-12-04-10-27-36.600613
242	7	2	5	243	volatile	4	40	3	sv	purple	turquoise	purple	turquoise	left	right	0.30000000000000004	0.7	4	2	1.2000000000000002	1.4	0	1	0.30000000000000004	0.7	4	2	1.2000000000000002	1.4	valid	0.683160726001006	51200	0	0	1	53248	0	53248	0	51200	1	0.7	53248	turquoise	purple	0	0	ml	2.7.3	bip	sub-07_ses-02_task-ml_proj-bip_2020-12-04-10-27-36.600613
243	7	2	5	244	volatile	4	40	4	sv	purple	turquoise	purple	turquoise	left	right	0.30000000000000004	0.7	4	6	1.2000000000000002	4.199999999999998	1	0	0.30000000000000004	0.7	4	6	1.2000000000000002	4.199999999999998	invalid	0.4165771699990728	53248	0	1	2	53248	1	53248	1	53248	1	0.7	53248	turquoise	purple	1	0	ml	2.7.3	bip	sub-07_ses-02_task-ml_proj-bip_2020-12-04-10-27-36.600613
244	7	2	5	245	volatile	4	40	5	sv	turquoise	purple	purple	turquoise	right	left	0.30000000000000004	0.7	6	6	1.8000000000000005	4.199999999999998	1	0	0.7	0.30000000000000004	6	6	4.199999999999998	1.8000000000000005	invalid	0.4832196999996086	51200	0	0	2	51200	1	51200	1	53248	0	0.7	51200	turquoise	purple	1	0	ml	2.7.3	bip	sub-07_ses-02_task-ml_proj-bip_2020-12-04-10-27-36.600613
245	7	2	5	246	volatile	4	40	6	sv	purple	turquoise	purple	turquoise	left	right	0.30000000000000004	0.7	10	2	3.0000000000000004	1.4	1	0	0.30000000000000004	0.7	10	2	3.0000000000000004	1.4	invalid	1.1663626490008028	51200	0	0	1	51200	1	53248	0	51200	1	0.7	53248	turquoise	purple	0	10	ml	2.7.3	bip	sub-07_ses-02_task-ml_proj-bip_2020-12-04-10-27-36.600613
246	7	2	5	247	volatile	4	40	7	sv	turquoise	purple	purple	turquoise	right	left	0.30000000000000004	0.7	2	10	0.6000000000000001	7.0	0	1	0.7	0.30000000000000004	10	2	7.0	0.6000000000000001	valid	0.9664179989995318	51200	0	0	2	51200	1	51200	1	51200	1	0.7	51200	turquoise	purple	1	10	ml	2.7.3	bip	sub-07_ses-02_task-ml_proj-bip_2020-12-04-10-27-36.600613
247	7	2	5	248	volatile	4	40	8	sv	purple	turquoise	purple	turquoise	left	right	0.30000000000000004	0.7	6	4	1.8000000000000005	2.8	0	1	0.30000000000000004	0.7	6	4	1.8000000000000005	2.8	valid	1.3496292700001504	51200	0	0	1	53248	0	53248	0	51200	1	0.7	53248	turquoise	purple	0	0	ml	2.7.3	bip	sub-07_ses-02_task-ml_proj-bip_2020-12-04-10-27-36.600613
248	7	2	5	249	volatile	4	40	9	sv	turquoise	purple	purple	turquoise	right	left	0.30000000000000004	0.7	10	2	3.0000000000000004	1.4	0	1	0.7	0.30000000000000004	2	10	1.4	3.0000000000000004	valid	0.6498485690008238	53248	0	1	1	53248	1	51200	0	53248	1	0.7	51200	turquoise	purple	0	0	ml	2.7.3	bip	sub-07_ses-02_task-ml_proj-bip_2020-12-04-10-27-36.600613
249	7	2	5	250	volatile	4	40	10	sv	turquoise	purple	purple	turquoise	right	left	0.30000000000000004	0.7	6	2	1.8000000000000005	1.4	0	1	0.7	0.30000000000000004	2	6	1.4	1.8000000000000005	valid	0.6498368850006955	51200	0	0	2	53248	0	51200	1	53248	0	0.7	51200	turquoise	purple	0	2	ml	2.7.3	bip	sub-07_ses-02_task-ml_proj-bip_2020-12-04-10-27-36.600613
250	7	2	6	251	volatile	4	40	11	sv	purple	turquoise	purple	turquoise	left	right	0.30000000000000004	0.7	4	2	1.2000000000000002	1.4	0	1	0.30000000000000004	0.7	4	2	1.2000000000000002	1.4	valid	0.5998521999990771	51200	0	0	1	53248	0	53248	0	51200	1	0.7	53248	turquoise	purple	0	0	ml	2.7.3	bip	sub-07_ses-02_task-ml_proj-bip_2020-12-04-10-27-36.600613
251	7	2	6	252	volatile	4	40	12	sv	purple	turquoise	purple	turquoise	left	right	0.30000000000000004	0.7	4	6	1.2000000000000002	4.199999999999998	0	1	0.30000000000000004	0.7	4	6	1.2000000000000002	4.199999999999998	valid	0.4832188879991008	51200	0	0	1	53248	0	53248	0	53248	0	0.7	53248	turquoise	purple	1	0	ml	2.7.3	bip	sub-07_ses-02_task-ml_proj-bip_2020-12-04-10-27-36.600613
252	7	2	6	253	volatile	4	40	13	sv	turquoise	purple	purple	turquoise	right	left	0.30000000000000004	0.7	6	6	1.8000000000000005	4.199999999999998	0	1	0.7	0.30000000000000004	6	6	4.199999999999998	1.8000000000000005	valid	0.6498542450008244	53248	0	1	1	51200	0	51200	0	53248	1	0.7	51200	turquoise	purple	1	0	ml	2.7.3	bip	sub-07_ses-02_task-ml_proj-bip_2020-12-04-10-27-36.600613
253	7	2	6	254	volatile	4	40	14	sv	turquoise	purple	purple	turquoise	right	left	0.30000000000000004	0.7	2	10	0.6000000000000001	7.0	1	0	0.7	0.30000000000000004	10	2	7.0	0.6000000000000001	invalid	0.4332345789989631	51200	0	0	2	51200	1	51200	1	51200	1	0.7	51200	turquoise	purple	1	0	ml	2.7.3	bip	sub-07_ses-02_task-ml_proj-bip_2020-12-04-10-27-36.600613
254	7	2	6	255	volatile	4	40	15	sv	purple	turquoise	purple	turquoise	left	right	0.30000000000000004	0.7	10	2	3.0000000000000004	1.4	0	1	0.30000000000000004	0.7	10	2	3.0000000000000004	1.4	valid	0.5165534240004489	53248	0	1	2	51200	0	53248	1	51200	0	0.7	53248	turquoise	purple	0	2	ml	2.7.3	bip	sub-07_ses-02_task-ml_proj-bip_2020-12-04-10-27-36.600613
255	7	2	6	256	volatile	4	40	16	sv	turquoise	purple	purple	turquoise	right	left	0.30000000000000004	0.7	6	2	1.8000000000000005	1.4	1	0	0.7	0.30000000000000004	2	6	1.4	1.8000000000000005	invalid	0.6998243819998606	51200	0	0	2	53248	0	51200	1	53248	0	0.7	51200	turquoise	purple	0	0	ml	2.7.3	bip	sub-07_ses-02_task-ml_proj-bip_2020-12-04-10-27-36.600613
256	7	2	6	257	volatile	4	40	17	sv	purple	turquoise	purple	turquoise	left	right	0.30000000000000004	0.7	2	10	0.6000000000000001	7.0	0	1	0.30000000000000004	0.7	2	10	0.6000000000000001	7.0	valid	0.3832589129997359	53248	0	1	2	53248	1	53248	1	53248	1	0.7	53248	turquoise	purple	1	10	ml	2.7.3	bip	sub-07_ses-02_task-ml_proj-bip_2020-12-04-10-27-36.600613
257	7	2	6	258	volatile	4	40	18	sv	turquoise	purple	purple	turquoise	right	left	0.30000000000000004	0.7	2	2	0.6000000000000001	1.4	0	1	0.7	0.30000000000000004	2	2	1.4	0.6000000000000001	valid	0.4665562089994637	51200	0	0	2	51200	1	51200	1	53248	0	0.7	51200	turquoise	purple	1	2	ml	2.7.3	bip	sub-07_ses-02_task-ml_proj-bip_2020-12-04-10-27-36.600613
258	7	2	6	259	volatile	4	40	19	sv	turquoise	purple	purple	turquoise	right	left	0.30000000000000004	0.7	6	6	1.8000000000000005	4.199999999999998	1	0	0.7	0.30000000000000004	6	6	4.199999999999998	1.8000000000000005	invalid	0.5498621939987061	51200	0	0	2	51200	1	51200	1	53248	0	0.7	51200	turquoise	purple	1	0	ml	2.7.3	bip	sub-07_ses-02_task-ml_proj-bip_2020-12-04-10-27-36.600613
259	7	2	6	260	volatile	4	40	20	sv	purple	turquoise	purple	turquoise	left	right	0.30000000000000004	0.7	6	2	1.8000000000000005	1.4	0	1	0.30000000000000004	0.7	6	2	1.8000000000000005	1.4	valid	0.6165266009993502	53248	0	1	2	51200	0	53248	1	51200	0	0.7	53248	turquoise	purple	0	2	ml	2.7.3	bip	sub-07_ses-02_task-ml_proj-bip_2020-12-04-10-27-36.600613
260	7	2	6	261	volatile	4	40	21	sv	purple	turquoise	purple	turquoise	left	right	0.30000000000000004	0.7	2	2	0.6000000000000001	1.4	0	1	0.30000000000000004	0.7	2	2	0.6000000000000001	1.4	valid	0.39992182000059984	53248	0	1	2	53248	1	53248	1	53248	1	0.7	53248	turquoise	purple	0	2	ml	2.7.3	bip	sub-07_ses-02_task-ml_proj-bip_2020-12-04-10-27-36.600613
261	7	2	6	262	volatile	4	40	22	sv	purple	turquoise	purple	turquoise	left	right	0.30000000000000004	0.7	2	10	0.6000000000000001	7.0	1	0	0.30000000000000004	0.7	2	10	0.6000000000000001	7.0	invalid	0.4499048580000817	53248	0	1	2	53248	1	53248	1	53248	1	0.7	53248	turquoise	purple	1	0	ml	2.7.3	bip	sub-07_ses-02_task-ml_proj-bip_2020-12-04-10-27-36.600613
262	7	2	6	263	volatile	4	40	23	sv	purple	turquoise	purple	turquoise	left	right	0.30000000000000004	0.7	2	2	0.6000000000000001	1.4	0	1	0.30000000000000004	0.7	2	2	0.6000000000000001	1.4	valid	0.4332440409998526	53248	0	1	2	53248	1	53248	1	53248	1	0.7	53248	turquoise	purple	0	2	ml	2.7.3	bip	sub-07_ses-02_task-ml_proj-bip_2020-12-04-10-27-36.600613
263	7	2	6	264	volatile	4	40	24	sv	turquoise	purple	purple	turquoise	right	left	0.30000000000000004	0.7	4	6	1.2000000000000002	4.199999999999998	0	1	0.7	0.30000000000000004	6	4	4.199999999999998	1.2000000000000002	valid	0.44989506800084206	51200	0	0	2	51200	1	51200	1	51200	1	0.7	51200	turquoise	purple	1	6	ml	2.7.3	bip	sub-07_ses-02_task-ml_proj-bip_2020-12-04-10-27-36.600613
264	7	2	6	265	volatile	4	40	25	sv	turquoise	purple	purple	turquoise	right	left	0.30000000000000004	0.7	6	2	1.8000000000000005	1.4	0	1	0.7	0.30000000000000004	2	6	1.4	1.8000000000000005	valid	0.7831298190012603	51200	0	0	2	53248	0	51200	1	53248	0	0.7	51200	turquoise	purple	0	2	ml	2.7.3	bip	sub-07_ses-02_task-ml_proj-bip_2020-12-04-10-27-36.600613
265	7	2	6	266	volatile	4	40	26	sv	turquoise	purple	purple	turquoise	right	left	0.30000000000000004	0.7	6	6	1.8000000000000005	4.199999999999998	0	1	0.7	0.30000000000000004	6	6	4.199999999999998	1.8000000000000005	valid	0.5498743240004842	51200	0	0	2	51200	1	51200	1	53248	0	0.7	51200	turquoise	purple	1	6	ml	2.7.3	bip	sub-07_ses-02_task-ml_proj-bip_2020-12-04-10-27-36.600613
266	7	2	6	267	volatile	4	40	27	sv	turquoise	purple	purple	turquoise	right	left	0.30000000000000004	0.7	6	4	1.8000000000000005	2.8	0	1	0.7	0.30000000000000004	4	6	2.8	1.8000000000000005	valid	0.4832272580006247	51200	0	0	2	51200	1	51200	1	53248	0	0.7	51200	turquoise	purple	0	4	ml	2.7.3	bip	sub-07_ses-02_task-ml_proj-bip_2020-12-04-10-27-36.600613
267	7	2	6	268	volatile	4	40	28	sv	purple	turquoise	purple	turquoise	left	right	0.30000000000000004	0.7	6	2	1.8000000000000005	1.4	0	1	0.30000000000000004	0.7	6	2	1.8000000000000005	1.4	valid	0.5832009349996952	53248	0	1	2	51200	0	53248	1	51200	0	0.7	53248	turquoise	purple	0	2	ml	2.7.3	bip	sub-07_ses-02_task-ml_proj-bip_2020-12-04-10-27-36.600613
268	7	2	6	269	volatile	4	40	29	sv	turquoise	purple	purple	turquoise	right	left	0.30000000000000004	0.7	4	2	1.2000000000000002	1.4	1	0	0.7	0.30000000000000004	2	4	1.4	1.2000000000000002	invalid	0.5332041859983292	51200	0	0	2	51200	1	51200	1	53248	0	0.7	51200	turquoise	purple	0	0	ml	2.7.3	bip	sub-07_ses-02_task-ml_proj-bip_2020-12-04-10-27-36.600613
269	7	2	6	270	volatile	4	40	30	sv	purple	turquoise	purple	turquoise	left	right	0.30000000000000004	0.7	6	4	1.8000000000000005	2.8	1	0	0.30000000000000004	0.7	6	4	1.8000000000000005	2.8	invalid	0.5165514000000258	53248	0	1	2	53248	1	53248	1	51200	0	0.7	53248	turquoise	purple	0	0	ml	2.7.3	bip	sub-07_ses-02_task-ml_proj-bip_2020-12-04-10-27-36.600613
270	7	2	6	271	volatile	4	40	31	sv	turquoise	purple	purple	turquoise	right	left	0.30000000000000004	0.7	2	4	0.6000000000000001	2.8	0	1	0.7	0.30000000000000004	4	2	2.8	0.6000000000000001	valid	0.3999095409999427	51200	0	0	2	51200	1	51200	1	51200	1	0.7	51200	turquoise	purple	1	4	ml	2.7.3	bip	sub-07_ses-02_task-ml_proj-bip_2020-12-04-10-27-36.600613
271	7	2	6	272	volatile	4	40	32	sv	purple	turquoise	purple	turquoise	left	right	0.30000000000000004	0.7	2	10	0.6000000000000001	7.0	0	1	0.30000000000000004	0.7	2	10	0.6000000000000001	7.0	valid	0.583200028999272	53248	0	1	2	53248	1	53248	1	53248	1	0.7	53248	turquoise	purple	1	10	ml	2.7.3	bip	sub-07_ses-02_task-ml_proj-bip_2020-12-04-10-27-36.600613
272	7	2	6	273	volatile	4	40	33	sv	turquoise	purple	purple	turquoise	right	left	0.30000000000000004	0.7	4	2	1.2000000000000002	1.4	0	1	0.7	0.30000000000000004	2	4	1.4	1.2000000000000002	valid	0.4665560350003943	51200	0	0	2	51200	1	51200	1	53248	0	0.7	51200	turquoise	purple	0	2	ml	2.7.3	bip	sub-07_ses-02_task-ml_proj-bip_2020-12-04-10-27-36.600613
273	7	2	6	274	volatile	4	40	34	sv	purple	turquoise	purple	turquoise	left	right	0.30000000000000004	0.7	4	6	1.2000000000000002	4.199999999999998	1	0	0.30000000000000004	0.7	4	6	1.2000000000000002	4.199999999999998	invalid	0.6831719469992095	53248	0	1	2	53248	1	53248	1	53248	1	0.7	53248	turquoise	purple	1	0	ml	2.7.3	bip	sub-07_ses-02_task-ml_proj-bip_2020-12-04-10-27-36.600613
274	7	2	6	275	volatile	4	40	35	sv	turquoise	purple	purple	turquoise	right	left	0.30000000000000004	0.7	2	6	0.6000000000000001	4.199999999999998	0	1	0.7	0.30000000000000004	6	2	4.199999999999998	0.6000000000000001	valid	0.3832461729998613	51200	0	0	2	51200	1	51200	1	51200	1	0.7	51200	turquoise	purple	1	6	ml	2.7.3	bip	sub-07_ses-02_task-ml_proj-bip_2020-12-04-10-27-36.600613
275	7	2	6	276	volatile	4	40	36	sv	purple	turquoise	purple	turquoise	left	right	0.30000000000000004	0.7	2	4	0.6000000000000001	2.8	0	1	0.30000000000000004	0.7	2	4	0.6000000000000001	2.8	valid	0.4665689859994018	53248	0	1	2	53248	1	53248	1	53248	1	0.7	53248	turquoise	purple	1	4	ml	2.7.3	bip	sub-07_ses-02_task-ml_proj-bip_2020-12-04-10-27-36.600613
276	7	2	6	277	volatile	4	40	37	sv	turquoise	purple	purple	turquoise	right	left	0.30000000000000004	0.7	6	2	1.8000000000000005	1.4	0	1	0.7	0.30000000000000004	2	6	1.4	1.8000000000000005	valid	0.4832198359999893	51200	0	0	2	53248	0	51200	1	53248	0	0.7	51200	turquoise	purple	0	2	ml	2.7.3	bip	sub-07_ses-02_task-ml_proj-bip_2020-12-04-10-27-36.600613
277	7	2	6	278	volatile	4	40	38	sv	turquoise	purple	purple	turquoise	right	left	0.30000000000000004	0.7	4	6	1.2000000000000002	4.199999999999998	1	0	0.7	0.30000000000000004	6	4	4.199999999999998	1.2000000000000002	invalid	0.5332034370003385	51200	0	0	2	51200	1	51200	1	51200	1	0.7	51200	turquoise	purple	1	0	ml	2.7.3	bip	sub-07_ses-02_task-ml_proj-bip_2020-12-04-10-27-36.600613
278	7	2	6	279	volatile	4	40	39	sv	turquoise	purple	purple	turquoise	right	left	0.30000000000000004	0.7	2	4	0.6000000000000001	2.8	0	1	0.7	0.30000000000000004	4	2	2.8	0.6000000000000001	valid	0.4998806550011068	51200	0	0	2	51200	1	51200	1	51200	1	0.7	51200	turquoise	purple	1	4	ml	2.7.3	bip	sub-07_ses-02_task-ml_proj-bip_2020-12-04-10-27-36.600613
