Unnamed: 0	sub_id	ses_id	block_no	trial_no	phase_type	phase_no	phase_length	trialInPhase_no	phase_type_order	color_left	color_right	color1	color2	position1	position2	prob1	prob2	mag1	mag2	ev1	ev2	outcome1	outcome2	prob_left	prob_right	mag_left	mag_right	ev_left	ev_right	reward_validity	resp_time	resp_key	timeout	choice_side	choice	ev_corr_resp	ev_correct	prob_corr_resp	prob_correct	mag_corr_resp	mag_correct	high_prob	high_prob_side	high_prob_color	low_prob_color	no_brain	reward	name	version	proj_id	logFileID
0	4	2	1	1	volatile	1	20	1	vs	purple	turquoise	turquoise	purple	right	left	0.7	0.30000000000000004	4	2	2.8	0.6000000000000001	0	1	0.30000000000000004	0.7	2	4	0.6000000000000001	2.8	invalid	1.4496178659974248	53248	0	1	1	53248	1	53248	1	53248	1	0.7	53248	turquoise	purple	1	0	ml	2.7.3	lorasick	sub-04_ses-02_task-ml_proj-lorasick_2020-11-17-14-02-44.442476
1	4	2	1	2	volatile	1	20	2	vs	purple	turquoise	turquoise	purple	right	left	0.7	0.30000000000000004	6	6	4.199999999999998	1.8000000000000005	1	0	0.30000000000000004	0.7	6	6	1.8000000000000005	4.199999999999998	valid	0.4998904120002408	53248	0	1	1	53248	1	53248	1	53248	1	0.7	53248	turquoise	purple	0	6	ml	2.7.3	lorasick	sub-04_ses-02_task-ml_proj-lorasick_2020-11-17-14-02-44.442476
2	4	2	1	3	volatile	1	20	3	vs	purple	turquoise	turquoise	purple	right	left	0.7	0.30000000000000004	2	4	1.4	1.2000000000000002	1	0	0.30000000000000004	0.7	4	2	1.2000000000000002	1.4	valid	0.8331235689984169	53248	0	1	1	53248	1	53248	1	51200	0	0.7	53248	turquoise	purple	0	2	ml	2.7.3	lorasick	sub-04_ses-02_task-ml_proj-lorasick_2020-11-17-14-02-44.442476
3	4	2	1	4	volatile	1	20	4	vs	purple	turquoise	turquoise	purple	right	left	0.7	0.30000000000000004	6	2	4.199999999999998	0.6000000000000001	1	0	0.30000000000000004	0.7	2	6	0.6000000000000001	4.199999999999998	valid	0.4165848900011042	53248	0	1	1	53248	1	53248	1	53248	1	0.7	53248	turquoise	purple	1	6	ml	2.7.3	lorasick	sub-04_ses-02_task-ml_proj-lorasick_2020-11-17-14-02-44.442476
4	4	2	1	5	volatile	1	20	5	vs	purple	turquoise	turquoise	purple	right	left	0.7	0.30000000000000004	2	10	1.4	3.0000000000000004	0	1	0.30000000000000004	0.7	10	2	3.0000000000000004	1.4	invalid	1.399630713000079	53248	0	1	1	51200	0	53248	1	51200	0	0.7	53248	turquoise	purple	0	0	ml	2.7.3	lorasick	sub-04_ses-02_task-ml_proj-lorasick_2020-11-17-14-02-44.442476
5	4	2	1	6	volatile	1	20	6	vs	turquoise	purple	turquoise	purple	left	right	0.7	0.30000000000000004	2	2	1.4	0.6000000000000001	1	0	0.7	0.30000000000000004	2	2	1.4	0.6000000000000001	valid	1.099710299000435	53248	0	1	2	51200	0	51200	0	53248	1	0.7	51200	turquoise	purple	1	0	ml	2.7.3	lorasick	sub-04_ses-02_task-ml_proj-lorasick_2020-11-17-14-02-44.442476
6	4	2	1	7	volatile	1	20	7	vs	purple	turquoise	turquoise	purple	right	left	0.7	0.30000000000000004	4	6	2.8	1.8000000000000005	0	1	0.30000000000000004	0.7	6	4	1.8000000000000005	2.8	invalid	1.2830046249982845	53248	0	1	1	53248	1	53248	1	51200	0	0.7	53248	turquoise	purple	0	0	ml	2.7.3	lorasick	sub-04_ses-02_task-ml_proj-lorasick_2020-11-17-14-02-44.442476
7	4	2	1	8	volatile	1	20	8	vs	turquoise	purple	turquoise	purple	left	right	0.7	0.30000000000000004	2	4	1.4	1.2000000000000002	1	0	0.7	0.30000000000000004	2	4	1.4	1.2000000000000002	valid	0.6831626179991872	51200	0	0	1	51200	1	51200	1	53248	0	0.7	51200	turquoise	purple	0	2	ml	2.7.3	lorasick	sub-04_ses-02_task-ml_proj-lorasick_2020-11-17-14-02-44.442476
8	4	2	1	9	volatile	1	20	9	vs	turquoise	purple	turquoise	purple	left	right	0.7	0.30000000000000004	10	2	7.0	0.6000000000000001	0	1	0.7	0.30000000000000004	10	2	7.0	0.6000000000000001	invalid	0.7164841099984187	51200	0	0	1	51200	1	51200	1	51200	1	0.7	51200	turquoise	purple	1	0	ml	2.7.3	lorasick	sub-04_ses-02_task-ml_proj-lorasick_2020-11-17-14-02-44.442476
9	4	2	1	10	volatile	1	20	10	vs	turquoise	purple	turquoise	purple	left	right	0.7	0.30000000000000004	4	6	2.8	1.8000000000000005	1	0	0.7	0.30000000000000004	4	6	2.8	1.8000000000000005	valid	0.6831556370016187	51200	0	0	1	51200	1	51200	1	53248	0	0.7	51200	turquoise	purple	0	4	ml	2.7.3	lorasick	sub-04_ses-02_task-ml_proj-lorasick_2020-11-17-14-02-44.442476
10	4	2	1	11	volatile	1	20	11	vs	turquoise	purple	turquoise	purple	left	right	0.7	0.30000000000000004	4	6	2.8	1.8000000000000005	1	0	0.7	0.30000000000000004	4	6	2.8	1.8000000000000005	valid	0.4498928480024915	51200	0	0	1	51200	1	51200	1	53248	0	0.7	51200	turquoise	purple	0	4	ml	2.7.3	lorasick	sub-04_ses-02_task-ml_proj-lorasick_2020-11-17-14-02-44.442476
11	4	2	1	12	volatile	1	20	12	vs	turquoise	purple	turquoise	purple	left	right	0.7	0.30000000000000004	6	6	4.199999999999998	1.8000000000000005	1	0	0.7	0.30000000000000004	6	6	4.199999999999998	1.8000000000000005	valid	0.3832518609997351	51200	0	0	1	51200	1	51200	1	53248	0	0.7	51200	turquoise	purple	1	6	ml	2.7.3	lorasick	sub-04_ses-02_task-ml_proj-lorasick_2020-11-17-14-02-44.442476
12	4	2	1	13	volatile	1	20	13	vs	purple	turquoise	turquoise	purple	right	left	0.7	0.30000000000000004	2	4	1.4	1.2000000000000002	1	0	0.30000000000000004	0.7	4	2	1.2000000000000002	1.4	valid	0.6998233289996278	51200	0	0	2	53248	0	53248	0	51200	1	0.7	53248	turquoise	purple	0	0	ml	2.7.3	lorasick	sub-04_ses-02_task-ml_proj-lorasick_2020-11-17-14-02-44.442476
13	4	2	1	14	volatile	1	20	14	vs	turquoise	purple	turquoise	purple	left	right	0.7	0.30000000000000004	2	2	1.4	0.6000000000000001	0	1	0.7	0.30000000000000004	2	2	1.4	0.6000000000000001	invalid	0.8164558649987157	51200	0	0	1	51200	1	51200	1	53248	0	0.7	51200	turquoise	purple	1	0	ml	2.7.3	lorasick	sub-04_ses-02_task-ml_proj-lorasick_2020-11-17-14-02-44.442476
14	4	2	1	15	volatile	1	20	15	vs	purple	turquoise	turquoise	purple	right	left	0.7	0.30000000000000004	6	2	4.199999999999998	0.6000000000000001	1	0	0.30000000000000004	0.7	2	6	0.6000000000000001	4.199999999999998	valid	1.2163521849979588	53248	0	1	1	53248	1	53248	1	53248	1	0.7	53248	turquoise	purple	1	6	ml	2.7.3	lorasick	sub-04_ses-02_task-ml_proj-lorasick_2020-11-17-14-02-44.442476
15	4	2	1	16	volatile	1	20	16	vs	turquoise	purple	turquoise	purple	left	right	0.7	0.30000000000000004	6	4	4.199999999999998	1.2000000000000002	0	1	0.7	0.30000000000000004	6	4	4.199999999999998	1.2000000000000002	invalid	0.5998721159994602	51200	0	0	1	51200	1	51200	1	51200	1	0.7	51200	turquoise	purple	1	0	ml	2.7.3	lorasick	sub-04_ses-02_task-ml_proj-lorasick_2020-11-17-14-02-44.442476
16	4	2	1	17	volatile	1	20	17	vs	turquoise	purple	turquoise	purple	left	right	0.7	0.30000000000000004	6	2	4.199999999999998	0.6000000000000001	1	0	0.7	0.30000000000000004	6	2	4.199999999999998	0.6000000000000001	valid	0.8997629049990792	51200	0	0	1	51200	1	51200	1	51200	1	0.7	51200	turquoise	purple	1	6	ml	2.7.3	lorasick	sub-04_ses-02_task-ml_proj-lorasick_2020-11-17-14-02-44.442476
17	4	2	1	18	volatile	1	20	18	vs	purple	turquoise	turquoise	purple	right	left	0.7	0.30000000000000004	10	2	7.0	0.6000000000000001	1	0	0.30000000000000004	0.7	2	10	0.6000000000000001	7.0	valid	0.4165859929998987	53248	0	1	1	53248	1	53248	1	53248	1	0.7	53248	turquoise	purple	1	10	ml	2.7.3	lorasick	sub-04_ses-02_task-ml_proj-lorasick_2020-11-17-14-02-44.442476
18	4	2	1	19	volatile	1	20	19	vs	purple	turquoise	turquoise	purple	right	left	0.7	0.30000000000000004	2	6	1.4	1.8000000000000005	1	0	0.30000000000000004	0.7	6	2	1.8000000000000005	1.4	valid	0.5498757130008016	53248	0	1	1	51200	0	53248	1	51200	0	0.7	53248	turquoise	purple	0	2	ml	2.7.3	lorasick	sub-04_ses-02_task-ml_proj-lorasick_2020-11-17-14-02-44.442476
19	4	2	1	20	volatile	1	20	20	vs	turquoise	purple	turquoise	purple	left	right	0.7	0.30000000000000004	2	10	1.4	3.0000000000000004	1	0	0.7	0.30000000000000004	2	10	1.4	3.0000000000000004	valid	0.7998014209988469	51200	0	0	1	53248	0	51200	1	53248	0	0.7	51200	turquoise	purple	0	2	ml	2.7.3	lorasick	sub-04_ses-02_task-ml_proj-lorasick_2020-11-17-14-02-44.442476
20	4	2	1	21	volatile	2	40	1	vs	purple	turquoise	turquoise	purple	right	left	0.30000000000000004	0.7	2	4	0.6000000000000001	2.8	0	1	0.7	0.30000000000000004	4	2	2.8	0.6000000000000001	valid	0.6665140840013919	53248	0	1	1	51200	0	51200	0	51200	0	0.7	51200	purple	turquoise	1	0	ml	2.7.3	lorasick	sub-04_ses-02_task-ml_proj-lorasick_2020-11-17-14-02-44.442476
21	4	2	1	22	volatile	2	40	2	vs	turquoise	purple	turquoise	purple	left	right	0.30000000000000004	0.7	6	4	1.8000000000000005	2.8	1	0	0.30000000000000004	0.7	6	4	1.8000000000000005	2.8	invalid	0.6498309599992353	51200	0	0	1	53248	0	53248	0	51200	1	0.7	53248	purple	turquoise	0	6	ml	2.7.3	lorasick	sub-04_ses-02_task-ml_proj-lorasick_2020-11-17-14-02-44.442476
22	4	2	1	23	volatile	2	40	3	vs	purple	turquoise	turquoise	purple	right	left	0.30000000000000004	0.7	10	2	3.0000000000000004	1.4	0	1	0.7	0.30000000000000004	2	10	1.4	3.0000000000000004	valid	0.4165834470004484	53248	0	1	1	53248	1	51200	0	53248	1	0.7	51200	purple	turquoise	0	0	ml	2.7.3	lorasick	sub-04_ses-02_task-ml_proj-lorasick_2020-11-17-14-02-44.442476
23	4	2	1	24	volatile	2	40	4	vs	turquoise	purple	turquoise	purple	left	right	0.30000000000000004	0.7	4	2	1.2000000000000002	1.4	1	0	0.30000000000000004	0.7	4	2	1.2000000000000002	1.4	invalid	0.4998809919998166	51200	0	0	1	53248	0	53248	0	51200	1	0.7	53248	purple	turquoise	0	4	ml	2.7.3	lorasick	sub-04_ses-02_task-ml_proj-lorasick_2020-11-17-14-02-44.442476
24	4	2	1	25	volatile	2	40	5	vs	purple	turquoise	turquoise	purple	right	left	0.30000000000000004	0.7	4	2	1.2000000000000002	1.4	0	1	0.7	0.30000000000000004	2	4	1.4	1.2000000000000002	valid	0.4999155629993766	53248	0	1	1	51200	0	51200	0	53248	1	0.7	51200	purple	turquoise	0	0	ml	2.7.3	lorasick	sub-04_ses-02_task-ml_proj-lorasick_2020-11-17-14-02-44.442476
25	4	2	1	26	volatile	2	40	6	vs	purple	turquoise	turquoise	purple	right	left	0.30000000000000004	0.7	6	4	1.8000000000000005	2.8	1	0	0.7	0.30000000000000004	4	6	2.8	1.8000000000000005	invalid	0.8664651400031289	53248	0	1	1	51200	0	51200	0	53248	1	0.7	51200	purple	turquoise	0	6	ml	2.7.3	lorasick	sub-04_ses-02_task-ml_proj-lorasick_2020-11-17-14-02-44.442476
26	4	2	1	27	volatile	2	40	7	vs	turquoise	purple	turquoise	purple	left	right	0.30000000000000004	0.7	4	2	1.2000000000000002	1.4	0	1	0.30000000000000004	0.7	4	2	1.2000000000000002	1.4	valid	0.6498363669998071	51200	0	0	1	53248	0	53248	0	51200	1	0.7	53248	purple	turquoise	0	0	ml	2.7.3	lorasick	sub-04_ses-02_task-ml_proj-lorasick_2020-11-17-14-02-44.442476
27	4	2	1	28	volatile	2	40	8	vs	turquoise	purple	turquoise	purple	left	right	0.30000000000000004	0.7	6	6	1.8000000000000005	4.199999999999998	0	1	0.30000000000000004	0.7	6	6	1.8000000000000005	4.199999999999998	valid	0.399908201998187	51200	0	0	1	53248	0	53248	0	53248	0	0.7	53248	purple	turquoise	0	0	ml	2.7.3	lorasick	sub-04_ses-02_task-ml_proj-lorasick_2020-11-17-14-02-44.442476
28	4	2	1	29	volatile	2	40	9	vs	purple	turquoise	turquoise	purple	right	left	0.30000000000000004	0.7	6	6	1.8000000000000005	4.199999999999998	0	1	0.7	0.30000000000000004	6	6	4.199999999999998	1.8000000000000005	valid	0.5165530689992011	53248	0	1	1	51200	0	51200	0	53248	1	0.7	51200	purple	turquoise	1	0	ml	2.7.3	lorasick	sub-04_ses-02_task-ml_proj-lorasick_2020-11-17-14-02-44.442476
29	4	2	1	30	volatile	2	40	10	vs	turquoise	purple	turquoise	purple	left	right	0.30000000000000004	0.7	2	2	0.6000000000000001	1.4	0	1	0.30000000000000004	0.7	2	2	0.6000000000000001	1.4	valid	0.6165250049998576	53248	0	1	2	53248	1	53248	1	53248	1	0.7	53248	purple	turquoise	0	2	ml	2.7.3	lorasick	sub-04_ses-02_task-ml_proj-lorasick_2020-11-17-14-02-44.442476
30	4	2	1	31	volatile	2	40	11	vs	purple	turquoise	turquoise	purple	right	left	0.30000000000000004	0.7	4	2	1.2000000000000002	1.4	1	0	0.7	0.30000000000000004	2	4	1.4	1.2000000000000002	invalid	0.4498983039993618	51200	0	0	2	51200	1	51200	1	53248	0	0.7	51200	purple	turquoise	0	0	ml	2.7.3	lorasick	sub-04_ses-02_task-ml_proj-lorasick_2020-11-17-14-02-44.442476
31	4	2	1	32	volatile	2	40	12	vs	turquoise	purple	turquoise	purple	left	right	0.30000000000000004	0.7	2	2	0.6000000000000001	1.4	0	1	0.30000000000000004	0.7	2	2	0.6000000000000001	1.4	valid	0.6331858300000022	53248	0	1	2	53248	1	53248	1	53248	1	0.7	53248	purple	turquoise	0	2	ml	2.7.3	lorasick	sub-04_ses-02_task-ml_proj-lorasick_2020-11-17-14-02-44.442476
32	4	2	1	33	volatile	2	40	13	vs	turquoise	purple	turquoise	purple	left	right	0.30000000000000004	0.7	2	6	0.6000000000000001	4.199999999999998	0	1	0.30000000000000004	0.7	2	6	0.6000000000000001	4.199999999999998	valid	0.5832006609998643	53248	0	1	2	53248	1	53248	1	53248	1	0.7	53248	purple	turquoise	1	6	ml	2.7.3	lorasick	sub-04_ses-02_task-ml_proj-lorasick_2020-11-17-14-02-44.442476
33	4	2	1	34	volatile	2	40	14	vs	purple	turquoise	turquoise	purple	right	left	0.30000000000000004	0.7	2	6	0.6000000000000001	4.199999999999998	0	1	0.7	0.30000000000000004	6	2	4.199999999999998	0.6000000000000001	valid	0.783132652999484	51200	0	0	2	51200	1	51200	1	51200	1	0.7	51200	purple	turquoise	1	6	ml	2.7.3	lorasick	sub-04_ses-02_task-ml_proj-lorasick_2020-11-17-14-02-44.442476
34	4	2	1	35	volatile	2	40	15	vs	purple	turquoise	turquoise	purple	right	left	0.30000000000000004	0.7	2	10	0.6000000000000001	7.0	1	0	0.7	0.30000000000000004	10	2	7.0	0.6000000000000001	invalid	1.1996800679989974	51200	0	0	2	51200	1	51200	1	51200	1	0.7	51200	purple	turquoise	1	0	ml	2.7.3	lorasick	sub-04_ses-02_task-ml_proj-lorasick_2020-11-17-14-02-44.442476
35	4	2	1	36	volatile	2	40	16	vs	turquoise	purple	turquoise	purple	left	right	0.30000000000000004	0.7	6	4	1.8000000000000005	2.8	0	1	0.30000000000000004	0.7	6	4	1.8000000000000005	2.8	valid	0.7331504120011232	53248	0	1	2	53248	1	53248	1	51200	0	0.7	53248	purple	turquoise	0	4	ml	2.7.3	lorasick	sub-04_ses-02_task-ml_proj-lorasick_2020-11-17-14-02-44.442476
36	4	2	1	37	volatile	2	40	17	vs	purple	turquoise	turquoise	purple	right	left	0.30000000000000004	0.7	2	6	0.6000000000000001	4.199999999999998	1	0	0.7	0.30000000000000004	6	2	4.199999999999998	0.6000000000000001	invalid	0.5998515530009172	51200	0	0	2	51200	1	51200	1	51200	1	0.7	51200	purple	turquoise	1	0	ml	2.7.3	lorasick	sub-04_ses-02_task-ml_proj-lorasick_2020-11-17-14-02-44.442476
37	4	2	1	38	volatile	2	40	18	vs	purple	turquoise	turquoise	purple	right	left	0.30000000000000004	0.7	2	2	0.6000000000000001	1.4	0	1	0.7	0.30000000000000004	2	2	1.4	0.6000000000000001	valid	0.4665571750010713	51200	0	0	2	51200	1	51200	1	53248	0	0.7	51200	purple	turquoise	1	2	ml	2.7.3	lorasick	sub-04_ses-02_task-ml_proj-lorasick_2020-11-17-14-02-44.442476
38	4	2	1	39	volatile	2	40	19	vs	purple	turquoise	turquoise	purple	right	left	0.30000000000000004	0.7	2	10	0.6000000000000001	7.0	0	1	0.7	0.30000000000000004	10	2	7.0	0.6000000000000001	valid	0.4998795629981032	51200	0	0	2	51200	1	51200	1	51200	1	0.7	51200	purple	turquoise	1	10	ml	2.7.3	lorasick	sub-04_ses-02_task-ml_proj-lorasick_2020-11-17-14-02-44.442476
39	4	2	1	40	volatile	2	40	20	vs	turquoise	purple	turquoise	purple	left	right	0.30000000000000004	0.7	6	4	1.8000000000000005	2.8	0	1	0.30000000000000004	0.7	6	4	1.8000000000000005	2.8	valid	0.5831998700014083	53248	0	1	2	53248	1	53248	1	51200	0	0.7	53248	purple	turquoise	0	4	ml	2.7.3	lorasick	sub-04_ses-02_task-ml_proj-lorasick_2020-11-17-14-02-44.442476
40	4	2	1	41	volatile	2	40	21	vs	turquoise	purple	turquoise	purple	left	right	0.30000000000000004	0.7	4	6	1.2000000000000002	4.199999999999998	1	0	0.30000000000000004	0.7	4	6	1.2000000000000002	4.199999999999998	invalid	0.5332139189995361	53248	0	1	2	53248	1	53248	1	53248	1	0.7	53248	purple	turquoise	1	0	ml	2.7.3	lorasick	sub-04_ses-02_task-ml_proj-lorasick_2020-11-17-14-02-44.442476
41	4	2	1	42	volatile	2	40	22	vs	turquoise	purple	turquoise	purple	left	right	0.30000000000000004	0.7	4	2	1.2000000000000002	1.4	0	1	0.30000000000000004	0.7	4	2	1.2000000000000002	1.4	valid	0.4665710030021728	53248	0	1	2	53248	1	53248	1	51200	0	0.7	53248	purple	turquoise	0	2	ml	2.7.3	lorasick	sub-04_ses-02_task-ml_proj-lorasick_2020-11-17-14-02-44.442476
42	4	2	1	43	volatile	2	40	23	vs	turquoise	purple	turquoise	purple	left	right	0.30000000000000004	0.7	2	4	0.6000000000000001	2.8	1	0	0.30000000000000004	0.7	2	4	0.6000000000000001	2.8	invalid	0.4165877829982492	53248	0	1	2	53248	1	53248	1	53248	1	0.7	53248	purple	turquoise	1	0	ml	2.7.3	lorasick	sub-04_ses-02_task-ml_proj-lorasick_2020-11-17-14-02-44.442476
43	4	2	1	44	volatile	2	40	24	vs	turquoise	purple	turquoise	purple	left	right	0.30000000000000004	0.7	6	4	1.8000000000000005	2.8	1	0	0.30000000000000004	0.7	6	4	1.8000000000000005	2.8	invalid	0.6831773039994005	53248	0	1	2	53248	1	53248	1	51200	0	0.7	53248	purple	turquoise	0	0	ml	2.7.3	lorasick	sub-04_ses-02_task-ml_proj-lorasick_2020-11-17-14-02-44.442476
44	4	2	1	45	volatile	2	40	25	vs	purple	turquoise	turquoise	purple	right	left	0.30000000000000004	0.7	2	6	0.6000000000000001	4.199999999999998	0	1	0.7	0.30000000000000004	6	2	4.199999999999998	0.6000000000000001	valid	0.8997631880010886	51200	0	0	2	51200	1	51200	1	51200	1	0.7	51200	purple	turquoise	1	6	ml	2.7.3	lorasick	sub-04_ses-02_task-ml_proj-lorasick_2020-11-17-14-02-44.442476
45	4	2	1	46	volatile	2	40	26	vs	turquoise	purple	turquoise	purple	left	right	0.30000000000000004	0.7	4	6	1.2000000000000002	4.199999999999998	0	1	0.30000000000000004	0.7	4	6	1.2000000000000002	4.199999999999998	valid	1.166354124998179	51200	0	0	1	53248	0	53248	0	53248	0	0.7	53248	purple	turquoise	1	0	ml	2.7.3	lorasick	sub-04_ses-02_task-ml_proj-lorasick_2020-11-17-14-02-44.442476
46	4	2	1	47	volatile	2	40	27	vs	purple	turquoise	turquoise	purple	right	left	0.30000000000000004	0.7	2	2	0.6000000000000001	1.4	1	0	0.7	0.30000000000000004	2	2	1.4	0.6000000000000001	invalid	1.3663076260017988	53248	0	1	1	51200	0	51200	0	53248	1	0.7	51200	purple	turquoise	1	2	ml	2.7.3	lorasick	sub-04_ses-02_task-ml_proj-lorasick_2020-11-17-14-02-44.442476
47	4	2	1	48	volatile	2	40	28	vs	turquoise	purple	turquoise	purple	left	right	0.30000000000000004	0.7	10	2	3.0000000000000004	1.4	0	1	0.30000000000000004	0.7	10	2	3.0000000000000004	1.4	valid	0.9664108680008212	51200	0	0	1	51200	1	53248	0	51200	1	0.7	53248	purple	turquoise	0	0	ml	2.7.3	lorasick	sub-04_ses-02_task-ml_proj-lorasick_2020-11-17-14-02-44.442476
48	4	2	1	49	volatile	2	40	29	vs	purple	turquoise	turquoise	purple	right	left	0.30000000000000004	0.7	6	6	1.8000000000000005	4.199999999999998	0	1	0.7	0.30000000000000004	6	6	4.199999999999998	1.8000000000000005	valid	0.4665573759994004	53248	0	1	1	51200	0	51200	0	53248	1	0.7	51200	purple	turquoise	1	0	ml	2.7.3	lorasick	sub-04_ses-02_task-ml_proj-lorasick_2020-11-17-14-02-44.442476
49	4	2	1	50	volatile	2	40	30	vs	purple	turquoise	turquoise	purple	right	left	0.30000000000000004	0.7	10	2	3.0000000000000004	1.4	0	1	0.7	0.30000000000000004	2	10	1.4	3.0000000000000004	valid	0.6998242129993741	51200	0	0	2	53248	0	51200	1	53248	0	0.7	51200	purple	turquoise	0	2	ml	2.7.3	lorasick	sub-04_ses-02_task-ml_proj-lorasick_2020-11-17-14-02-44.442476
50	4	2	2	51	volatile	2	40	31	vs	turquoise	purple	turquoise	purple	left	right	0.30000000000000004	0.7	2	6	0.6000000000000001	4.199999999999998	0	1	0.30000000000000004	0.7	2	6	0.6000000000000001	4.199999999999998	valid	1.049714810000296	51200	0	0	1	53248	0	53248	0	53248	0	0.7	53248	purple	turquoise	1	0	ml	2.7.3	lorasick	sub-04_ses-02_task-ml_proj-lorasick_2020-11-17-14-02-44.442476
51	4	2	2	52	volatile	2	40	32	vs	purple	turquoise	turquoise	purple	right	left	0.30000000000000004	0.7	4	2	1.2000000000000002	1.4	0	1	0.7	0.30000000000000004	2	4	1.4	1.2000000000000002	valid	0.5332127209985629	51200	0	0	2	51200	1	51200	1	53248	0	0.7	51200	purple	turquoise	0	2	ml	2.7.3	lorasick	sub-04_ses-02_task-ml_proj-lorasick_2020-11-17-14-02-44.442476
52	4	2	2	53	volatile	2	40	33	vs	turquoise	purple	turquoise	purple	left	right	0.30000000000000004	0.7	2	6	0.6000000000000001	4.199999999999998	0	1	0.30000000000000004	0.7	2	6	0.6000000000000001	4.199999999999998	valid	0.5498697559996799	53248	0	1	2	53248	1	53248	1	53248	1	0.7	53248	purple	turquoise	1	6	ml	2.7.3	lorasick	sub-04_ses-02_task-ml_proj-lorasick_2020-11-17-14-02-44.442476
53	4	2	2	54	volatile	2	40	34	vs	purple	turquoise	turquoise	purple	right	left	0.30000000000000004	0.7	10	2	3.0000000000000004	1.4	0	1	0.7	0.30000000000000004	2	10	1.4	3.0000000000000004	valid	0.4498960600030841	51200	0	0	2	53248	0	51200	1	53248	0	0.7	51200	purple	turquoise	0	2	ml	2.7.3	lorasick	sub-04_ses-02_task-ml_proj-lorasick_2020-11-17-14-02-44.442476
54	4	2	2	55	volatile	2	40	35	vs	purple	turquoise	turquoise	purple	right	left	0.30000000000000004	0.7	6	4	1.8000000000000005	2.8	0	1	0.7	0.30000000000000004	4	6	2.8	1.8000000000000005	valid	0.4832178739998199	51200	0	0	2	51200	1	51200	1	53248	0	0.7	51200	purple	turquoise	0	4	ml	2.7.3	lorasick	sub-04_ses-02_task-ml_proj-lorasick_2020-11-17-14-02-44.442476
55	4	2	2	56	volatile	2	40	36	vs	turquoise	purple	turquoise	purple	left	right	0.30000000000000004	0.7	2	6	0.6000000000000001	4.199999999999998	0	1	0.30000000000000004	0.7	2	6	0.6000000000000001	4.199999999999998	valid	0.666505909000989	53248	0	1	2	53248	1	53248	1	53248	1	0.7	53248	purple	turquoise	1	6	ml	2.7.3	lorasick	sub-04_ses-02_task-ml_proj-lorasick_2020-11-17-14-02-44.442476
56	4	2	2	57	volatile	2	40	37	vs	purple	turquoise	turquoise	purple	right	left	0.30000000000000004	0.7	2	10	0.6000000000000001	7.0	0	1	0.7	0.30000000000000004	10	2	7.0	0.6000000000000001	valid	0.7998067059997993	53248	0	1	1	51200	0	51200	0	51200	0	0.7	51200	purple	turquoise	1	0	ml	2.7.3	lorasick	sub-04_ses-02_task-ml_proj-lorasick_2020-11-17-14-02-44.442476
57	4	2	2	58	volatile	2	40	38	vs	turquoise	purple	turquoise	purple	left	right	0.30000000000000004	0.7	6	2	1.8000000000000005	1.4	0	1	0.30000000000000004	0.7	6	2	1.8000000000000005	1.4	valid	0.6498549060015648	53248	0	1	2	51200	0	53248	1	51200	0	0.7	53248	purple	turquoise	0	2	ml	2.7.3	lorasick	sub-04_ses-02_task-ml_proj-lorasick_2020-11-17-14-02-44.442476
58	4	2	2	59	volatile	2	40	39	vs	purple	turquoise	turquoise	purple	right	left	0.30000000000000004	0.7	6	6	1.8000000000000005	4.199999999999998	1	0	0.7	0.30000000000000004	6	6	4.199999999999998	1.8000000000000005	invalid	0.7164866150014859	51200	0	0	2	51200	1	51200	1	53248	0	0.7	51200	purple	turquoise	1	0	ml	2.7.3	lorasick	sub-04_ses-02_task-ml_proj-lorasick_2020-11-17-14-02-44.442476
59	4	2	2	60	volatile	2	40	40	vs	turquoise	purple	turquoise	purple	left	right	0.30000000000000004	0.7	2	10	0.6000000000000001	7.0	1	0	0.30000000000000004	0.7	2	10	0.6000000000000001	7.0	invalid	0.7664834629977122	53248	0	1	2	53248	1	53248	1	53248	1	0.7	53248	purple	turquoise	1	0	ml	2.7.3	lorasick	sub-04_ses-02_task-ml_proj-lorasick_2020-11-17-14-02-44.442476
60	4	2	2	61	volatile	3	20	1	vs	turquoise	purple	turquoise	purple	left	right	0.7	0.30000000000000004	10	2	7.0	0.6000000000000001	0	1	0.7	0.30000000000000004	10	2	7.0	0.6000000000000001	invalid	0.6498492849968898	53248	0	1	2	51200	0	51200	0	51200	0	0.7	51200	turquoise	purple	1	2	ml	2.7.3	lorasick	sub-04_ses-02_task-ml_proj-lorasick_2020-11-17-14-02-44.442476
61	4	2	2	62	volatile	3	20	2	vs	turquoise	purple	turquoise	purple	left	right	0.7	0.30000000000000004	6	6	4.199999999999998	1.8000000000000005	1	0	0.7	0.30000000000000004	6	6	4.199999999999998	1.8000000000000005	valid	0.6665097799996147	53248	0	1	2	51200	0	51200	0	53248	1	0.7	51200	turquoise	purple	1	0	ml	2.7.3	lorasick	sub-04_ses-02_task-ml_proj-lorasick_2020-11-17-14-02-44.442476
62	4	2	2	63	volatile	3	20	3	vs	turquoise	purple	turquoise	purple	left	right	0.7	0.30000000000000004	6	6	4.199999999999998	1.8000000000000005	0	1	0.7	0.30000000000000004	6	6	4.199999999999998	1.8000000000000005	invalid	0.5165401249978459	51200	0	0	1	51200	1	51200	1	53248	0	0.7	51200	turquoise	purple	1	0	ml	2.7.3	lorasick	sub-04_ses-02_task-ml_proj-lorasick_2020-11-17-14-02-44.442476
63	4	2	2	64	volatile	3	20	4	vs	turquoise	purple	turquoise	purple	left	right	0.7	0.30000000000000004	2	10	1.4	3.0000000000000004	0	1	0.7	0.30000000000000004	2	10	1.4	3.0000000000000004	invalid	0.5831894190014282	51200	0	0	1	53248	0	51200	1	53248	0	0.7	51200	turquoise	purple	0	0	ml	2.7.3	lorasick	sub-04_ses-02_task-ml_proj-lorasick_2020-11-17-14-02-44.442476
64	4	2	2	65	volatile	3	20	5	vs	turquoise	purple	turquoise	purple	left	right	0.7	0.30000000000000004	2	2	1.4	0.6000000000000001	1	0	0.7	0.30000000000000004	2	2	1.4	0.6000000000000001	valid	0.6331859559977602	53248	0	1	2	51200	0	51200	0	53248	1	0.7	51200	turquoise	purple	1	0	ml	2.7.3	lorasick	sub-04_ses-02_task-ml_proj-lorasick_2020-11-17-14-02-44.442476
65	4	2	2	66	volatile	3	20	6	vs	turquoise	purple	turquoise	purple	left	right	0.7	0.30000000000000004	4	6	2.8	1.8000000000000005	1	0	0.7	0.30000000000000004	4	6	2.8	1.8000000000000005	valid	0.3166101930000877	53248	0	1	2	51200	0	51200	0	53248	1	0.7	51200	turquoise	purple	0	0	ml	2.7.3	lorasick	sub-04_ses-02_task-ml_proj-lorasick_2020-11-17-14-02-44.442476
66	4	2	2	67	volatile	3	20	7	vs	purple	turquoise	turquoise	purple	right	left	0.7	0.30000000000000004	4	2	2.8	0.6000000000000001	1	0	0.30000000000000004	0.7	2	4	0.6000000000000001	2.8	valid	0.7164863170000899	51200	0	0	2	53248	0	53248	0	53248	0	0.7	53248	turquoise	purple	1	0	ml	2.7.3	lorasick	sub-04_ses-02_task-ml_proj-lorasick_2020-11-17-14-02-44.442476
67	4	2	2	68	volatile	3	20	8	vs	purple	turquoise	turquoise	purple	right	left	0.7	0.30000000000000004	4	6	2.8	1.8000000000000005	1	0	0.30000000000000004	0.7	6	4	1.8000000000000005	2.8	valid	0.36659492300168495	53248	0	1	1	53248	1	53248	1	51200	0	0.7	53248	turquoise	purple	0	4	ml	2.7.3	lorasick	sub-04_ses-02_task-ml_proj-lorasick_2020-11-17-14-02-44.442476
68	4	2	2	69	volatile	3	20	9	vs	purple	turquoise	turquoise	purple	right	left	0.7	0.30000000000000004	6	2	4.199999999999998	0.6000000000000001	0	1	0.30000000000000004	0.7	2	6	0.6000000000000001	4.199999999999998	invalid	1.0497311379986058	53248	0	1	1	53248	1	53248	1	53248	1	0.7	53248	turquoise	purple	1	0	ml	2.7.3	lorasick	sub-04_ses-02_task-ml_proj-lorasick_2020-11-17-14-02-44.442476
69	4	2	2	70	volatile	3	20	10	vs	turquoise	purple	turquoise	purple	left	right	0.7	0.30000000000000004	6	2	4.199999999999998	0.6000000000000001	1	0	0.7	0.30000000000000004	6	2	4.199999999999998	0.6000000000000001	valid	0.38323842599857016	51200	0	0	1	51200	1	51200	1	51200	1	0.7	51200	turquoise	purple	1	6	ml	2.7.3	lorasick	sub-04_ses-02_task-ml_proj-lorasick_2020-11-17-14-02-44.442476
70	4	2	2	71	volatile	3	20	11	vs	purple	turquoise	turquoise	purple	right	left	0.7	0.30000000000000004	6	2	4.199999999999998	0.6000000000000001	1	0	0.30000000000000004	0.7	2	6	0.6000000000000001	4.199999999999998	valid	0.3999160879975534	53248	0	1	1	53248	1	53248	1	53248	1	0.7	53248	turquoise	purple	1	6	ml	2.7.3	lorasick	sub-04_ses-02_task-ml_proj-lorasick_2020-11-17-14-02-44.442476
71	4	2	2	72	volatile	3	20	12	vs	purple	turquoise	turquoise	purple	right	left	0.7	0.30000000000000004	2	6	1.4	1.8000000000000005	1	0	0.30000000000000004	0.7	6	2	1.8000000000000005	1.4	valid	0.5665423440004815	53248	0	1	1	51200	0	53248	1	51200	0	0.7	53248	turquoise	purple	0	2	ml	2.7.3	lorasick	sub-04_ses-02_task-ml_proj-lorasick_2020-11-17-14-02-44.442476
72	4	2	2	73	volatile	3	20	13	vs	purple	turquoise	turquoise	purple	right	left	0.7	0.30000000000000004	10	2	7.0	0.6000000000000001	0	1	0.30000000000000004	0.7	2	10	0.6000000000000001	7.0	invalid	0.6331864200001291	53248	0	1	1	53248	1	53248	1	53248	1	0.7	53248	turquoise	purple	1	0	ml	2.7.3	lorasick	sub-04_ses-02_task-ml_proj-lorasick_2020-11-17-14-02-44.442476
73	4	2	2	74	volatile	3	20	14	vs	purple	turquoise	turquoise	purple	right	left	0.7	0.30000000000000004	4	6	2.8	1.8000000000000005	1	0	0.30000000000000004	0.7	6	4	1.8000000000000005	2.8	valid	0.3832563929972821	53248	0	1	1	53248	1	53248	1	51200	0	0.7	53248	turquoise	purple	0	4	ml	2.7.3	lorasick	sub-04_ses-02_task-ml_proj-lorasick_2020-11-17-14-02-44.442476
74	4	2	2	75	volatile	3	20	15	vs	purple	turquoise	turquoise	purple	right	left	0.7	0.30000000000000004	2	2	1.4	0.6000000000000001	1	0	0.30000000000000004	0.7	2	2	0.6000000000000001	1.4	valid	0.41657851399941137	53248	0	1	1	53248	1	53248	1	53248	1	0.7	53248	turquoise	purple	0	2	ml	2.7.3	lorasick	sub-04_ses-02_task-ml_proj-lorasick_2020-11-17-14-02-44.442476
75	4	2	2	76	volatile	3	20	16	vs	turquoise	purple	turquoise	purple	left	right	0.7	0.30000000000000004	4	6	2.8	1.8000000000000005	1	0	0.7	0.30000000000000004	4	6	2.8	1.8000000000000005	valid	0.7331465869974636	51200	0	0	1	51200	1	51200	1	53248	0	0.7	51200	turquoise	purple	0	4	ml	2.7.3	lorasick	sub-04_ses-02_task-ml_proj-lorasick_2020-11-17-14-02-44.442476
76	4	2	2	77	volatile	3	20	17	vs	purple	turquoise	turquoise	purple	right	left	0.7	0.30000000000000004	2	4	1.4	1.2000000000000002	1	0	0.30000000000000004	0.7	4	2	1.2000000000000002	1.4	valid	0.7664833339986217	53248	0	1	1	53248	1	53248	1	51200	0	0.7	53248	turquoise	purple	0	2	ml	2.7.3	lorasick	sub-04_ses-02_task-ml_proj-lorasick_2020-11-17-14-02-44.442476
77	4	2	2	78	volatile	3	20	18	vs	turquoise	purple	turquoise	purple	left	right	0.7	0.30000000000000004	2	4	1.4	1.2000000000000002	1	0	0.7	0.30000000000000004	2	4	1.4	1.2000000000000002	valid	1.1497024029995373	53248	0	1	2	51200	0	51200	0	53248	1	0.7	51200	turquoise	purple	0	0	ml	2.7.3	lorasick	sub-04_ses-02_task-ml_proj-lorasick_2020-11-17-14-02-44.442476
78	4	2	2	79	volatile	3	20	19	vs	turquoise	purple	turquoise	purple	left	right	0.7	0.30000000000000004	10	2	7.0	0.6000000000000001	1	0	0.7	0.30000000000000004	10	2	7.0	0.6000000000000001	valid	0.9830745529980051	51200	0	0	1	51200	1	51200	1	51200	1	0.7	51200	turquoise	purple	1	10	ml	2.7.3	lorasick	sub-04_ses-02_task-ml_proj-lorasick_2020-11-17-14-02-44.442476
79	4	2	2	80	volatile	3	20	20	vs	purple	turquoise	turquoise	purple	right	left	0.7	0.30000000000000004	2	4	1.4	1.2000000000000002	0	1	0.30000000000000004	0.7	4	2	1.2000000000000002	1.4	invalid	0.7164963590003026	53248	0	1	1	53248	1	53248	1	51200	0	0.7	53248	turquoise	purple	0	0	ml	2.7.3	lorasick	sub-04_ses-02_task-ml_proj-lorasick_2020-11-17-14-02-44.442476
80	4	2	2	81	volatile	4	40	1	vs	turquoise	purple	turquoise	purple	left	right	0.30000000000000004	0.7	2	6	0.6000000000000001	4.199999999999998	1	0	0.30000000000000004	0.7	2	6	0.6000000000000001	4.199999999999998	invalid	0.6665018130006501	51200	0	0	1	53248	0	53248	0	53248	0	0.7	53248	purple	turquoise	1	2	ml	2.7.3	lorasick	sub-04_ses-02_task-ml_proj-lorasick_2020-11-17-14-02-44.442476
81	4	2	2	82	volatile	4	40	2	vs	purple	turquoise	turquoise	purple	right	left	0.30000000000000004	0.7	6	6	1.8000000000000005	4.199999999999998	0	1	0.7	0.30000000000000004	6	6	4.199999999999998	1.8000000000000005	valid	1.4496185710013378	53248	0	1	1	51200	0	51200	0	53248	1	0.7	51200	purple	turquoise	1	0	ml	2.7.3	lorasick	sub-04_ses-02_task-ml_proj-lorasick_2020-11-17-14-02-44.442476
82	4	2	2	83	volatile	4	40	3	vs	turquoise	purple	turquoise	purple	left	right	0.30000000000000004	0.7	2	4	0.6000000000000001	2.8	1	0	0.30000000000000004	0.7	2	4	0.6000000000000001	2.8	invalid	0.9332850989994768	51200	0	0	1	53248	0	53248	0	53248	0	0.7	53248	purple	turquoise	1	2	ml	2.7.3	lorasick	sub-04_ses-02_task-ml_proj-lorasick_2020-11-17-14-02-44.442476
83	4	2	2	84	volatile	4	40	4	vs	turquoise	purple	turquoise	purple	left	right	0.30000000000000004	0.7	4	6	1.2000000000000002	4.199999999999998	0	1	0.30000000000000004	0.7	4	6	1.2000000000000002	4.199999999999998	valid	0.4665560989997175	51200	0	0	1	53248	0	53248	0	53248	0	0.7	53248	purple	turquoise	1	0	ml	2.7.3	lorasick	sub-04_ses-02_task-ml_proj-lorasick_2020-11-17-14-02-44.442476
84	4	2	2	85	volatile	4	40	5	vs	purple	turquoise	turquoise	purple	right	left	0.30000000000000004	0.7	4	6	1.2000000000000002	4.199999999999998	1	0	0.7	0.30000000000000004	6	4	4.199999999999998	1.2000000000000002	invalid	0.8664524839987281	53248	0	1	1	51200	0	51200	0	51200	0	0.7	51200	purple	turquoise	1	4	ml	2.7.3	lorasick	sub-04_ses-02_task-ml_proj-lorasick_2020-11-17-14-02-44.442476
85	4	2	2	86	volatile	4	40	6	vs	purple	turquoise	turquoise	purple	right	left	0.30000000000000004	0.7	6	2	1.8000000000000005	1.4	1	0	0.7	0.30000000000000004	2	6	1.4	1.8000000000000005	invalid	0.8497898360001273	53248	0	1	1	53248	1	51200	0	53248	1	0.7	51200	purple	turquoise	0	6	ml	2.7.3	lorasick	sub-04_ses-02_task-ml_proj-lorasick_2020-11-17-14-02-44.442476
86	4	2	2	87	volatile	4	40	7	vs	turquoise	purple	turquoise	purple	left	right	0.30000000000000004	0.7	2	4	0.6000000000000001	2.8	1	0	0.30000000000000004	0.7	2	4	0.6000000000000001	2.8	invalid	0.5332057870000426	51200	0	0	1	53248	0	53248	0	53248	0	0.7	53248	purple	turquoise	1	2	ml	2.7.3	lorasick	sub-04_ses-02_task-ml_proj-lorasick_2020-11-17-14-02-44.442476
87	4	2	2	88	volatile	4	40	8	vs	purple	turquoise	turquoise	purple	right	left	0.30000000000000004	0.7	6	4	1.8000000000000005	2.8	0	1	0.7	0.30000000000000004	4	6	2.8	1.8000000000000005	valid	0.4165828119985235	53248	0	1	1	51200	0	51200	0	53248	1	0.7	51200	purple	turquoise	0	0	ml	2.7.3	lorasick	sub-04_ses-02_task-ml_proj-lorasick_2020-11-17-14-02-44.442476
88	4	2	2	89	volatile	4	40	9	vs	turquoise	purple	turquoise	purple	left	right	0.30000000000000004	0.7	10	2	3.0000000000000004	1.4	0	1	0.30000000000000004	0.7	10	2	3.0000000000000004	1.4	valid	0.999736263998784	51200	0	0	1	51200	1	53248	0	51200	1	0.7	53248	purple	turquoise	0	0	ml	2.7.3	lorasick	sub-04_ses-02_task-ml_proj-lorasick_2020-11-17-14-02-44.442476
89	4	2	2	90	volatile	4	40	10	vs	turquoise	purple	turquoise	purple	left	right	0.30000000000000004	0.7	4	2	1.2000000000000002	1.4	0	1	0.30000000000000004	0.7	4	2	1.2000000000000002	1.4	valid	0.4832180070006871	51200	0	0	1	53248	0	53248	0	51200	1	0.7	53248	purple	turquoise	0	0	ml	2.7.3	lorasick	sub-04_ses-02_task-ml_proj-lorasick_2020-11-17-14-02-44.442476
90	4	2	2	91	volatile	4	40	11	vs	purple	turquoise	turquoise	purple	right	left	0.30000000000000004	0.7	6	4	1.8000000000000005	2.8	0	1	0.7	0.30000000000000004	4	6	2.8	1.8000000000000005	valid	0.6165148810032406	51200	0	0	2	51200	1	51200	1	53248	0	0.7	51200	purple	turquoise	0	4	ml	2.7.3	lorasick	sub-04_ses-02_task-ml_proj-lorasick_2020-11-17-14-02-44.442476
91	4	2	2	92	volatile	4	40	12	vs	turquoise	purple	turquoise	purple	left	right	0.30000000000000004	0.7	2	10	0.6000000000000001	7.0	0	1	0.30000000000000004	0.7	2	10	0.6000000000000001	7.0	valid	0.6331806700000016	53248	0	1	2	53248	1	53248	1	53248	1	0.7	53248	purple	turquoise	1	10	ml	2.7.3	lorasick	sub-04_ses-02_task-ml_proj-lorasick_2020-11-17-14-02-44.442476
92	4	2	2	93	volatile	4	40	13	vs	purple	turquoise	turquoise	purple	right	left	0.30000000000000004	0.7	2	6	0.6000000000000001	4.199999999999998	0	1	0.7	0.30000000000000004	6	2	4.199999999999998	0.6000000000000001	valid	0.44991881500027375	51200	0	0	2	51200	1	51200	1	51200	1	0.7	51200	purple	turquoise	1	6	ml	2.7.3	lorasick	sub-04_ses-02_task-ml_proj-lorasick_2020-11-17-14-02-44.442476
93	4	2	2	94	volatile	4	40	14	vs	turquoise	purple	turquoise	purple	left	right	0.30000000000000004	0.7	10	2	3.0000000000000004	1.4	0	1	0.30000000000000004	0.7	10	2	3.0000000000000004	1.4	valid	0.6165250490012113	53248	0	1	2	51200	0	53248	1	51200	0	0.7	53248	purple	turquoise	0	2	ml	2.7.3	lorasick	sub-04_ses-02_task-ml_proj-lorasick_2020-11-17-14-02-44.442476
94	4	2	2	95	volatile	4	40	15	vs	turquoise	purple	turquoise	purple	left	right	0.30000000000000004	0.7	2	4	0.6000000000000001	2.8	0	1	0.30000000000000004	0.7	2	4	0.6000000000000001	2.8	valid	0.4165902699969593	53248	0	1	2	53248	1	53248	1	53248	1	0.7	53248	purple	turquoise	1	4	ml	2.7.3	lorasick	sub-04_ses-02_task-ml_proj-lorasick_2020-11-17-14-02-44.442476
95	4	2	2	96	volatile	4	40	16	vs	purple	turquoise	turquoise	purple	right	left	0.30000000000000004	0.7	2	2	0.6000000000000001	1.4	0	1	0.7	0.30000000000000004	2	2	1.4	0.6000000000000001	valid	0.7498083659993426	51200	0	0	2	51200	1	51200	1	53248	0	0.7	51200	purple	turquoise	1	2	ml	2.7.3	lorasick	sub-04_ses-02_task-ml_proj-lorasick_2020-11-17-14-02-44.442476
96	4	2	2	97	volatile	4	40	17	vs	purple	turquoise	turquoise	purple	right	left	0.30000000000000004	0.7	2	2	0.6000000000000001	1.4	0	1	0.7	0.30000000000000004	2	2	1.4	0.6000000000000001	valid	0.6498537110019242	51200	0	0	2	51200	1	51200	1	53248	0	0.7	51200	purple	turquoise	1	2	ml	2.7.3	lorasick	sub-04_ses-02_task-ml_proj-lorasick_2020-11-17-14-02-44.442476
97	4	2	2	98	volatile	4	40	18	vs	purple	turquoise	turquoise	purple	right	left	0.30000000000000004	0.7	6	6	1.8000000000000005	4.199999999999998	1	0	0.7	0.30000000000000004	6	6	4.199999999999998	1.8000000000000005	invalid	0.3665872249985114	51200	0	0	2	51200	1	51200	1	53248	0	0.7	51200	purple	turquoise	1	0	ml	2.7.3	lorasick	sub-04_ses-02_task-ml_proj-lorasick_2020-11-17-14-02-44.442476
98	4	2	2	99	volatile	4	40	19	vs	turquoise	purple	turquoise	purple	left	right	0.30000000000000004	0.7	2	4	0.6000000000000001	2.8	0	1	0.30000000000000004	0.7	2	4	0.6000000000000001	2.8	valid	0.6831648789993778	53248	0	1	2	53248	1	53248	1	53248	1	0.7	53248	purple	turquoise	1	4	ml	2.7.3	lorasick	sub-04_ses-02_task-ml_proj-lorasick_2020-11-17-14-02-44.442476
99	4	2	2	100	volatile	4	40	20	vs	purple	turquoise	turquoise	purple	right	left	0.30000000000000004	0.7	6	6	1.8000000000000005	4.199999999999998	0	1	0.7	0.30000000000000004	6	6	4.199999999999998	1.8000000000000005	valid	0.416571293000743	51200	0	0	2	51200	1	51200	1	53248	0	0.7	51200	purple	turquoise	1	6	ml	2.7.3	lorasick	sub-04_ses-02_task-ml_proj-lorasick_2020-11-17-14-02-44.442476
100	4	2	3	101	volatile	4	40	21	vs	purple	turquoise	turquoise	purple	right	left	0.30000000000000004	0.7	10	2	3.0000000000000004	1.4	0	1	0.7	0.30000000000000004	2	10	1.4	3.0000000000000004	valid	0.8331297369986714	53248	0	1	1	53248	1	51200	0	53248	1	0.7	51200	purple	turquoise	0	0	ml	2.7.3	lorasick	sub-04_ses-02_task-ml_proj-lorasick_2020-11-17-14-02-44.442476
101	4	2	3	102	volatile	4	40	22	vs	purple	turquoise	turquoise	purple	right	left	0.30000000000000004	0.7	2	10	0.6000000000000001	7.0	1	0	0.7	0.30000000000000004	10	2	7.0	0.6000000000000001	invalid	0.8664407390024279	51200	0	0	2	51200	1	51200	1	51200	1	0.7	51200	purple	turquoise	1	0	ml	2.7.3	lorasick	sub-04_ses-02_task-ml_proj-lorasick_2020-11-17-14-02-44.442476
102	4	2	3	103	volatile	4	40	23	vs	purple	turquoise	turquoise	purple	right	left	0.30000000000000004	0.7	2	2	0.6000000000000001	1.4	0	1	0.7	0.30000000000000004	2	2	1.4	0.6000000000000001	valid	1.1996808600015356	51200	0	0	2	51200	1	51200	1	53248	0	0.7	51200	purple	turquoise	1	2	ml	2.7.3	lorasick	sub-04_ses-02_task-ml_proj-lorasick_2020-11-17-14-02-44.442476
103	4	2	3	104	volatile	4	40	24	vs	turquoise	purple	turquoise	purple	left	right	0.30000000000000004	0.7	6	2	1.8000000000000005	1.4	0	1	0.30000000000000004	0.7	6	2	1.8000000000000005	1.4	valid	0.6165263719994982	53248	0	1	2	51200	0	53248	1	51200	0	0.7	53248	purple	turquoise	0	2	ml	2.7.3	lorasick	sub-04_ses-02_task-ml_proj-lorasick_2020-11-17-14-02-44.442476
104	4	2	3	105	volatile	4	40	25	vs	purple	turquoise	turquoise	purple	right	left	0.30000000000000004	0.7	2	4	0.6000000000000001	2.8	0	1	0.7	0.30000000000000004	4	2	2.8	0.6000000000000001	valid	0.4832174859984662	51200	0	0	2	51200	1	51200	1	51200	1	0.7	51200	purple	turquoise	1	4	ml	2.7.3	lorasick	sub-04_ses-02_task-ml_proj-lorasick_2020-11-17-14-02-44.442476
105	4	2	3	106	volatile	4	40	26	vs	turquoise	purple	turquoise	purple	left	right	0.30000000000000004	0.7	6	4	1.8000000000000005	2.8	0	1	0.30000000000000004	0.7	6	4	1.8000000000000005	2.8	valid	0.5165526869968744	53248	0	1	2	53248	1	53248	1	51200	0	0.7	53248	purple	turquoise	0	4	ml	2.7.3	lorasick	sub-04_ses-02_task-ml_proj-lorasick_2020-11-17-14-02-44.442476
106	4	2	3	107	volatile	4	40	27	vs	purple	turquoise	turquoise	purple	right	left	0.30000000000000004	0.7	4	6	1.2000000000000002	4.199999999999998	0	1	0.7	0.30000000000000004	6	4	4.199999999999998	1.2000000000000002	valid	0.4498952549984097	51200	0	0	2	51200	1	51200	1	51200	1	0.7	51200	purple	turquoise	1	6	ml	2.7.3	lorasick	sub-04_ses-02_task-ml_proj-lorasick_2020-11-17-14-02-44.442476
107	4	2	3	108	volatile	4	40	28	vs	turquoise	purple	turquoise	purple	left	right	0.30000000000000004	0.7	6	2	1.8000000000000005	1.4	1	0	0.30000000000000004	0.7	6	2	1.8000000000000005	1.4	invalid	0.5832087810013036	53248	0	1	2	51200	0	53248	1	51200	0	0.7	53248	purple	turquoise	0	0	ml	2.7.3	lorasick	sub-04_ses-02_task-ml_proj-lorasick_2020-11-17-14-02-44.442476
108	4	2	3	109	volatile	4	40	29	vs	turquoise	purple	turquoise	purple	left	right	0.30000000000000004	0.7	6	4	1.8000000000000005	2.8	0	1	0.30000000000000004	0.7	6	4	1.8000000000000005	2.8	valid	0.4998914339994371	53248	0	1	2	53248	1	53248	1	51200	0	0.7	53248	purple	turquoise	0	4	ml	2.7.3	lorasick	sub-04_ses-02_task-ml_proj-lorasick_2020-11-17-14-02-44.442476
109	4	2	3	110	volatile	4	40	30	vs	turquoise	purple	turquoise	purple	left	right	0.30000000000000004	0.7	2	10	0.6000000000000001	7.0	1	0	0.30000000000000004	0.7	2	10	0.6000000000000001	7.0	invalid	0.8497887379999156	53248	0	1	2	53248	1	53248	1	53248	1	0.7	53248	purple	turquoise	1	0	ml	2.7.3	lorasick	sub-04_ses-02_task-ml_proj-lorasick_2020-11-17-14-02-44.442476
110	4	2	3	111	volatile	4	40	31	vs	purple	turquoise	turquoise	purple	right	left	0.30000000000000004	0.7	6	2	1.8000000000000005	1.4	0	1	0.7	0.30000000000000004	2	6	1.4	1.8000000000000005	valid	0.4665585250004369	51200	0	0	2	53248	0	51200	1	53248	0	0.7	51200	purple	turquoise	0	2	ml	2.7.3	lorasick	sub-04_ses-02_task-ml_proj-lorasick_2020-11-17-14-02-44.442476
111	4	2	3	112	volatile	4	40	32	vs	purple	turquoise	turquoise	purple	right	left	0.30000000000000004	0.7	2	10	0.6000000000000001	7.0	1	0	0.7	0.30000000000000004	10	2	7.0	0.6000000000000001	invalid	0.5498677979994682	51200	0	0	2	51200	1	51200	1	51200	1	0.7	51200	purple	turquoise	1	0	ml	2.7.3	lorasick	sub-04_ses-02_task-ml_proj-lorasick_2020-11-17-14-02-44.442476
112	4	2	3	113	volatile	4	40	33	vs	turquoise	purple	turquoise	purple	left	right	0.30000000000000004	0.7	4	6	1.2000000000000002	4.199999999999998	0	1	0.30000000000000004	0.7	4	6	1.2000000000000002	4.199999999999998	valid	0.7998030280032253	53248	0	1	2	53248	1	53248	1	53248	1	0.7	53248	purple	turquoise	1	6	ml	2.7.3	lorasick	sub-04_ses-02_task-ml_proj-lorasick_2020-11-17-14-02-44.442476
113	4	2	3	114	volatile	4	40	34	vs	turquoise	purple	turquoise	purple	left	right	0.30000000000000004	0.7	6	6	1.8000000000000005	4.199999999999998	0	1	0.30000000000000004	0.7	6	6	1.8000000000000005	4.199999999999998	valid	0.6331863689993042	53248	0	1	2	53248	1	53248	1	53248	1	0.7	53248	purple	turquoise	0	6	ml	2.7.3	lorasick	sub-04_ses-02_task-ml_proj-lorasick_2020-11-17-14-02-44.442476
114	4	2	3	115	volatile	4	40	35	vs	turquoise	purple	turquoise	purple	left	right	0.30000000000000004	0.7	2	6	0.6000000000000001	4.199999999999998	0	1	0.30000000000000004	0.7	2	6	0.6000000000000001	4.199999999999998	valid	0.8164665510012128	53248	0	1	2	53248	1	53248	1	53248	1	0.7	53248	purple	turquoise	1	6	ml	2.7.3	lorasick	sub-04_ses-02_task-ml_proj-lorasick_2020-11-17-14-02-44.442476
115	4	2	3	116	volatile	4	40	36	vs	purple	turquoise	turquoise	purple	right	left	0.30000000000000004	0.7	2	6	0.6000000000000001	4.199999999999998	0	1	0.7	0.30000000000000004	6	2	4.199999999999998	0.6000000000000001	valid	0.4998813470010646	51200	0	0	2	51200	1	51200	1	51200	1	0.7	51200	purple	turquoise	1	6	ml	2.7.3	lorasick	sub-04_ses-02_task-ml_proj-lorasick_2020-11-17-14-02-44.442476
116	4	2	3	117	volatile	4	40	37	vs	turquoise	purple	turquoise	purple	left	right	0.30000000000000004	0.7	4	2	1.2000000000000002	1.4	1	0	0.30000000000000004	0.7	4	2	1.2000000000000002	1.4	invalid	0.6665107240005455	53248	0	1	2	53248	1	53248	1	51200	0	0.7	53248	purple	turquoise	0	0	ml	2.7.3	lorasick	sub-04_ses-02_task-ml_proj-lorasick_2020-11-17-14-02-44.442476
117	4	2	3	118	volatile	4	40	38	vs	turquoise	purple	turquoise	purple	left	right	0.30000000000000004	0.7	2	10	0.6000000000000001	7.0	0	1	0.30000000000000004	0.7	2	10	0.6000000000000001	7.0	valid	1.1497030350001296	53248	0	1	2	53248	1	53248	1	53248	1	0.7	53248	purple	turquoise	1	10	ml	2.7.3	lorasick	sub-04_ses-02_task-ml_proj-lorasick_2020-11-17-14-02-44.442476
118	4	2	3	119	volatile	4	40	39	vs	purple	turquoise	turquoise	purple	right	left	0.30000000000000004	0.7	2	4	0.6000000000000001	2.8	0	1	0.7	0.30000000000000004	4	2	2.8	0.6000000000000001	valid	0.58319007099999	51200	0	0	2	51200	1	51200	1	51200	1	0.7	51200	purple	turquoise	1	4	ml	2.7.3	lorasick	sub-04_ses-02_task-ml_proj-lorasick_2020-11-17-14-02-44.442476
119	4	2	3	120	volatile	4	40	40	vs	purple	turquoise	turquoise	purple	right	left	0.30000000000000004	0.7	2	2	0.6000000000000001	1.4	1	0	0.7	0.30000000000000004	2	2	1.4	0.6000000000000001	invalid	0.4498912990020472	51200	0	0	2	51200	1	51200	1	53248	0	0.7	51200	purple	turquoise	1	0	ml	2.7.3	lorasick	sub-04_ses-02_task-ml_proj-lorasick_2020-11-17-14-02-44.442476
120	4	2	3	121	volatile	5	20	1	vs	purple	turquoise	turquoise	purple	right	left	0.7	0.30000000000000004	6	4	4.199999999999998	1.2000000000000002	1	0	0.30000000000000004	0.7	4	6	1.2000000000000002	4.199999999999998	valid	0.33326147700063297	51200	0	0	2	53248	0	53248	0	53248	0	0.7	53248	turquoise	purple	1	0	ml	2.7.3	lorasick	sub-04_ses-02_task-ml_proj-lorasick_2020-11-17-14-02-44.442476
121	4	2	3	122	volatile	5	20	2	vs	turquoise	purple	turquoise	purple	left	right	0.7	0.30000000000000004	2	6	1.4	1.8000000000000005	1	0	0.7	0.30000000000000004	2	6	1.4	1.8000000000000005	valid	0.4332427660010581	53248	0	1	2	53248	1	51200	0	53248	1	0.7	51200	turquoise	purple	0	0	ml	2.7.3	lorasick	sub-04_ses-02_task-ml_proj-lorasick_2020-11-17-14-02-44.442476
122	4	2	3	123	volatile	5	20	3	vs	purple	turquoise	turquoise	purple	right	left	0.7	0.30000000000000004	2	10	1.4	3.0000000000000004	1	0	0.30000000000000004	0.7	10	2	3.0000000000000004	1.4	valid	1.7162081210008182	53248	0	1	1	51200	0	53248	1	51200	0	0.7	53248	turquoise	purple	0	2	ml	2.7.3	lorasick	sub-04_ses-02_task-ml_proj-lorasick_2020-11-17-14-02-44.442476
123	4	2	3	124	volatile	5	20	4	vs	turquoise	purple	turquoise	purple	left	right	0.7	0.30000000000000004	2	2	1.4	0.6000000000000001	1	0	0.7	0.30000000000000004	2	2	1.4	0.6000000000000001	valid	0.4332309279998299	51200	0	0	1	51200	1	51200	1	53248	0	0.7	51200	turquoise	purple	1	2	ml	2.7.3	lorasick	sub-04_ses-02_task-ml_proj-lorasick_2020-11-17-14-02-44.442476
124	4	2	3	125	volatile	5	20	5	vs	purple	turquoise	turquoise	purple	right	left	0.7	0.30000000000000004	2	10	1.4	3.0000000000000004	1	0	0.30000000000000004	0.7	10	2	3.0000000000000004	1.4	valid	0.6165244910007459	53248	0	1	1	51200	0	53248	1	51200	0	0.7	53248	turquoise	purple	0	2	ml	2.7.3	lorasick	sub-04_ses-02_task-ml_proj-lorasick_2020-11-17-14-02-44.442476
125	4	2	3	126	volatile	5	20	6	vs	turquoise	purple	turquoise	purple	left	right	0.7	0.30000000000000004	6	6	4.199999999999998	1.8000000000000005	0	1	0.7	0.30000000000000004	6	6	4.199999999999998	1.8000000000000005	invalid	0.4498941210003977	51200	0	0	1	51200	1	51200	1	53248	0	0.7	51200	turquoise	purple	1	0	ml	2.7.3	lorasick	sub-04_ses-02_task-ml_proj-lorasick_2020-11-17-14-02-44.442476
126	4	2	3	127	volatile	5	20	7	vs	purple	turquoise	turquoise	purple	right	left	0.7	0.30000000000000004	4	6	2.8	1.8000000000000005	1	0	0.30000000000000004	0.7	6	4	1.8000000000000005	2.8	valid	0.3665948730013042	53248	0	1	1	53248	1	53248	1	51200	0	0.7	53248	turquoise	purple	0	4	ml	2.7.3	lorasick	sub-04_ses-02_task-ml_proj-lorasick_2020-11-17-14-02-44.442476
127	4	2	3	128	volatile	5	20	8	vs	turquoise	purple	turquoise	purple	left	right	0.7	0.30000000000000004	6	2	4.199999999999998	0.6000000000000001	1	0	0.7	0.30000000000000004	6	2	4.199999999999998	0.6000000000000001	valid	0.3999089360004291	51200	0	0	1	51200	1	51200	1	51200	1	0.7	51200	turquoise	purple	1	6	ml	2.7.3	lorasick	sub-04_ses-02_task-ml_proj-lorasick_2020-11-17-14-02-44.442476
128	4	2	3	129	volatile	5	20	9	vs	purple	turquoise	turquoise	purple	right	left	0.7	0.30000000000000004	6	6	4.199999999999998	1.8000000000000005	0	1	0.30000000000000004	0.7	6	6	1.8000000000000005	4.199999999999998	invalid	0.7331604669998342	53248	0	1	1	53248	1	53248	1	53248	1	0.7	53248	turquoise	purple	0	0	ml	2.7.3	lorasick	sub-04_ses-02_task-ml_proj-lorasick_2020-11-17-14-02-44.442476
129	4	2	3	130	volatile	5	20	10	vs	purple	turquoise	turquoise	purple	right	left	0.7	0.30000000000000004	4	2	2.8	0.6000000000000001	0	1	0.30000000000000004	0.7	2	4	0.6000000000000001	2.8	invalid	0.6665103449995513	53248	0	1	1	53248	1	53248	1	53248	1	0.7	53248	turquoise	purple	1	0	ml	2.7.3	lorasick	sub-04_ses-02_task-ml_proj-lorasick_2020-11-17-14-02-44.442476
130	4	2	3	131	volatile	5	20	11	vs	purple	turquoise	turquoise	purple	right	left	0.7	0.30000000000000004	2	6	1.4	1.8000000000000005	1	0	0.30000000000000004	0.7	6	2	1.8000000000000005	1.4	valid	0.4498953360016458	51200	0	0	2	51200	1	53248	0	51200	1	0.7	53248	turquoise	purple	0	0	ml	2.7.3	lorasick	sub-04_ses-02_task-ml_proj-lorasick_2020-11-17-14-02-44.442476
131	4	2	3	132	volatile	5	20	12	vs	purple	turquoise	turquoise	purple	right	left	0.7	0.30000000000000004	4	6	2.8	1.8000000000000005	0	1	0.30000000000000004	0.7	6	4	1.8000000000000005	2.8	invalid	1.0163904340006409	51200	0	0	2	53248	0	53248	0	51200	1	0.7	53248	turquoise	purple	0	6	ml	2.7.3	lorasick	sub-04_ses-02_task-ml_proj-lorasick_2020-11-17-14-02-44.442476
132	4	2	3	133	volatile	5	20	13	vs	turquoise	purple	turquoise	purple	left	right	0.7	0.30000000000000004	2	2	1.4	0.6000000000000001	1	0	0.7	0.30000000000000004	2	2	1.4	0.6000000000000001	valid	0.6998359999997774	53248	0	1	2	51200	0	51200	0	53248	1	0.7	51200	turquoise	purple	1	0	ml	2.7.3	lorasick	sub-04_ses-02_task-ml_proj-lorasick_2020-11-17-14-02-44.442476
133	4	2	3	134	volatile	5	20	14	vs	turquoise	purple	turquoise	purple	left	right	0.7	0.30000000000000004	2	10	1.4	3.0000000000000004	1	0	0.7	0.30000000000000004	2	10	1.4	3.0000000000000004	valid	1.2830036919986014	53248	0	1	2	53248	1	51200	0	53248	1	0.7	51200	turquoise	purple	0	0	ml	2.7.3	lorasick	sub-04_ses-02_task-ml_proj-lorasick_2020-11-17-14-02-44.442476
134	4	2	3	135	volatile	5	20	15	vs	purple	turquoise	turquoise	purple	right	left	0.7	0.30000000000000004	6	2	4.199999999999998	0.6000000000000001	1	0	0.30000000000000004	0.7	2	6	0.6000000000000001	4.199999999999998	valid	1.4329533960008118	53248	0	1	1	53248	1	53248	1	53248	1	0.7	53248	turquoise	purple	1	6	ml	2.7.3	lorasick	sub-04_ses-02_task-ml_proj-lorasick_2020-11-17-14-02-44.442476
135	4	2	3	136	volatile	5	20	16	vs	turquoise	purple	turquoise	purple	left	right	0.7	0.30000000000000004	4	6	2.8	1.8000000000000005	1	0	0.7	0.30000000000000004	4	6	2.8	1.8000000000000005	valid	0.5665310650001629	51200	0	0	1	51200	1	51200	1	53248	0	0.7	51200	turquoise	purple	0	4	ml	2.7.3	lorasick	sub-04_ses-02_task-ml_proj-lorasick_2020-11-17-14-02-44.442476
136	4	2	3	137	volatile	5	20	17	vs	purple	turquoise	turquoise	purple	right	left	0.7	0.30000000000000004	2	4	1.4	1.2000000000000002	1	0	0.30000000000000004	0.7	4	2	1.2000000000000002	1.4	valid	0.4998930399997335	53248	0	1	1	53248	1	53248	1	51200	0	0.7	53248	turquoise	purple	0	2	ml	2.7.3	lorasick	sub-04_ses-02_task-ml_proj-lorasick_2020-11-17-14-02-44.442476
137	4	2	3	138	volatile	5	20	18	vs	turquoise	purple	turquoise	purple	left	right	0.7	0.30000000000000004	2	4	1.4	1.2000000000000002	1	0	0.7	0.30000000000000004	2	4	1.4	1.2000000000000002	valid	0.4832278260000749	51200	0	0	1	51200	1	51200	1	53248	0	0.7	51200	turquoise	purple	0	2	ml	2.7.3	lorasick	sub-04_ses-02_task-ml_proj-lorasick_2020-11-17-14-02-44.442476
138	4	2	3	139	volatile	5	20	19	vs	turquoise	purple	turquoise	purple	left	right	0.7	0.30000000000000004	4	2	2.8	0.6000000000000001	0	1	0.7	0.30000000000000004	4	2	2.8	0.6000000000000001	invalid	0.3998961329998565	51200	0	0	1	51200	1	51200	1	51200	1	0.7	51200	turquoise	purple	1	0	ml	2.7.3	lorasick	sub-04_ses-02_task-ml_proj-lorasick_2020-11-17-14-02-44.442476
139	4	2	3	140	volatile	5	20	20	vs	turquoise	purple	turquoise	purple	left	right	0.7	0.30000000000000004	2	10	1.4	3.0000000000000004	0	1	0.7	0.30000000000000004	2	10	1.4	3.0000000000000004	invalid	0.4498955759991077	51200	0	0	1	53248	0	51200	1	53248	0	0.7	51200	turquoise	purple	0	0	ml	2.7.3	lorasick	sub-04_ses-02_task-ml_proj-lorasick_2020-11-17-14-02-44.442476
140	4	2	3	141	volatile	6	40	1	vs	turquoise	purple	turquoise	purple	left	right	0.30000000000000004	0.7	6	6	1.8000000000000005	4.199999999999998	0	1	0.30000000000000004	0.7	6	6	1.8000000000000005	4.199999999999998	valid	0.4998938699973223	53248	0	1	2	53248	1	53248	1	53248	1	0.7	53248	purple	turquoise	0	6	ml	2.7.3	lorasick	sub-04_ses-02_task-ml_proj-lorasick_2020-11-17-14-02-44.442476
141	4	2	3	142	volatile	6	40	2	vs	turquoise	purple	turquoise	purple	left	right	0.30000000000000004	0.7	2	10	0.6000000000000001	7.0	1	0	0.30000000000000004	0.7	2	10	0.6000000000000001	7.0	invalid	0.3999181359977229	53248	0	1	2	53248	1	53248	1	53248	1	0.7	53248	purple	turquoise	1	0	ml	2.7.3	lorasick	sub-04_ses-02_task-ml_proj-lorasick_2020-11-17-14-02-44.442476
142	4	2	3	143	volatile	6	40	3	vs	purple	turquoise	turquoise	purple	right	left	0.30000000000000004	0.7	2	2	0.6000000000000001	1.4	0	1	0.7	0.30000000000000004	2	2	1.4	0.6000000000000001	valid	0.4332359530017129	51200	0	0	2	51200	1	51200	1	53248	0	0.7	51200	purple	turquoise	1	2	ml	2.7.3	lorasick	sub-04_ses-02_task-ml_proj-lorasick_2020-11-17-14-02-44.442476
143	4	2	3	144	volatile	6	40	4	vs	purple	turquoise	turquoise	purple	right	left	0.30000000000000004	0.7	10	2	3.0000000000000004	1.4	1	0	0.7	0.30000000000000004	2	10	1.4	3.0000000000000004	invalid	0.36659552800119855	51200	0	0	2	53248	0	51200	1	53248	0	0.7	51200	purple	turquoise	0	0	ml	2.7.3	lorasick	sub-04_ses-02_task-ml_proj-lorasick_2020-11-17-14-02-44.442476
144	4	2	3	145	volatile	6	40	5	vs	turquoise	purple	turquoise	purple	left	right	0.30000000000000004	0.7	6	4	1.8000000000000005	2.8	1	0	0.30000000000000004	0.7	6	4	1.8000000000000005	2.8	invalid	0.7331545300003199	51200	0	0	1	53248	0	53248	0	51200	1	0.7	53248	purple	turquoise	0	6	ml	2.7.3	lorasick	sub-04_ses-02_task-ml_proj-lorasick_2020-11-17-14-02-44.442476
145	4	2	3	146	volatile	6	40	6	vs	purple	turquoise	turquoise	purple	right	left	0.30000000000000004	0.7	2	10	0.6000000000000001	7.0	0	1	0.7	0.30000000000000004	10	2	7.0	0.6000000000000001	valid	1.0163970749999862	53248	0	1	1	51200	0	51200	0	51200	0	0.7	51200	purple	turquoise	1	0	ml	2.7.3	lorasick	sub-04_ses-02_task-ml_proj-lorasick_2020-11-17-14-02-44.442476
146	4	2	3	147	volatile	6	40	7	vs	turquoise	purple	turquoise	purple	left	right	0.30000000000000004	0.7	6	2	1.8000000000000005	1.4	0	1	0.30000000000000004	0.7	6	2	1.8000000000000005	1.4	valid	0.6331827950016304	51200	0	0	1	51200	1	53248	0	51200	1	0.7	53248	purple	turquoise	0	0	ml	2.7.3	lorasick	sub-04_ses-02_task-ml_proj-lorasick_2020-11-17-14-02-44.442476
147	4	2	3	148	volatile	6	40	8	vs	turquoise	purple	turquoise	purple	left	right	0.30000000000000004	0.7	4	6	1.2000000000000002	4.199999999999998	0	1	0.30000000000000004	0.7	4	6	1.2000000000000002	4.199999999999998	valid	0.7331569179987127	53248	0	1	2	53248	1	53248	1	53248	1	0.7	53248	purple	turquoise	1	6	ml	2.7.3	lorasick	sub-04_ses-02_task-ml_proj-lorasick_2020-11-17-14-02-44.442476
148	4	2	3	149	volatile	6	40	9	vs	purple	turquoise	turquoise	purple	right	left	0.30000000000000004	0.7	6	4	1.8000000000000005	2.8	0	1	0.7	0.30000000000000004	4	6	2.8	1.8000000000000005	valid	0.4665580920009234	51200	0	0	2	51200	1	51200	1	53248	0	0.7	51200	purple	turquoise	0	4	ml	2.7.3	lorasick	sub-04_ses-02_task-ml_proj-lorasick_2020-11-17-14-02-44.442476
149	4	2	3	150	volatile	6	40	10	vs	purple	turquoise	turquoise	purple	right	left	0.30000000000000004	0.7	2	10	0.6000000000000001	7.0	0	1	0.7	0.30000000000000004	10	2	7.0	0.6000000000000001	valid	0.5831917069990595	51200	0	0	2	51200	1	51200	1	51200	1	0.7	51200	purple	turquoise	1	10	ml	2.7.3	lorasick	sub-04_ses-02_task-ml_proj-lorasick_2020-11-17-14-02-44.442476
150	4	2	4	151	volatile	6	40	11	vs	purple	turquoise	turquoise	purple	right	left	0.30000000000000004	0.7	2	2	0.6000000000000001	1.4	0	1	0.7	0.30000000000000004	2	2	1.4	0.6000000000000001	valid	0.9497500229990692	51200	0	0	2	51200	1	51200	1	53248	0	0.7	51200	purple	turquoise	1	2	ml	2.7.3	lorasick	sub-04_ses-02_task-ml_proj-lorasick_2020-11-17-14-02-44.442476
151	4	2	4	152	volatile	6	40	12	vs	turquoise	purple	turquoise	purple	left	right	0.30000000000000004	0.7	2	6	0.6000000000000001	4.199999999999998	0	1	0.30000000000000004	0.7	2	6	0.6000000000000001	4.199999999999998	valid	0.5998616999968363	53248	0	1	2	53248	1	53248	1	53248	1	0.7	53248	purple	turquoise	1	6	ml	2.7.3	lorasick	sub-04_ses-02_task-ml_proj-lorasick_2020-11-17-14-02-44.442476
152	4	2	4	153	volatile	6	40	13	vs	purple	turquoise	turquoise	purple	right	left	0.30000000000000004	0.7	2	4	0.6000000000000001	2.8	0	1	0.7	0.30000000000000004	4	2	2.8	0.6000000000000001	valid	0.4498938139986421	51200	0	0	2	51200	1	51200	1	51200	1	0.7	51200	purple	turquoise	1	4	ml	2.7.3	lorasick	sub-04_ses-02_task-ml_proj-lorasick_2020-11-17-14-02-44.442476
153	4	2	4	154	volatile	6	40	14	vs	purple	turquoise	turquoise	purple	right	left	0.30000000000000004	0.7	2	4	0.6000000000000001	2.8	0	1	0.7	0.30000000000000004	4	2	2.8	0.6000000000000001	valid	0.4165710730012506	51200	0	0	2	51200	1	51200	1	51200	1	0.7	51200	purple	turquoise	1	4	ml	2.7.3	lorasick	sub-04_ses-02_task-ml_proj-lorasick_2020-11-17-14-02-44.442476
154	4	2	4	155	volatile	6	40	15	vs	purple	turquoise	turquoise	purple	right	left	0.30000000000000004	0.7	2	2	0.6000000000000001	1.4	0	1	0.7	0.30000000000000004	2	2	1.4	0.6000000000000001	valid	0.5165385749969573	51200	0	0	2	51200	1	51200	1	53248	0	0.7	51200	purple	turquoise	1	2	ml	2.7.3	lorasick	sub-04_ses-02_task-ml_proj-lorasick_2020-11-17-14-02-44.442476
155	4	2	4	156	volatile	6	40	16	vs	turquoise	purple	turquoise	purple	left	right	0.30000000000000004	0.7	2	6	0.6000000000000001	4.199999999999998	0	1	0.30000000000000004	0.7	2	6	0.6000000000000001	4.199999999999998	valid	0.5332162440026877	53248	0	1	2	53248	1	53248	1	53248	1	0.7	53248	purple	turquoise	1	6	ml	2.7.3	lorasick	sub-04_ses-02_task-ml_proj-lorasick_2020-11-17-14-02-44.442476
156	4	2	4	157	volatile	6	40	17	vs	turquoise	purple	turquoise	purple	left	right	0.30000000000000004	0.7	10	2	3.0000000000000004	1.4	0	1	0.30000000000000004	0.7	10	2	3.0000000000000004	1.4	valid	0.7164963650029677	53248	0	1	2	51200	0	53248	1	51200	0	0.7	53248	purple	turquoise	0	2	ml	2.7.3	lorasick	sub-04_ses-02_task-ml_proj-lorasick_2020-11-17-14-02-44.442476
157	4	2	4	158	volatile	6	40	18	vs	purple	turquoise	turquoise	purple	right	left	0.30000000000000004	0.7	6	6	1.8000000000000005	4.199999999999998	1	0	0.7	0.30000000000000004	6	6	4.199999999999998	1.8000000000000005	invalid	0.6831621119999909	51200	0	0	2	51200	1	51200	1	53248	0	0.7	51200	purple	turquoise	1	0	ml	2.7.3	lorasick	sub-04_ses-02_task-ml_proj-lorasick_2020-11-17-14-02-44.442476
158	4	2	4	159	volatile	6	40	19	vs	turquoise	purple	turquoise	purple	left	right	0.30000000000000004	0.7	6	6	1.8000000000000005	4.199999999999998	1	0	0.30000000000000004	0.7	6	6	1.8000000000000005	4.199999999999998	invalid	0.4499143160028325	53248	0	1	2	53248	1	53248	1	53248	1	0.7	53248	purple	turquoise	0	0	ml	2.7.3	lorasick	sub-04_ses-02_task-ml_proj-lorasick_2020-11-17-14-02-44.442476
159	4	2	4	160	volatile	6	40	20	vs	turquoise	purple	turquoise	purple	left	right	0.30000000000000004	0.7	6	6	1.8000000000000005	4.199999999999998	0	1	0.30000000000000004	0.7	6	6	1.8000000000000005	4.199999999999998	valid	0.4499044659969513	51200	0	0	1	53248	0	53248	0	53248	0	0.7	53248	purple	turquoise	0	0	ml	2.7.3	lorasick	sub-04_ses-02_task-ml_proj-lorasick_2020-11-17-14-02-44.442476
160	4	2	4	161	volatile	6	40	21	vs	purple	turquoise	turquoise	purple	right	left	0.30000000000000004	0.7	6	2	1.8000000000000005	1.4	0	1	0.7	0.30000000000000004	2	6	1.4	1.8000000000000005	valid	1.4329550069996912	53248	0	1	1	53248	1	51200	0	53248	1	0.7	51200	purple	turquoise	0	0	ml	2.7.3	lorasick	sub-04_ses-02_task-ml_proj-lorasick_2020-11-17-14-02-44.442476
161	4	2	4	162	volatile	6	40	22	vs	turquoise	purple	turquoise	purple	left	right	0.30000000000000004	0.7	4	6	1.2000000000000002	4.199999999999998	1	0	0.30000000000000004	0.7	4	6	1.2000000000000002	4.199999999999998	invalid	0.4165709919980145	51200	0	0	1	53248	0	53248	0	53248	0	0.7	53248	purple	turquoise	1	4	ml	2.7.3	lorasick	sub-04_ses-02_task-ml_proj-lorasick_2020-11-17-14-02-44.442476
162	4	2	4	163	volatile	6	40	23	vs	turquoise	purple	turquoise	purple	left	right	0.30000000000000004	0.7	6	2	1.8000000000000005	1.4	1	0	0.30000000000000004	0.7	6	2	1.8000000000000005	1.4	invalid	0.81646193999768	51200	0	0	1	51200	1	53248	0	51200	1	0.7	53248	purple	turquoise	0	6	ml	2.7.3	lorasick	sub-04_ses-02_task-ml_proj-lorasick_2020-11-17-14-02-44.442476
163	4	2	4	164	volatile	6	40	24	vs	purple	turquoise	turquoise	purple	right	left	0.30000000000000004	0.7	4	2	1.2000000000000002	1.4	1	0	0.7	0.30000000000000004	2	4	1.4	1.2000000000000002	invalid	0.599862134000432	53248	0	1	1	51200	0	51200	0	53248	1	0.7	51200	purple	turquoise	0	4	ml	2.7.3	lorasick	sub-04_ses-02_task-ml_proj-lorasick_2020-11-17-14-02-44.442476
164	4	2	4	165	volatile	6	40	25	vs	purple	turquoise	turquoise	purple	right	left	0.30000000000000004	0.7	10	2	3.0000000000000004	1.4	0	1	0.7	0.30000000000000004	2	10	1.4	3.0000000000000004	valid	0.7664884879995952	53248	0	1	1	53248	1	51200	0	53248	1	0.7	51200	purple	turquoise	0	0	ml	2.7.3	lorasick	sub-04_ses-02_task-ml_proj-lorasick_2020-11-17-14-02-44.442476
165	4	2	4	166	volatile	6	40	26	vs	turquoise	purple	turquoise	purple	left	right	0.30000000000000004	0.7	6	4	1.8000000000000005	2.8	0	1	0.30000000000000004	0.7	6	4	1.8000000000000005	2.8	valid	0.5665238539986603	51200	0	0	1	53248	0	53248	0	51200	1	0.7	53248	purple	turquoise	0	0	ml	2.7.3	lorasick	sub-04_ses-02_task-ml_proj-lorasick_2020-11-17-14-02-44.442476
166	4	2	4	167	volatile	6	40	27	vs	purple	turquoise	turquoise	purple	right	left	0.30000000000000004	0.7	4	6	1.2000000000000002	4.199999999999998	1	0	0.7	0.30000000000000004	6	4	4.199999999999998	1.2000000000000002	invalid	0.5831914160007727	51200	0	0	2	51200	1	51200	1	51200	1	0.7	51200	purple	turquoise	1	0	ml	2.7.3	lorasick	sub-04_ses-02_task-ml_proj-lorasick_2020-11-17-14-02-44.442476
167	4	2	4	168	volatile	6	40	28	vs	turquoise	purple	turquoise	purple	left	right	0.30000000000000004	0.7	10	2	3.0000000000000004	1.4	0	1	0.30000000000000004	0.7	10	2	3.0000000000000004	1.4	valid	0.649848954002664	53248	0	1	2	51200	0	53248	1	51200	0	0.7	53248	purple	turquoise	0	2	ml	2.7.3	lorasick	sub-04_ses-02_task-ml_proj-lorasick_2020-11-17-14-02-44.442476
168	4	2	4	169	volatile	6	40	29	vs	turquoise	purple	turquoise	purple	left	right	0.30000000000000004	0.7	2	10	0.6000000000000001	7.0	0	1	0.30000000000000004	0.7	2	10	0.6000000000000001	7.0	valid	0.3999252189969411	53248	0	1	2	53248	1	53248	1	53248	1	0.7	53248	purple	turquoise	1	10	ml	2.7.3	lorasick	sub-04_ses-02_task-ml_proj-lorasick_2020-11-17-14-02-44.442476
169	4	2	4	170	volatile	6	40	30	vs	turquoise	purple	turquoise	purple	left	right	0.30000000000000004	0.7	2	4	0.6000000000000001	2.8	0	1	0.30000000000000004	0.7	2	4	0.6000000000000001	2.8	valid	0.4165609470001073	53248	0	1	2	53248	1	53248	1	53248	1	0.7	53248	purple	turquoise	1	4	ml	2.7.3	lorasick	sub-04_ses-02_task-ml_proj-lorasick_2020-11-17-14-02-44.442476
170	4	2	4	171	volatile	6	40	31	vs	turquoise	purple	turquoise	purple	left	right	0.30000000000000004	0.7	4	2	1.2000000000000002	1.4	0	1	0.30000000000000004	0.7	4	2	1.2000000000000002	1.4	valid	0.6831653299996105	53248	0	1	2	53248	1	53248	1	51200	0	0.7	53248	purple	turquoise	0	2	ml	2.7.3	lorasick	sub-04_ses-02_task-ml_proj-lorasick_2020-11-17-14-02-44.442476
171	4	2	4	172	volatile	6	40	32	vs	purple	turquoise	turquoise	purple	right	left	0.30000000000000004	0.7	4	2	1.2000000000000002	1.4	0	1	0.7	0.30000000000000004	2	4	1.4	1.2000000000000002	valid	0.7164921040021	51200	0	0	2	51200	1	51200	1	53248	0	0.7	51200	purple	turquoise	0	2	ml	2.7.3	lorasick	sub-04_ses-02_task-ml_proj-lorasick_2020-11-17-14-02-44.442476
172	4	2	4	173	volatile	6	40	33	vs	turquoise	purple	turquoise	purple	left	right	0.30000000000000004	0.7	6	2	1.8000000000000005	1.4	0	1	0.30000000000000004	0.7	6	2	1.8000000000000005	1.4	valid	0.6165282229994773	53248	0	1	2	51200	0	53248	1	51200	0	0.7	53248	purple	turquoise	0	2	ml	2.7.3	lorasick	sub-04_ses-02_task-ml_proj-lorasick_2020-11-17-14-02-44.442476
173	4	2	4	174	volatile	6	40	34	vs	purple	turquoise	turquoise	purple	right	left	0.30000000000000004	0.7	2	6	0.6000000000000001	4.199999999999998	1	0	0.7	0.30000000000000004	6	2	4.199999999999998	0.6000000000000001	invalid	0.7997936290012149	51200	0	0	2	51200	1	51200	1	51200	1	0.7	51200	purple	turquoise	1	0	ml	2.7.3	lorasick	sub-04_ses-02_task-ml_proj-lorasick_2020-11-17-14-02-44.442476
174	4	2	4	175	volatile	6	40	35	vs	turquoise	purple	turquoise	purple	left	right	0.30000000000000004	0.7	2	2	0.6000000000000001	1.4	0	1	0.30000000000000004	0.7	2	2	0.6000000000000001	1.4	valid	0.5165532430000894	53248	0	1	2	53248	1	53248	1	53248	1	0.7	53248	purple	turquoise	0	2	ml	2.7.3	lorasick	sub-04_ses-02_task-ml_proj-lorasick_2020-11-17-14-02-44.442476
175	4	2	4	176	volatile	6	40	36	vs	turquoise	purple	turquoise	purple	left	right	0.30000000000000004	0.7	2	4	0.6000000000000001	2.8	1	0	0.30000000000000004	0.7	2	4	0.6000000000000001	2.8	invalid	0.4165817200009769	53248	0	1	2	53248	1	53248	1	53248	1	0.7	53248	purple	turquoise	1	0	ml	2.7.3	lorasick	sub-04_ses-02_task-ml_proj-lorasick_2020-11-17-14-02-44.442476
176	4	2	4	177	volatile	6	40	37	vs	purple	turquoise	turquoise	purple	right	left	0.30000000000000004	0.7	2	4	0.6000000000000001	2.8	0	1	0.7	0.30000000000000004	4	2	2.8	0.6000000000000001	valid	1.3496340990022873	51200	0	0	2	51200	1	51200	1	51200	1	0.7	51200	purple	turquoise	1	4	ml	2.7.3	lorasick	sub-04_ses-02_task-ml_proj-lorasick_2020-11-17-14-02-44.442476
177	4	2	4	178	volatile	6	40	38	vs	purple	turquoise	turquoise	purple	right	left	0.30000000000000004	0.7	6	2	1.8000000000000005	1.4	1	0	0.7	0.30000000000000004	2	6	1.4	1.8000000000000005	invalid	0.5831914430018514	51200	0	0	2	53248	0	51200	1	53248	0	0.7	51200	purple	turquoise	0	0	ml	2.7.3	lorasick	sub-04_ses-02_task-ml_proj-lorasick_2020-11-17-14-02-44.442476
178	4	2	4	179	volatile	6	40	39	vs	purple	turquoise	turquoise	purple	right	left	0.30000000000000004	0.7	4	6	1.2000000000000002	4.199999999999998	0	1	0.7	0.30000000000000004	6	4	4.199999999999998	1.2000000000000002	valid	0.5498807420008234	51200	0	0	2	51200	1	51200	1	51200	1	0.7	51200	purple	turquoise	1	6	ml	2.7.3	lorasick	sub-04_ses-02_task-ml_proj-lorasick_2020-11-17-14-02-44.442476
179	4	2	4	180	volatile	6	40	40	vs	purple	turquoise	turquoise	purple	right	left	0.30000000000000004	0.7	6	4	1.8000000000000005	2.8	0	1	0.7	0.30000000000000004	4	6	2.8	1.8000000000000005	valid	0.4832196390016179	51200	0	0	2	51200	1	51200	1	53248	0	0.7	51200	purple	turquoise	0	4	ml	2.7.3	lorasick	sub-04_ses-02_task-ml_proj-lorasick_2020-11-17-14-02-44.442476
180	4	2	4	181	volatile	7	20	1	vs	turquoise	purple	turquoise	purple	left	right	0.7	0.30000000000000004	6	4	4.199999999999998	1.2000000000000002	1	0	0.7	0.30000000000000004	6	4	4.199999999999998	1.2000000000000002	valid	0.5165480920004484	53248	0	1	2	51200	0	51200	0	51200	0	0.7	51200	turquoise	purple	1	0	ml	2.7.3	lorasick	sub-04_ses-02_task-ml_proj-lorasick_2020-11-17-14-02-44.442476
181	4	2	4	182	volatile	7	20	2	vs	turquoise	purple	turquoise	purple	left	right	0.7	0.30000000000000004	4	6	2.8	1.8000000000000005	0	1	0.7	0.30000000000000004	4	6	2.8	1.8000000000000005	invalid	0.5998629720015742	53248	0	1	2	51200	0	51200	0	53248	1	0.7	51200	turquoise	purple	0	6	ml	2.7.3	lorasick	sub-04_ses-02_task-ml_proj-lorasick_2020-11-17-14-02-44.442476
182	4	2	4	183	volatile	7	20	3	vs	purple	turquoise	turquoise	purple	right	left	0.7	0.30000000000000004	10	2	7.0	0.6000000000000001	1	0	0.30000000000000004	0.7	2	10	0.6000000000000001	7.0	valid	0.7664734629979648	51200	0	0	2	53248	0	53248	0	53248	0	0.7	53248	turquoise	purple	1	0	ml	2.7.3	lorasick	sub-04_ses-02_task-ml_proj-lorasick_2020-11-17-14-02-44.442476
183	4	2	4	184	volatile	7	20	4	vs	purple	turquoise	turquoise	purple	right	left	0.7	0.30000000000000004	6	6	4.199999999999998	1.8000000000000005	1	0	0.30000000000000004	0.7	6	6	1.8000000000000005	4.199999999999998	valid	0.6998167460005789	51200	0	0	2	53248	0	53248	0	53248	0	0.7	53248	turquoise	purple	0	0	ml	2.7.3	lorasick	sub-04_ses-02_task-ml_proj-lorasick_2020-11-17-14-02-44.442476
184	4	2	4	185	volatile	7	20	5	vs	purple	turquoise	turquoise	purple	right	left	0.7	0.30000000000000004	2	6	1.4	1.8000000000000005	1	0	0.30000000000000004	0.7	6	2	1.8000000000000005	1.4	valid	0.6165277420004713	53248	0	1	1	51200	0	53248	1	51200	0	0.7	53248	turquoise	purple	0	2	ml	2.7.3	lorasick	sub-04_ses-02_task-ml_proj-lorasick_2020-11-17-14-02-44.442476
185	4	2	4	186	volatile	7	20	6	vs	purple	turquoise	turquoise	purple	right	left	0.7	0.30000000000000004	6	2	4.199999999999998	0.6000000000000001	1	0	0.30000000000000004	0.7	2	6	0.6000000000000001	4.199999999999998	valid	0.4332426929977373	53248	0	1	1	53248	1	53248	1	53248	1	0.7	53248	turquoise	purple	1	6	ml	2.7.3	lorasick	sub-04_ses-02_task-ml_proj-lorasick_2020-11-17-14-02-44.442476
186	4	2	4	187	volatile	7	20	7	vs	turquoise	purple	turquoise	purple	left	right	0.7	0.30000000000000004	2	4	1.4	1.2000000000000002	1	0	0.7	0.30000000000000004	2	4	1.4	1.2000000000000002	valid	0.5332052749981813	51200	0	0	1	51200	1	51200	1	53248	0	0.7	51200	turquoise	purple	0	2	ml	2.7.3	lorasick	sub-04_ses-02_task-ml_proj-lorasick_2020-11-17-14-02-44.442476
187	4	2	4	188	volatile	7	20	8	vs	purple	turquoise	turquoise	purple	right	left	0.7	0.30000000000000004	2	4	1.4	1.2000000000000002	1	0	0.30000000000000004	0.7	4	2	1.2000000000000002	1.4	valid	0.6165236480010208	53248	0	1	1	53248	1	53248	1	51200	0	0.7	53248	turquoise	purple	0	2	ml	2.7.3	lorasick	sub-04_ses-02_task-ml_proj-lorasick_2020-11-17-14-02-44.442476
188	4	2	4	189	volatile	7	20	9	vs	purple	turquoise	turquoise	purple	right	left	0.7	0.30000000000000004	4	2	2.8	0.6000000000000001	1	0	0.30000000000000004	0.7	2	4	0.6000000000000001	2.8	valid	0.4665799659996992	53248	0	1	1	53248	1	53248	1	53248	1	0.7	53248	turquoise	purple	1	4	ml	2.7.3	lorasick	sub-04_ses-02_task-ml_proj-lorasick_2020-11-17-14-02-44.442476
189	4	2	4	190	volatile	7	20	10	vs	purple	turquoise	turquoise	purple	right	left	0.7	0.30000000000000004	2	10	1.4	3.0000000000000004	1	0	0.30000000000000004	0.7	10	2	3.0000000000000004	1.4	valid	0.6331870639987756	53248	0	1	1	51200	0	53248	1	51200	0	0.7	53248	turquoise	purple	0	2	ml	2.7.3	lorasick	sub-04_ses-02_task-ml_proj-lorasick_2020-11-17-14-02-44.442476
190	4	2	4	191	volatile	7	20	11	vs	turquoise	purple	turquoise	purple	left	right	0.7	0.30000000000000004	2	10	1.4	3.0000000000000004	0	1	0.7	0.30000000000000004	2	10	1.4	3.0000000000000004	invalid	0.4498922110033163	51200	0	0	1	53248	0	51200	1	53248	0	0.7	51200	turquoise	purple	0	0	ml	2.7.3	lorasick	sub-04_ses-02_task-ml_proj-lorasick_2020-11-17-14-02-44.442476
191	4	2	4	192	volatile	7	20	12	vs	turquoise	purple	turquoise	purple	left	right	0.7	0.30000000000000004	6	4	4.199999999999998	1.2000000000000002	1	0	0.7	0.30000000000000004	6	4	4.199999999999998	1.2000000000000002	valid	0.3832508080013213	51200	0	0	1	51200	1	51200	1	51200	1	0.7	51200	turquoise	purple	1	6	ml	2.7.3	lorasick	sub-04_ses-02_task-ml_proj-lorasick_2020-11-17-14-02-44.442476
192	4	2	4	193	volatile	7	20	13	vs	turquoise	purple	turquoise	purple	left	right	0.7	0.30000000000000004	2	2	1.4	0.6000000000000001	0	1	0.7	0.30000000000000004	2	2	1.4	0.6000000000000001	invalid	0.39991090900002746	51200	0	0	1	51200	1	51200	1	53248	0	0.7	51200	turquoise	purple	1	0	ml	2.7.3	lorasick	sub-04_ses-02_task-ml_proj-lorasick_2020-11-17-14-02-44.442476
193	4	2	4	194	volatile	7	20	14	vs	purple	turquoise	turquoise	purple	right	left	0.7	0.30000000000000004	2	2	1.4	0.6000000000000001	0	1	0.30000000000000004	0.7	2	2	0.6000000000000001	1.4	invalid	0.9330991649985664	53248	0	1	1	53248	1	53248	1	53248	1	0.7	53248	turquoise	purple	0	0	ml	2.7.3	lorasick	sub-04_ses-02_task-ml_proj-lorasick_2020-11-17-14-02-44.442476
194	4	2	4	195	volatile	7	20	15	vs	turquoise	purple	turquoise	purple	left	right	0.7	0.30000000000000004	6	6	4.199999999999998	1.8000000000000005	1	0	0.7	0.30000000000000004	6	6	4.199999999999998	1.8000000000000005	valid	0.7331577900004049	53248	0	1	2	51200	0	51200	0	53248	1	0.7	51200	turquoise	purple	1	0	ml	2.7.3	lorasick	sub-04_ses-02_task-ml_proj-lorasick_2020-11-17-14-02-44.442476
195	4	2	4	196	volatile	7	20	16	vs	purple	turquoise	turquoise	purple	right	left	0.7	0.30000000000000004	2	10	1.4	3.0000000000000004	0	1	0.30000000000000004	0.7	10	2	3.0000000000000004	1.4	invalid	0.683158383002592	51200	0	0	2	51200	1	53248	0	51200	1	0.7	53248	turquoise	purple	0	10	ml	2.7.3	lorasick	sub-04_ses-02_task-ml_proj-lorasick_2020-11-17-14-02-44.442476
196	4	2	4	197	volatile	7	20	17	vs	turquoise	purple	turquoise	purple	left	right	0.7	0.30000000000000004	6	2	4.199999999999998	0.6000000000000001	1	0	0.7	0.30000000000000004	6	2	4.199999999999998	0.6000000000000001	valid	0.5332153919989651	53248	0	1	2	51200	0	51200	0	51200	0	0.7	51200	turquoise	purple	1	0	ml	2.7.3	lorasick	sub-04_ses-02_task-ml_proj-lorasick_2020-11-17-14-02-44.442476
197	4	2	4	198	volatile	7	20	18	vs	turquoise	purple	turquoise	purple	left	right	0.7	0.30000000000000004	2	6	1.4	1.8000000000000005	1	0	0.7	0.30000000000000004	2	6	1.4	1.8000000000000005	valid	0.5332146319997264	53248	0	1	2	53248	1	51200	0	53248	1	0.7	51200	turquoise	purple	0	0	ml	2.7.3	lorasick	sub-04_ses-02_task-ml_proj-lorasick_2020-11-17-14-02-44.442476
198	4	2	4	199	volatile	7	20	19	vs	turquoise	purple	turquoise	purple	left	right	0.7	0.30000000000000004	4	2	2.8	0.6000000000000001	1	0	0.7	0.30000000000000004	4	2	2.8	0.6000000000000001	valid	0.38324789100079215	51200	0	0	1	51200	1	51200	1	51200	1	0.7	51200	turquoise	purple	1	4	ml	2.7.3	lorasick	sub-04_ses-02_task-ml_proj-lorasick_2020-11-17-14-02-44.442476
199	4	2	4	200	volatile	7	20	20	vs	purple	turquoise	turquoise	purple	right	left	0.7	0.30000000000000004	6	4	4.199999999999998	1.2000000000000002	0	1	0.30000000000000004	0.7	4	6	1.2000000000000002	4.199999999999998	invalid	0.6998410349988262	53248	0	1	1	53248	1	53248	1	53248	1	0.7	53248	turquoise	purple	1	0	ml	2.7.3	lorasick	sub-04_ses-02_task-ml_proj-lorasick_2020-11-17-14-02-44.442476
200	4	2	5	201	stable	8	200	1	vs	turquoise	purple	turquoise	purple	left	right	0.30000000000000004	0.7	4	6	1.2000000000000002	4.199999999999998	0	1	0.30000000000000004	0.7	4	6	1.2000000000000002	4.199999999999998	valid	0.9164365949982312	53248	0	1	2	53248	1	53248	1	53248	1	0.7	53248	purple	turquoise	1	6	ml	2.7.3	lorasick	sub-04_ses-02_task-ml_proj-lorasick_2020-11-17-14-02-44.442476
201	4	2	5	202	stable	8	200	2	vs	purple	turquoise	turquoise	purple	right	left	0.30000000000000004	0.7	2	2	0.6000000000000001	1.4	0	1	0.7	0.30000000000000004	2	2	1.4	0.6000000000000001	valid	0.4998802699992666	51200	0	0	2	51200	1	51200	1	53248	0	0.7	51200	purple	turquoise	1	2	ml	2.7.3	lorasick	sub-04_ses-02_task-ml_proj-lorasick_2020-11-17-14-02-44.442476
202	4	2	5	203	stable	8	200	3	vs	turquoise	purple	turquoise	purple	left	right	0.30000000000000004	0.7	2	6	0.6000000000000001	4.199999999999998	0	1	0.30000000000000004	0.7	2	6	0.6000000000000001	4.199999999999998	valid	0.4998948770007701	53248	0	1	2	53248	1	53248	1	53248	1	0.7	53248	purple	turquoise	1	6	ml	2.7.3	lorasick	sub-04_ses-02_task-ml_proj-lorasick_2020-11-17-14-02-44.442476
203	4	2	5	204	stable	8	200	4	vs	purple	turquoise	turquoise	purple	right	left	0.30000000000000004	0.7	4	2	1.2000000000000002	1.4	1	0	0.7	0.30000000000000004	2	4	1.4	1.2000000000000002	invalid	0.4998811849982303	51200	0	0	2	51200	1	51200	1	53248	0	0.7	51200	purple	turquoise	0	0	ml	2.7.3	lorasick	sub-04_ses-02_task-ml_proj-lorasick_2020-11-17-14-02-44.442476
204	4	2	5	205	stable	8	200	5	vs	purple	turquoise	turquoise	purple	right	left	0.30000000000000004	0.7	2	10	0.6000000000000001	7.0	0	1	0.7	0.30000000000000004	10	2	7.0	0.6000000000000001	valid	0.3832494579983177	51200	0	0	2	51200	1	51200	1	51200	1	0.7	51200	purple	turquoise	1	10	ml	2.7.3	lorasick	sub-04_ses-02_task-ml_proj-lorasick_2020-11-17-14-02-44.442476
205	4	2	5	206	stable	8	200	6	vs	purple	turquoise	turquoise	purple	right	left	0.30000000000000004	0.7	6	6	1.8000000000000005	4.199999999999998	0	1	0.7	0.30000000000000004	6	6	4.199999999999998	1.8000000000000005	valid	0.4832049969991203	51200	0	0	2	51200	1	51200	1	53248	0	0.7	51200	purple	turquoise	1	6	ml	2.7.3	lorasick	sub-04_ses-02_task-ml_proj-lorasick_2020-11-17-14-02-44.442476
206	4	2	5	207	stable	8	200	7	vs	turquoise	purple	turquoise	purple	left	right	0.30000000000000004	0.7	2	4	0.6000000000000001	2.8	1	0	0.30000000000000004	0.7	2	4	0.6000000000000001	2.8	invalid	0.5165621119995194	53248	0	1	2	53248	1	53248	1	53248	1	0.7	53248	purple	turquoise	1	0	ml	2.7.3	lorasick	sub-04_ses-02_task-ml_proj-lorasick_2020-11-17-14-02-44.442476
207	4	2	5	208	stable	8	200	8	vs	purple	turquoise	turquoise	purple	right	left	0.30000000000000004	0.7	6	4	1.8000000000000005	2.8	0	1	0.7	0.30000000000000004	4	6	2.8	1.8000000000000005	valid	0.3999126500020793	51200	0	0	2	51200	1	51200	1	53248	0	0.7	51200	purple	turquoise	0	4	ml	2.7.3	lorasick	sub-04_ses-02_task-ml_proj-lorasick_2020-11-17-14-02-44.442476
208	4	2	5	209	stable	8	200	9	vs	purple	turquoise	turquoise	purple	right	left	0.30000000000000004	0.7	6	2	1.8000000000000005	1.4	1	0	0.7	0.30000000000000004	2	6	1.4	1.8000000000000005	invalid	1.3329718329987372	51200	0	0	2	53248	0	51200	1	53248	0	0.7	51200	purple	turquoise	0	0	ml	2.7.3	lorasick	sub-04_ses-02_task-ml_proj-lorasick_2020-11-17-14-02-44.442476
209	4	2	5	210	stable	8	200	10	vs	turquoise	purple	turquoise	purple	left	right	0.30000000000000004	0.7	4	6	1.2000000000000002	4.199999999999998	0	1	0.30000000000000004	0.7	4	6	1.2000000000000002	4.199999999999998	valid	0.5831981679984892	53248	0	1	2	53248	1	53248	1	53248	1	0.7	53248	purple	turquoise	1	6	ml	2.7.3	lorasick	sub-04_ses-02_task-ml_proj-lorasick_2020-11-17-14-02-44.442476
210	4	2	5	211	stable	8	200	11	vs	turquoise	purple	turquoise	purple	left	right	0.30000000000000004	0.7	6	4	1.8000000000000005	2.8	0	1	0.30000000000000004	0.7	6	4	1.8000000000000005	2.8	valid	0.6165247009994346	53248	0	1	2	53248	1	53248	1	51200	0	0.7	53248	purple	turquoise	0	4	ml	2.7.3	lorasick	sub-04_ses-02_task-ml_proj-lorasick_2020-11-17-14-02-44.442476
211	4	2	5	212	stable	8	200	12	vs	purple	turquoise	turquoise	purple	right	left	0.30000000000000004	0.7	2	2	0.6000000000000001	1.4	0	1	0.7	0.30000000000000004	2	2	1.4	0.6000000000000001	valid	0.5165427200008708	51200	0	0	2	51200	1	51200	1	53248	0	0.7	51200	purple	turquoise	1	2	ml	2.7.3	lorasick	sub-04_ses-02_task-ml_proj-lorasick_2020-11-17-14-02-44.442476
212	4	2	5	213	stable	8	200	13	vs	purple	turquoise	turquoise	purple	right	left	0.30000000000000004	0.7	2	6	0.6000000000000001	4.199999999999998	1	0	0.7	0.30000000000000004	6	2	4.199999999999998	0.6000000000000001	invalid	1.2330037659994562	51200	0	0	2	51200	1	51200	1	51200	1	0.7	51200	purple	turquoise	1	0	ml	2.7.3	lorasick	sub-04_ses-02_task-ml_proj-lorasick_2020-11-17-14-02-44.442476
213	4	2	5	214	stable	8	200	14	vs	turquoise	purple	turquoise	purple	left	right	0.30000000000000004	0.7	2	4	0.6000000000000001	2.8	1	0	0.30000000000000004	0.7	2	4	0.6000000000000001	2.8	invalid	0.7998056340002222	53248	0	1	2	53248	1	53248	1	53248	1	0.7	53248	purple	turquoise	1	0	ml	2.7.3	lorasick	sub-04_ses-02_task-ml_proj-lorasick_2020-11-17-14-02-44.442476
214	4	2	5	215	stable	8	200	15	vs	purple	turquoise	turquoise	purple	right	left	0.30000000000000004	0.7	2	4	0.6000000000000001	2.8	0	1	0.7	0.30000000000000004	4	2	2.8	0.6000000000000001	valid	0.6998306340028648	53248	0	1	1	51200	0	51200	0	51200	0	0.7	51200	purple	turquoise	1	0	ml	2.7.3	lorasick	sub-04_ses-02_task-ml_proj-lorasick_2020-11-17-14-02-44.442476
215	4	2	5	216	stable	8	200	16	vs	turquoise	purple	turquoise	purple	left	right	0.30000000000000004	0.7	10	2	3.0000000000000004	1.4	0	1	0.30000000000000004	0.7	10	2	3.0000000000000004	1.4	valid	0.6998284329965827	53248	0	1	2	51200	0	53248	1	51200	0	0.7	53248	purple	turquoise	0	2	ml	2.7.3	lorasick	sub-04_ses-02_task-ml_proj-lorasick_2020-11-17-14-02-44.442476
216	4	2	5	217	stable	8	200	17	vs	purple	turquoise	turquoise	purple	right	left	0.30000000000000004	0.7	4	2	1.2000000000000002	1.4	1	0	0.7	0.30000000000000004	2	4	1.4	1.2000000000000002	invalid	0.4998808720010857	51200	0	0	2	51200	1	51200	1	53248	0	0.7	51200	purple	turquoise	0	0	ml	2.7.3	lorasick	sub-04_ses-02_task-ml_proj-lorasick_2020-11-17-14-02-44.442476
217	4	2	5	218	stable	8	200	18	vs	turquoise	purple	turquoise	purple	left	right	0.30000000000000004	0.7	2	2	0.6000000000000001	1.4	1	0	0.30000000000000004	0.7	2	2	0.6000000000000001	1.4	invalid	0.7664802960025554	53248	0	1	2	53248	1	53248	1	53248	1	0.7	53248	purple	turquoise	0	0	ml	2.7.3	lorasick	sub-04_ses-02_task-ml_proj-lorasick_2020-11-17-14-02-44.442476
218	4	2	5	219	stable	8	200	19	vs	purple	turquoise	turquoise	purple	right	left	0.30000000000000004	0.7	6	4	1.8000000000000005	2.8	1	0	0.7	0.30000000000000004	4	6	2.8	1.8000000000000005	invalid	0.5832039630004147	53248	0	1	1	51200	0	51200	0	53248	1	0.7	51200	purple	turquoise	0	6	ml	2.7.3	lorasick	sub-04_ses-02_task-ml_proj-lorasick_2020-11-17-14-02-44.442476
219	4	2	5	220	stable	8	200	20	vs	purple	turquoise	turquoise	purple	right	left	0.30000000000000004	0.7	6	2	1.8000000000000005	1.4	1	0	0.7	0.30000000000000004	2	6	1.4	1.8000000000000005	invalid	0.499892499003181	53248	0	1	1	53248	1	51200	0	53248	1	0.7	51200	purple	turquoise	0	6	ml	2.7.3	lorasick	sub-04_ses-02_task-ml_proj-lorasick_2020-11-17-14-02-44.442476
220	4	2	5	221	stable	8	200	21	vs	purple	turquoise	turquoise	purple	right	left	0.30000000000000004	0.7	2	10	0.6000000000000001	7.0	1	0	0.7	0.30000000000000004	10	2	7.0	0.6000000000000001	invalid	0.6165258979999635	53248	0	1	1	51200	0	51200	0	51200	0	0.7	51200	purple	turquoise	1	2	ml	2.7.3	lorasick	sub-04_ses-02_task-ml_proj-lorasick_2020-11-17-14-02-44.442476
221	4	2	5	222	stable	8	200	22	vs	turquoise	purple	turquoise	purple	left	right	0.30000000000000004	0.7	6	6	1.8000000000000005	4.199999999999998	1	0	0.30000000000000004	0.7	6	6	1.8000000000000005	4.199999999999998	invalid	0.4498875520002912	51200	0	0	1	53248	0	53248	0	53248	0	0.7	53248	purple	turquoise	0	6	ml	2.7.3	lorasick	sub-04_ses-02_task-ml_proj-lorasick_2020-11-17-14-02-44.442476
222	4	2	5	223	stable	8	200	23	vs	turquoise	purple	turquoise	purple	left	right	0.30000000000000004	0.7	6	6	1.8000000000000005	4.199999999999998	1	0	0.30000000000000004	0.7	6	6	1.8000000000000005	4.199999999999998	invalid	0.4498995339999965	51200	0	0	1	53248	0	53248	0	53248	0	0.7	53248	purple	turquoise	0	6	ml	2.7.3	lorasick	sub-04_ses-02_task-ml_proj-lorasick_2020-11-17-14-02-44.442476
223	4	2	5	224	stable	8	200	24	vs	purple	turquoise	turquoise	purple	right	left	0.30000000000000004	0.7	6	4	1.8000000000000005	2.8	0	1	0.7	0.30000000000000004	4	6	2.8	1.8000000000000005	valid	0.7831457979991683	53248	0	1	1	51200	0	51200	0	53248	1	0.7	51200	purple	turquoise	0	0	ml	2.7.3	lorasick	sub-04_ses-02_task-ml_proj-lorasick_2020-11-17-14-02-44.442476
224	4	2	5	225	stable	8	200	25	vs	purple	turquoise	turquoise	purple	right	left	0.30000000000000004	0.7	2	4	0.6000000000000001	2.8	1	0	0.7	0.30000000000000004	4	2	2.8	0.6000000000000001	invalid	0.5998612580006011	53248	0	1	1	51200	0	51200	0	51200	0	0.7	51200	purple	turquoise	1	2	ml	2.7.3	lorasick	sub-04_ses-02_task-ml_proj-lorasick_2020-11-17-14-02-44.442476
225	4	2	5	226	stable	8	200	26	vs	purple	turquoise	turquoise	purple	right	left	0.30000000000000004	0.7	2	6	0.6000000000000001	4.199999999999998	0	1	0.7	0.30000000000000004	6	2	4.199999999999998	0.6000000000000001	valid	0.5832041470021068	53248	0	1	1	51200	0	51200	0	51200	0	0.7	51200	purple	turquoise	1	0	ml	2.7.3	lorasick	sub-04_ses-02_task-ml_proj-lorasick_2020-11-17-14-02-44.442476
226	4	2	5	227	stable	8	200	27	vs	turquoise	purple	turquoise	purple	left	right	0.30000000000000004	0.7	2	2	0.6000000000000001	1.4	0	1	0.30000000000000004	0.7	2	2	0.6000000000000001	1.4	valid	1.2163468550024843	51200	0	0	1	53248	0	53248	0	53248	0	0.7	53248	purple	turquoise	0	0	ml	2.7.3	lorasick	sub-04_ses-02_task-ml_proj-lorasick_2020-11-17-14-02-44.442476
227	4	2	5	228	stable	8	200	28	vs	turquoise	purple	turquoise	purple	left	right	0.30000000000000004	0.7	4	6	1.2000000000000002	4.199999999999998	1	0	0.30000000000000004	0.7	4	6	1.2000000000000002	4.199999999999998	invalid	0.8831192700017709	53248	0	1	2	53248	1	53248	1	53248	1	0.7	53248	purple	turquoise	1	0	ml	2.7.3	lorasick	sub-04_ses-02_task-ml_proj-lorasick_2020-11-17-14-02-44.442476
228	4	2	5	229	stable	8	200	29	vs	purple	turquoise	turquoise	purple	right	left	0.30000000000000004	0.7	2	4	0.6000000000000001	2.8	1	0	0.7	0.30000000000000004	4	2	2.8	0.6000000000000001	invalid	0.5831920210002863	51200	0	0	2	51200	1	51200	1	51200	1	0.7	51200	purple	turquoise	1	0	ml	2.7.3	lorasick	sub-04_ses-02_task-ml_proj-lorasick_2020-11-17-14-02-44.442476
229	4	2	5	230	stable	8	200	30	vs	turquoise	purple	turquoise	purple	left	right	0.30000000000000004	0.7	10	2	3.0000000000000004	1.4	0	1	0.30000000000000004	0.7	10	2	3.0000000000000004	1.4	valid	0.966411020999658	51200	0	0	1	51200	1	53248	0	51200	1	0.7	53248	purple	turquoise	0	0	ml	2.7.3	lorasick	sub-04_ses-02_task-ml_proj-lorasick_2020-11-17-14-02-44.442476
230	4	2	5	231	stable	8	200	31	vs	turquoise	purple	turquoise	purple	left	right	0.30000000000000004	0.7	2	10	0.6000000000000001	7.0	0	1	0.30000000000000004	0.7	2	10	0.6000000000000001	7.0	valid	0.4665487210004358	51200	0	0	1	53248	0	53248	0	53248	0	0.7	53248	purple	turquoise	1	0	ml	2.7.3	lorasick	sub-04_ses-02_task-ml_proj-lorasick_2020-11-17-14-02-44.442476
231	4	2	5	232	stable	8	200	32	vs	turquoise	purple	turquoise	purple	left	right	0.30000000000000004	0.7	2	10	0.6000000000000001	7.0	0	1	0.30000000000000004	0.7	2	10	0.6000000000000001	7.0	valid	0.4499048549987492	53248	0	1	2	53248	1	53248	1	53248	1	0.7	53248	purple	turquoise	1	10	ml	2.7.3	lorasick	sub-04_ses-02_task-ml_proj-lorasick_2020-11-17-14-02-44.442476
232	4	2	5	233	stable	8	200	33	vs	purple	turquoise	turquoise	purple	right	left	0.30000000000000004	0.7	6	2	1.8000000000000005	1.4	1	0	0.7	0.30000000000000004	2	6	1.4	1.8000000000000005	invalid	0.5665351999996346	51200	0	0	2	53248	0	51200	1	53248	0	0.7	51200	purple	turquoise	0	0	ml	2.7.3	lorasick	sub-04_ses-02_task-ml_proj-lorasick_2020-11-17-14-02-44.442476
233	4	2	5	234	stable	8	200	34	vs	turquoise	purple	turquoise	purple	left	right	0.30000000000000004	0.7	10	2	3.0000000000000004	1.4	0	1	0.30000000000000004	0.7	10	2	3.0000000000000004	1.4	valid	0.7165236519977043	53248	0	1	2	51200	0	53248	1	51200	0	0.7	53248	purple	turquoise	0	2	ml	2.7.3	lorasick	sub-04_ses-02_task-ml_proj-lorasick_2020-11-17-14-02-44.442476
234	4	2	5	235	stable	8	200	35	vs	purple	turquoise	turquoise	purple	right	left	0.30000000000000004	0.7	6	4	1.8000000000000005	2.8	1	0	0.7	0.30000000000000004	4	6	2.8	1.8000000000000005	invalid	1.1163687359985488	51200	0	0	2	51200	1	51200	1	53248	0	0.7	51200	purple	turquoise	0	0	ml	2.7.3	lorasick	sub-04_ses-02_task-ml_proj-lorasick_2020-11-17-14-02-44.442476
235	4	2	5	236	stable	8	200	36	vs	turquoise	purple	turquoise	purple	left	right	0.30000000000000004	0.7	10	2	3.0000000000000004	1.4	0	1	0.30000000000000004	0.7	10	2	3.0000000000000004	1.4	valid	0.6498481779999565	53248	0	1	2	51200	0	53248	1	51200	0	0.7	53248	purple	turquoise	0	2	ml	2.7.3	lorasick	sub-04_ses-02_task-ml_proj-lorasick_2020-11-17-14-02-44.442476
236	4	2	5	237	stable	8	200	37	vs	turquoise	purple	turquoise	purple	left	right	0.30000000000000004	0.7	6	2	1.8000000000000005	1.4	0	1	0.30000000000000004	0.7	6	2	1.8000000000000005	1.4	valid	0.6498501450005278	53248	0	1	2	51200	0	53248	1	51200	0	0.7	53248	purple	turquoise	0	2	ml	2.7.3	lorasick	sub-04_ses-02_task-ml_proj-lorasick_2020-11-17-14-02-44.442476
237	4	2	5	238	stable	8	200	38	vs	purple	turquoise	turquoise	purple	right	left	0.30000000000000004	0.7	4	6	1.2000000000000002	4.199999999999998	0	1	0.7	0.30000000000000004	6	4	4.199999999999998	1.2000000000000002	valid	0.5165494439970644	51200	0	0	2	51200	1	51200	1	51200	1	0.7	51200	purple	turquoise	1	6	ml	2.7.3	lorasick	sub-04_ses-02_task-ml_proj-lorasick_2020-11-17-14-02-44.442476
238	4	2	5	239	stable	8	200	39	vs	turquoise	purple	turquoise	purple	left	right	0.30000000000000004	0.7	2	10	0.6000000000000001	7.0	0	1	0.30000000000000004	0.7	2	10	0.6000000000000001	7.0	valid	0.4665685979998671	53248	0	1	2	53248	1	53248	1	53248	1	0.7	53248	purple	turquoise	1	10	ml	2.7.3	lorasick	sub-04_ses-02_task-ml_proj-lorasick_2020-11-17-14-02-44.442476
239	4	2	5	240	stable	8	200	40	vs	purple	turquoise	turquoise	purple	right	left	0.30000000000000004	0.7	2	4	0.6000000000000001	2.8	0	1	0.7	0.30000000000000004	4	2	2.8	0.6000000000000001	valid	0.383250943999883	51200	0	0	2	51200	1	51200	1	51200	1	0.7	51200	purple	turquoise	1	4	ml	2.7.3	lorasick	sub-04_ses-02_task-ml_proj-lorasick_2020-11-17-14-02-44.442476
240	4	2	5	241	stable	8	200	41	vs	purple	turquoise	turquoise	purple	right	left	0.30000000000000004	0.7	2	4	0.6000000000000001	2.8	0	1	0.7	0.30000000000000004	4	2	2.8	0.6000000000000001	valid	0.5332078259998525	51200	0	0	2	51200	1	51200	1	51200	1	0.7	51200	purple	turquoise	1	4	ml	2.7.3	lorasick	sub-04_ses-02_task-ml_proj-lorasick_2020-11-17-14-02-44.442476
241	4	2	5	242	stable	8	200	42	vs	turquoise	purple	turquoise	purple	left	right	0.30000000000000004	0.7	10	2	3.0000000000000004	1.4	1	0	0.30000000000000004	0.7	10	2	3.0000000000000004	1.4	invalid	0.5831986040029733	53248	0	1	2	51200	0	53248	1	51200	0	0.7	53248	purple	turquoise	0	0	ml	2.7.3	lorasick	sub-04_ses-02_task-ml_proj-lorasick_2020-11-17-14-02-44.442476
242	4	2	5	243	stable	8	200	43	vs	turquoise	purple	turquoise	purple	left	right	0.30000000000000004	0.7	6	2	1.8000000000000005	1.4	0	1	0.30000000000000004	0.7	6	2	1.8000000000000005	1.4	valid	0.5831997860004776	53248	0	1	2	51200	0	53248	1	51200	0	0.7	53248	purple	turquoise	0	2	ml	2.7.3	lorasick	sub-04_ses-02_task-ml_proj-lorasick_2020-11-17-14-02-44.442476
243	4	2	5	244	stable	8	200	44	vs	turquoise	purple	turquoise	purple	left	right	0.30000000000000004	0.7	2	6	0.6000000000000001	4.199999999999998	1	0	0.30000000000000004	0.7	2	6	0.6000000000000001	4.199999999999998	invalid	0.6665209589991719	53248	0	1	2	53248	1	53248	1	53248	1	0.7	53248	purple	turquoise	1	0	ml	2.7.3	lorasick	sub-04_ses-02_task-ml_proj-lorasick_2020-11-17-14-02-44.442476
244	4	2	5	245	stable	8	200	45	vs	purple	turquoise	turquoise	purple	right	left	0.30000000000000004	0.7	6	6	1.8000000000000005	4.199999999999998	0	1	0.7	0.30000000000000004	6	6	4.199999999999998	1.8000000000000005	valid	0.6165151880013582	51200	0	0	2	51200	1	51200	1	53248	0	0.7	51200	purple	turquoise	1	6	ml	2.7.3	lorasick	sub-04_ses-02_task-ml_proj-lorasick_2020-11-17-14-02-44.442476
245	4	2	5	246	stable	8	200	46	vs	turquoise	purple	turquoise	purple	left	right	0.30000000000000004	0.7	2	10	0.6000000000000001	7.0	0	1	0.30000000000000004	0.7	2	10	0.6000000000000001	7.0	valid	0.5998633820017858	53248	0	1	2	53248	1	53248	1	53248	1	0.7	53248	purple	turquoise	1	10	ml	2.7.3	lorasick	sub-04_ses-02_task-ml_proj-lorasick_2020-11-17-14-02-44.442476
246	4	2	5	247	stable	8	200	47	vs	turquoise	purple	turquoise	purple	left	right	0.30000000000000004	0.7	10	2	3.0000000000000004	1.4	0	1	0.30000000000000004	0.7	10	2	3.0000000000000004	1.4	valid	0.6331799720028357	53248	0	1	2	51200	0	53248	1	51200	0	0.7	53248	purple	turquoise	0	2	ml	2.7.3	lorasick	sub-04_ses-02_task-ml_proj-lorasick_2020-11-17-14-02-44.442476
247	4	2	5	248	stable	8	200	48	vs	turquoise	purple	turquoise	purple	left	right	0.30000000000000004	0.7	4	2	1.2000000000000002	1.4	0	1	0.30000000000000004	0.7	4	2	1.2000000000000002	1.4	valid	0.4832299260015134	53248	0	1	2	53248	1	53248	1	51200	0	0.7	53248	purple	turquoise	0	2	ml	2.7.3	lorasick	sub-04_ses-02_task-ml_proj-lorasick_2020-11-17-14-02-44.442476
248	4	2	5	249	stable	8	200	49	vs	purple	turquoise	turquoise	purple	right	left	0.30000000000000004	0.7	6	4	1.8000000000000005	2.8	0	1	0.7	0.30000000000000004	4	6	2.8	1.8000000000000005	valid	0.3999083140006405	51200	0	0	2	51200	1	51200	1	53248	0	0.7	51200	purple	turquoise	0	4	ml	2.7.3	lorasick	sub-04_ses-02_task-ml_proj-lorasick_2020-11-17-14-02-44.442476
249	4	2	5	250	stable	8	200	50	vs	purple	turquoise	turquoise	purple	right	left	0.30000000000000004	0.7	10	2	3.0000000000000004	1.4	0	1	0.7	0.30000000000000004	2	10	1.4	3.0000000000000004	valid	0.43323865099955583	51200	0	0	2	53248	0	51200	1	53248	0	0.7	51200	purple	turquoise	0	2	ml	2.7.3	lorasick	sub-04_ses-02_task-ml_proj-lorasick_2020-11-17-14-02-44.442476
250	4	2	6	251	stable	8	200	51	vs	turquoise	purple	turquoise	purple	left	right	0.30000000000000004	0.7	2	4	0.6000000000000001	2.8	0	1	0.30000000000000004	0.7	2	4	0.6000000000000001	2.8	valid	0.8997827999992296	53248	0	1	2	53248	1	53248	1	53248	1	0.7	53248	purple	turquoise	1	4	ml	2.7.3	lorasick	sub-04_ses-02_task-ml_proj-lorasick_2020-11-17-14-02-44.442476
251	4	2	6	252	stable	8	200	52	vs	turquoise	purple	turquoise	purple	left	right	0.30000000000000004	0.7	6	6	1.8000000000000005	4.199999999999998	0	1	0.30000000000000004	0.7	6	6	1.8000000000000005	4.199999999999998	valid	0.6331865590000234	53248	0	1	2	53248	1	53248	1	53248	1	0.7	53248	purple	turquoise	0	6	ml	2.7.3	lorasick	sub-04_ses-02_task-ml_proj-lorasick_2020-11-17-14-02-44.442476
252	4	2	6	253	stable	8	200	53	vs	turquoise	purple	turquoise	purple	left	right	0.30000000000000004	0.7	10	2	3.0000000000000004	1.4	0	1	0.30000000000000004	0.7	10	2	3.0000000000000004	1.4	valid	0.7331637899987982	53248	0	1	2	51200	0	53248	1	51200	0	0.7	53248	purple	turquoise	0	2	ml	2.7.3	lorasick	sub-04_ses-02_task-ml_proj-lorasick_2020-11-17-14-02-44.442476
253	4	2	6	254	stable	8	200	54	vs	purple	turquoise	turquoise	purple	right	left	0.30000000000000004	0.7	2	6	0.6000000000000001	4.199999999999998	0	1	0.7	0.30000000000000004	6	2	4.199999999999998	0.6000000000000001	valid	0.4832186920029926	51200	0	0	2	51200	1	51200	1	51200	1	0.7	51200	purple	turquoise	1	6	ml	2.7.3	lorasick	sub-04_ses-02_task-ml_proj-lorasick_2020-11-17-14-02-44.442476
254	4	2	6	255	stable	8	200	55	vs	turquoise	purple	turquoise	purple	left	right	0.30000000000000004	0.7	2	2	0.6000000000000001	1.4	1	0	0.30000000000000004	0.7	2	2	0.6000000000000001	1.4	invalid	0.4499012610031059	53248	0	1	2	53248	1	53248	1	53248	1	0.7	53248	purple	turquoise	0	0	ml	2.7.3	lorasick	sub-04_ses-02_task-ml_proj-lorasick_2020-11-17-14-02-44.442476
255	4	2	6	256	stable	8	200	56	vs	purple	turquoise	turquoise	purple	right	left	0.30000000000000004	0.7	6	2	1.8000000000000005	1.4	0	1	0.7	0.30000000000000004	2	6	1.4	1.8000000000000005	valid	0.5831901370002015	51200	0	0	2	53248	0	51200	1	53248	0	0.7	51200	purple	turquoise	0	2	ml	2.7.3	lorasick	sub-04_ses-02_task-ml_proj-lorasick_2020-11-17-14-02-44.442476
256	4	2	6	257	stable	8	200	57	vs	turquoise	purple	turquoise	purple	left	right	0.30000000000000004	0.7	6	2	1.8000000000000005	1.4	0	1	0.30000000000000004	0.7	6	2	1.8000000000000005	1.4	valid	0.5332151609982247	53248	0	1	2	51200	0	53248	1	51200	0	0.7	53248	purple	turquoise	0	2	ml	2.7.3	lorasick	sub-04_ses-02_task-ml_proj-lorasick_2020-11-17-14-02-44.442476
257	4	2	6	258	stable	8	200	58	vs	turquoise	purple	turquoise	purple	left	right	0.30000000000000004	0.7	2	4	0.6000000000000001	2.8	0	1	0.30000000000000004	0.7	2	4	0.6000000000000001	2.8	valid	1.1663646689994491	53248	0	1	2	53248	1	53248	1	53248	1	0.7	53248	purple	turquoise	1	4	ml	2.7.3	lorasick	sub-04_ses-02_task-ml_proj-lorasick_2020-11-17-14-02-44.442476
258	4	2	6	259	stable	8	200	59	vs	turquoise	purple	turquoise	purple	left	right	0.30000000000000004	0.7	4	6	1.2000000000000002	4.199999999999998	0	1	0.30000000000000004	0.7	4	6	1.2000000000000002	4.199999999999998	valid	0.6831698149981094	53248	0	1	2	53248	1	53248	1	53248	1	0.7	53248	purple	turquoise	1	6	ml	2.7.3	lorasick	sub-04_ses-02_task-ml_proj-lorasick_2020-11-17-14-02-44.442476
259	4	2	6	260	stable	8	200	60	vs	turquoise	purple	turquoise	purple	left	right	0.30000000000000004	0.7	2	6	0.6000000000000001	4.199999999999998	0	1	0.30000000000000004	0.7	2	6	0.6000000000000001	4.199999999999998	valid	1.0330708809997304	53248	0	1	2	53248	1	53248	1	53248	1	0.7	53248	purple	turquoise	1	6	ml	2.7.3	lorasick	sub-04_ses-02_task-ml_proj-lorasick_2020-11-17-14-02-44.442476
260	4	2	6	261	stable	8	200	61	vs	turquoise	purple	turquoise	purple	left	right	0.30000000000000004	0.7	10	2	3.0000000000000004	1.4	1	0	0.30000000000000004	0.7	10	2	3.0000000000000004	1.4	invalid	0.6998340780010041	53248	0	1	2	51200	0	53248	1	51200	0	0.7	53248	purple	turquoise	0	0	ml	2.7.3	lorasick	sub-04_ses-02_task-ml_proj-lorasick_2020-11-17-14-02-44.442476
261	4	2	6	262	stable	8	200	62	vs	purple	turquoise	turquoise	purple	right	left	0.30000000000000004	0.7	4	2	1.2000000000000002	1.4	1	0	0.7	0.30000000000000004	2	4	1.4	1.2000000000000002	invalid	0.7998017639984027	51200	0	0	2	51200	1	51200	1	53248	0	0.7	51200	purple	turquoise	0	0	ml	2.7.3	lorasick	sub-04_ses-02_task-ml_proj-lorasick_2020-11-17-14-02-44.442476
262	4	2	6	263	stable	8	200	63	vs	turquoise	purple	turquoise	purple	left	right	0.30000000000000004	0.7	2	2	0.6000000000000001	1.4	0	1	0.30000000000000004	0.7	2	2	0.6000000000000001	1.4	valid	0.5498844110006758	53248	0	1	2	53248	1	53248	1	53248	1	0.7	53248	purple	turquoise	0	2	ml	2.7.3	lorasick	sub-04_ses-02_task-ml_proj-lorasick_2020-11-17-14-02-44.442476
263	4	2	6	264	stable	8	200	64	vs	purple	turquoise	turquoise	purple	right	left	0.30000000000000004	0.7	6	6	1.8000000000000005	4.199999999999998	0	1	0.7	0.30000000000000004	6	6	4.199999999999998	1.8000000000000005	valid	0.6998244809983589	51200	0	0	2	51200	1	51200	1	53248	0	0.7	51200	purple	turquoise	1	6	ml	2.7.3	lorasick	sub-04_ses-02_task-ml_proj-lorasick_2020-11-17-14-02-44.442476
264	4	2	6	265	stable	8	200	65	vs	turquoise	purple	turquoise	purple	left	right	0.30000000000000004	0.7	6	6	1.8000000000000005	4.199999999999998	0	1	0.30000000000000004	0.7	6	6	1.8000000000000005	4.199999999999998	valid	0.6331807509995997	53248	0	1	2	53248	1	53248	1	53248	1	0.7	53248	purple	turquoise	0	6	ml	2.7.3	lorasick	sub-04_ses-02_task-ml_proj-lorasick_2020-11-17-14-02-44.442476
265	4	2	6	266	stable	8	200	66	vs	purple	turquoise	turquoise	purple	right	left	0.30000000000000004	0.7	6	2	1.8000000000000005	1.4	0	1	0.7	0.30000000000000004	2	6	1.4	1.8000000000000005	valid	0.899771795997367	51200	0	0	2	53248	0	51200	1	53248	0	0.7	51200	purple	turquoise	0	2	ml	2.7.3	lorasick	sub-04_ses-02_task-ml_proj-lorasick_2020-11-17-14-02-44.442476
266	4	2	6	267	stable	8	200	67	vs	purple	turquoise	turquoise	purple	right	left	0.30000000000000004	0.7	2	6	0.6000000000000001	4.199999999999998	1	0	0.7	0.30000000000000004	6	2	4.199999999999998	0.6000000000000001	invalid	0.7664708580014121	51200	0	0	2	51200	1	51200	1	51200	1	0.7	51200	purple	turquoise	1	0	ml	2.7.3	lorasick	sub-04_ses-02_task-ml_proj-lorasick_2020-11-17-14-02-44.442476
267	4	2	6	268	stable	8	200	68	vs	turquoise	purple	turquoise	purple	left	right	0.30000000000000004	0.7	4	2	1.2000000000000002	1.4	1	0	0.30000000000000004	0.7	4	2	1.2000000000000002	1.4	invalid	0.4665701890007768	53248	0	1	2	53248	1	53248	1	51200	0	0.7	53248	purple	turquoise	0	0	ml	2.7.3	lorasick	sub-04_ses-02_task-ml_proj-lorasick_2020-11-17-14-02-44.442476
268	4	2	6	269	stable	8	200	69	vs	purple	turquoise	turquoise	purple	right	left	0.30000000000000004	0.7	2	10	0.6000000000000001	7.0	0	1	0.7	0.30000000000000004	10	2	7.0	0.6000000000000001	valid	1.0330681499981438	53248	0	1	1	51200	0	51200	0	51200	0	0.7	51200	purple	turquoise	1	0	ml	2.7.3	lorasick	sub-04_ses-02_task-ml_proj-lorasick_2020-11-17-14-02-44.442476
269	4	2	6	270	stable	8	200	70	vs	purple	turquoise	turquoise	purple	right	left	0.30000000000000004	0.7	10	2	3.0000000000000004	1.4	1	0	0.7	0.30000000000000004	2	10	1.4	3.0000000000000004	invalid	0.7997918180008128	51200	0	0	2	53248	0	51200	1	53248	0	0.7	51200	purple	turquoise	0	0	ml	2.7.3	lorasick	sub-04_ses-02_task-ml_proj-lorasick_2020-11-17-14-02-44.442476
270	4	2	6	271	stable	8	200	71	vs	turquoise	purple	turquoise	purple	left	right	0.30000000000000004	0.7	2	2	0.6000000000000001	1.4	0	1	0.30000000000000004	0.7	2	2	0.6000000000000001	1.4	valid	0.5831885560000956	51200	0	0	1	53248	0	53248	0	53248	0	0.7	53248	purple	turquoise	0	0	ml	2.7.3	lorasick	sub-04_ses-02_task-ml_proj-lorasick_2020-11-17-14-02-44.442476
