Unnamed: 0	sub_id	ses_id	block_no	trial_no	phase_type	phase_no	phase_length	trialInPhase_no	phase_type_order	color_left	color_right	color1	color2	position1	position2	prob1	prob2	mag1	mag2	ev1	ev2	outcome1	outcome2	prob_left	prob_right	mag_left	mag_right	ev_left	ev_right	reward_validity	resp_time	resp_key	timeout	choice_side	choice	ev_corr_resp	ev_correct	prob_corr_resp	prob_correct	mag_corr_resp	mag_correct	high_prob	high_prob_side	high_prob_color	low_prob_color	no_brain	reward	name	version	proj_id	logFileID
0	11	2	1	1	stable	1	200	1	sv	blue	red	red	blue	right	left	0.7	0.30000000000000004	10	2	7.0	0.6000000000000001	1	0	0.30000000000000004	0.7	2	10	0.6000000000000001	7.0	valid	0.7498169940008665	53248	0	1	1	53248	1	53248	1	53248	1	0.7	53248	red	blue	1	10	ml	2.7.3	lorasick	sub-11_ses-02_task-ml_proj-lorasick_2021-03-09-14-07-27.312513
1	11	2	1	2	stable	1	200	2	sv	blue	red	red	blue	right	left	0.7	0.30000000000000004	2	6	1.4	1.8000000000000005	1	0	0.30000000000000004	0.7	6	2	1.8000000000000005	1.4	valid	1.6162329220023819	53248	0	1	1	51200	0	53248	1	51200	0	0.7	53248	red	blue	0	2	ml	2.7.3	lorasick	sub-11_ses-02_task-ml_proj-lorasick_2021-03-09-14-07-27.312513
2	11	2	1	3	stable	1	200	3	sv	blue	red	red	blue	right	left	0.7	0.30000000000000004	6	4	4.199999999999998	1.2000000000000002	1	0	0.30000000000000004	0.7	4	6	1.2000000000000002	4.199999999999998	valid	0.7664804249980078	53248	0	1	1	53248	1	53248	1	53248	1	0.7	53248	red	blue	1	6	ml	2.7.3	lorasick	sub-11_ses-02_task-ml_proj-lorasick_2021-03-09-14-07-27.312513
3	11	2	1	4	stable	1	200	4	sv	blue	red	red	blue	right	left	0.7	0.30000000000000004	10	2	7.0	0.6000000000000001	1	0	0.30000000000000004	0.7	2	10	0.6000000000000001	7.0	valid	0.5998626469990995	53248	0	1	1	53248	1	53248	1	53248	1	0.7	53248	red	blue	1	10	ml	2.7.3	lorasick	sub-11_ses-02_task-ml_proj-lorasick_2021-03-09-14-07-27.312513
4	11	2	1	5	stable	1	200	5	sv	blue	red	red	blue	right	left	0.7	0.30000000000000004	4	2	2.8	0.6000000000000001	1	0	0.30000000000000004	0.7	2	4	0.6000000000000001	2.8	valid	0.6665096889992128	53248	0	1	1	53248	1	53248	1	53248	1	0.7	53248	red	blue	1	4	ml	2.7.3	lorasick	sub-11_ses-02_task-ml_proj-lorasick_2021-03-09-14-07-27.312513
5	11	2	1	6	stable	1	200	6	sv	red	blue	red	blue	left	right	0.7	0.30000000000000004	6	2	4.199999999999998	0.6000000000000001	1	0	0.7	0.30000000000000004	6	2	4.199999999999998	0.6000000000000001	valid	0.6331771840013971	51200	0	0	1	51200	1	51200	1	51200	1	0.7	51200	red	blue	1	6	ml	2.7.3	lorasick	sub-11_ses-02_task-ml_proj-lorasick_2021-03-09-14-07-27.312513
6	11	2	1	7	stable	1	200	7	sv	red	blue	red	blue	left	right	0.7	0.30000000000000004	2	6	1.4	1.8000000000000005	1	0	0.7	0.30000000000000004	2	6	1.4	1.8000000000000005	valid	1.4496040239973809	51200	0	0	1	53248	0	51200	1	53248	0	0.7	51200	red	blue	0	2	ml	2.7.3	lorasick	sub-11_ses-02_task-ml_proj-lorasick_2021-03-09-14-07-27.312513
7	11	2	1	8	stable	1	200	8	sv	red	blue	red	blue	left	right	0.7	0.30000000000000004	4	2	2.8	0.6000000000000001	0	1	0.7	0.30000000000000004	4	2	2.8	0.6000000000000001	invalid	0.9164247959997738	51200	0	0	1	51200	1	51200	1	51200	1	0.7	51200	red	blue	1	0	ml	2.7.3	lorasick	sub-11_ses-02_task-ml_proj-lorasick_2021-03-09-14-07-27.312513
8	11	2	1	9	stable	1	200	9	sv	blue	red	red	blue	right	left	0.7	0.30000000000000004	4	6	2.8	1.8000000000000005	1	0	0.30000000000000004	0.7	6	4	1.8000000000000005	2.8	valid	0.8497809780019452	51200	0	0	2	53248	0	53248	0	51200	1	0.7	53248	red	blue	0	0	ml	2.7.3	lorasick	sub-11_ses-02_task-ml_proj-lorasick_2021-03-09-14-07-27.312513
9	11	2	1	10	stable	1	200	10	sv	red	blue	red	blue	left	right	0.7	0.30000000000000004	6	6	4.199999999999998	1.8000000000000005	1	0	0.7	0.30000000000000004	6	6	4.199999999999998	1.8000000000000005	valid	1.2163411199981056	51200	0	0	1	51200	1	51200	1	53248	0	0.7	51200	red	blue	1	6	ml	2.7.3	lorasick	sub-11_ses-02_task-ml_proj-lorasick_2021-03-09-14-07-27.312513
10	11	2	1	11	stable	1	200	11	sv	red	blue	red	blue	left	right	0.7	0.30000000000000004	2	10	1.4	3.0000000000000004	1	0	0.7	0.30000000000000004	2	10	1.4	3.0000000000000004	valid	0.9497711839976546	53248	0	1	2	53248	1	51200	0	53248	1	0.7	51200	red	blue	0	0	ml	2.7.3	lorasick	sub-11_ses-02_task-ml_proj-lorasick_2021-03-09-14-07-27.312513
11	11	2	1	12	stable	1	200	12	sv	red	blue	red	blue	left	right	0.7	0.30000000000000004	4	2	2.8	0.6000000000000001	1	0	0.7	0.30000000000000004	4	2	2.8	0.6000000000000001	valid	0.8664400540001225	51200	0	0	1	51200	1	51200	1	51200	1	0.7	51200	red	blue	1	4	ml	2.7.3	lorasick	sub-11_ses-02_task-ml_proj-lorasick_2021-03-09-14-07-27.312513
12	11	2	1	13	stable	1	200	13	sv	blue	red	red	blue	right	left	0.7	0.30000000000000004	2	6	1.4	1.8000000000000005	0	1	0.30000000000000004	0.7	6	2	1.8000000000000005	1.4	invalid	1.482941356000083	53248	0	1	1	51200	0	53248	1	51200	0	0.7	53248	red	blue	0	0	ml	2.7.3	lorasick	sub-11_ses-02_task-ml_proj-lorasick_2021-03-09-14-07-27.312513
13	11	2	1	14	stable	1	200	14	sv	red	blue	red	blue	left	right	0.7	0.30000000000000004	6	6	4.199999999999998	1.8000000000000005	1	0	0.7	0.30000000000000004	6	6	4.199999999999998	1.8000000000000005	valid	0.6665102730003127	53248	0	1	2	51200	0	51200	0	53248	1	0.7	51200	red	blue	1	0	ml	2.7.3	lorasick	sub-11_ses-02_task-ml_proj-lorasick_2021-03-09-14-07-27.312513
14	11	2	1	15	stable	1	200	15	sv	blue	red	red	blue	right	left	0.7	0.30000000000000004	2	2	1.4	0.6000000000000001	0	1	0.30000000000000004	0.7	2	2	0.6000000000000001	1.4	invalid	1.1497060779984167	53248	0	1	1	53248	1	53248	1	53248	1	0.7	53248	red	blue	0	0	ml	2.7.3	lorasick	sub-11_ses-02_task-ml_proj-lorasick_2021-03-09-14-07-27.312513
15	11	2	1	16	stable	1	200	16	sv	blue	red	red	blue	right	left	0.7	0.30000000000000004	2	4	1.4	1.2000000000000002	1	0	0.30000000000000004	0.7	4	2	1.2000000000000002	1.4	valid	0.8664393620019837	51200	0	0	2	53248	0	53248	0	51200	1	0.7	53248	red	blue	0	0	ml	2.7.3	lorasick	sub-11_ses-02_task-ml_proj-lorasick_2021-03-09-14-07-27.312513
16	11	2	1	17	stable	1	200	17	sv	blue	red	red	blue	right	left	0.7	0.30000000000000004	2	4	1.4	1.2000000000000002	1	0	0.30000000000000004	0.7	4	2	1.2000000000000002	1.4	valid	0.6831624010010273	51200	0	0	2	53248	0	53248	0	51200	1	0.7	53248	red	blue	0	0	ml	2.7.3	lorasick	sub-11_ses-02_task-ml_proj-lorasick_2021-03-09-14-07-27.312513
17	11	2	1	18	stable	1	200	18	sv	blue	red	red	blue	right	left	0.7	0.30000000000000004	6	2	4.199999999999998	0.6000000000000001	1	0	0.30000000000000004	0.7	2	6	0.6000000000000001	4.199999999999998	valid	0.683170740998321	53248	0	1	1	53248	1	53248	1	53248	1	0.7	53248	red	blue	1	6	ml	2.7.3	lorasick	sub-11_ses-02_task-ml_proj-lorasick_2021-03-09-14-07-27.312513
18	11	2	1	19	stable	1	200	19	sv	red	blue	red	blue	left	right	0.7	0.30000000000000004	6	6	4.199999999999998	1.8000000000000005	1	0	0.7	0.30000000000000004	6	6	4.199999999999998	1.8000000000000005	valid	0.9997355330015124	51200	0	0	1	51200	1	51200	1	53248	0	0.7	51200	red	blue	1	6	ml	2.7.3	lorasick	sub-11_ses-02_task-ml_proj-lorasick_2021-03-09-14-07-27.312513
19	11	2	1	20	stable	1	200	20	sv	blue	red	red	blue	right	left	0.7	0.30000000000000004	4	6	2.8	1.8000000000000005	1	0	0.30000000000000004	0.7	6	4	1.8000000000000005	2.8	valid	0.9330977399986295	53248	0	1	1	53248	1	53248	1	51200	0	0.7	53248	red	blue	0	4	ml	2.7.3	lorasick	sub-11_ses-02_task-ml_proj-lorasick_2021-03-09-14-07-27.312513
20	11	2	1	21	stable	1	200	21	sv	blue	red	red	blue	right	left	0.7	0.30000000000000004	2	6	1.4	1.8000000000000005	0	1	0.30000000000000004	0.7	6	2	1.8000000000000005	1.4	invalid	1.133024728998862	51200	0	0	2	51200	1	53248	0	51200	1	0.7	53248	red	blue	0	6	ml	2.7.3	lorasick	sub-11_ses-02_task-ml_proj-lorasick_2021-03-09-14-07-27.312513
21	11	2	1	22	stable	1	200	22	sv	red	blue	red	blue	left	right	0.7	0.30000000000000004	2	10	1.4	3.0000000000000004	1	0	0.7	0.30000000000000004	2	10	1.4	3.0000000000000004	valid	0.7164971929996682	53248	0	1	2	53248	1	51200	0	53248	1	0.7	51200	red	blue	0	0	ml	2.7.3	lorasick	sub-11_ses-02_task-ml_proj-lorasick_2021-03-09-14-07-27.312513
22	11	2	1	23	stable	1	200	23	sv	red	blue	red	blue	left	right	0.7	0.30000000000000004	2	4	1.4	1.2000000000000002	1	0	0.7	0.30000000000000004	2	4	1.4	1.2000000000000002	valid	0.966407830001117	51200	0	0	1	51200	1	51200	1	53248	0	0.7	51200	red	blue	0	2	ml	2.7.3	lorasick	sub-11_ses-02_task-ml_proj-lorasick_2021-03-09-14-07-27.312513
23	11	2	1	24	stable	1	200	24	sv	blue	red	red	blue	right	left	0.7	0.30000000000000004	6	4	4.199999999999998	1.2000000000000002	1	0	0.30000000000000004	0.7	4	6	1.2000000000000002	4.199999999999998	valid	0.6831714809995901	53248	0	1	1	53248	1	53248	1	53248	1	0.7	53248	red	blue	1	6	ml	2.7.3	lorasick	sub-11_ses-02_task-ml_proj-lorasick_2021-03-09-14-07-27.312513
24	11	2	1	25	stable	1	200	25	sv	red	blue	red	blue	left	right	0.7	0.30000000000000004	6	6	4.199999999999998	1.8000000000000005	0	1	0.7	0.30000000000000004	6	6	4.199999999999998	1.8000000000000005	invalid	0.7831378789996961	51200	0	0	1	51200	1	51200	1	53248	0	0.7	51200	red	blue	1	0	ml	2.7.3	lorasick	sub-11_ses-02_task-ml_proj-lorasick_2021-03-09-14-07-27.312513
25	11	2	1	26	stable	1	200	26	sv	red	blue	red	blue	left	right	0.7	0.30000000000000004	6	4	4.199999999999998	1.2000000000000002	1	0	0.7	0.30000000000000004	6	4	4.199999999999998	1.2000000000000002	valid	0.7997929609991843	51200	0	0	1	51200	1	51200	1	51200	1	0.7	51200	red	blue	1	6	ml	2.7.3	lorasick	sub-11_ses-02_task-ml_proj-lorasick_2021-03-09-14-07-27.312513
26	11	2	1	27	stable	1	200	27	sv	red	blue	red	blue	left	right	0.7	0.30000000000000004	6	6	4.199999999999998	1.8000000000000005	1	0	0.7	0.30000000000000004	6	6	4.199999999999998	1.8000000000000005	valid	0.73315525200087	51200	0	0	1	51200	1	51200	1	53248	0	0.7	51200	red	blue	1	6	ml	2.7.3	lorasick	sub-11_ses-02_task-ml_proj-lorasick_2021-03-09-14-07-27.312513
27	11	2	1	28	stable	1	200	28	sv	red	blue	red	blue	left	right	0.7	0.30000000000000004	2	6	1.4	1.8000000000000005	0	1	0.7	0.30000000000000004	2	6	1.4	1.8000000000000005	invalid	1.5329269130015746	53248	0	1	2	53248	1	51200	0	53248	1	0.7	51200	red	blue	0	6	ml	2.7.3	lorasick	sub-11_ses-02_task-ml_proj-lorasick_2021-03-09-14-07-27.312513
28	11	2	1	29	stable	1	200	29	sv	red	blue	red	blue	left	right	0.7	0.30000000000000004	2	4	1.4	1.2000000000000002	0	1	0.7	0.30000000000000004	2	4	1.4	1.2000000000000002	invalid	1.1497035909997066	53248	0	1	2	51200	0	51200	0	53248	1	0.7	51200	red	blue	0	4	ml	2.7.3	lorasick	sub-11_ses-02_task-ml_proj-lorasick_2021-03-09-14-07-27.312513
29	11	2	1	30	stable	1	200	30	sv	red	blue	red	blue	left	right	0.7	0.30000000000000004	4	2	2.8	0.6000000000000001	1	0	0.7	0.30000000000000004	4	2	2.8	0.6000000000000001	valid	1.0830540739989374	53248	0	1	2	51200	0	51200	0	51200	0	0.7	51200	red	blue	1	0	ml	2.7.3	lorasick	sub-11_ses-02_task-ml_proj-lorasick_2021-03-09-14-07-27.312513
30	11	2	1	31	stable	1	200	31	sv	red	blue	red	blue	left	right	0.7	0.30000000000000004	2	4	1.4	1.2000000000000002	1	0	0.7	0.30000000000000004	2	4	1.4	1.2000000000000002	valid	1.2163476039968373	51200	0	0	1	51200	1	51200	1	53248	0	0.7	51200	red	blue	0	2	ml	2.7.3	lorasick	sub-11_ses-02_task-ml_proj-lorasick_2021-03-09-14-07-27.312513
31	11	2	1	32	stable	1	200	32	sv	blue	red	red	blue	right	left	0.7	0.30000000000000004	2	6	1.4	1.8000000000000005	1	0	0.30000000000000004	0.7	6	2	1.8000000000000005	1.4	valid	1.1164007119987218	51200	0	0	2	51200	1	53248	0	51200	1	0.7	53248	red	blue	0	0	ml	2.7.3	lorasick	sub-11_ses-02_task-ml_proj-lorasick_2021-03-09-14-07-27.312513
32	11	2	1	33	stable	1	200	33	sv	red	blue	red	blue	left	right	0.7	0.30000000000000004	4	6	2.8	1.8000000000000005	1	0	0.7	0.30000000000000004	4	6	2.8	1.8000000000000005	valid	0.7498147779988358	53248	0	1	2	51200	0	51200	0	53248	1	0.7	51200	red	blue	0	0	ml	2.7.3	lorasick	sub-11_ses-02_task-ml_proj-lorasick_2021-03-09-14-07-27.312513
33	11	2	1	34	stable	1	200	34	sv	red	blue	red	blue	left	right	0.7	0.30000000000000004	4	6	2.8	1.8000000000000005	0	1	0.7	0.30000000000000004	4	6	2.8	1.8000000000000005	invalid	0.6331822550018842	51200	0	0	1	51200	1	51200	1	53248	0	0.7	51200	red	blue	0	0	ml	2.7.3	lorasick	sub-11_ses-02_task-ml_proj-lorasick_2021-03-09-14-07-27.312513
34	11	2	1	35	stable	1	200	35	sv	red	blue	red	blue	left	right	0.7	0.30000000000000004	4	2	2.8	0.6000000000000001	1	0	0.7	0.30000000000000004	4	2	2.8	0.6000000000000001	valid	0.6331846090033649	51200	0	0	1	51200	1	51200	1	51200	1	0.7	51200	red	blue	1	4	ml	2.7.3	lorasick	sub-11_ses-02_task-ml_proj-lorasick_2021-03-09-14-07-27.312513
35	11	2	1	36	stable	1	200	36	sv	blue	red	red	blue	right	left	0.7	0.30000000000000004	2	10	1.4	3.0000000000000004	1	0	0.30000000000000004	0.7	10	2	3.0000000000000004	1.4	valid	1.216333279000537	51200	0	0	2	51200	1	53248	0	51200	1	0.7	53248	red	blue	0	0	ml	2.7.3	lorasick	sub-11_ses-02_task-ml_proj-lorasick_2021-03-09-14-07-27.312513
36	11	2	1	37	stable	1	200	37	sv	blue	red	red	blue	right	left	0.7	0.30000000000000004	6	4	4.199999999999998	1.2000000000000002	1	0	0.30000000000000004	0.7	4	6	1.2000000000000002	4.199999999999998	valid	0.6331879930003197	53248	0	1	1	53248	1	53248	1	53248	1	0.7	53248	red	blue	1	6	ml	2.7.3	lorasick	sub-11_ses-02_task-ml_proj-lorasick_2021-03-09-14-07-27.312513
37	11	2	1	38	stable	1	200	38	sv	blue	red	red	blue	right	left	0.7	0.30000000000000004	6	6	4.199999999999998	1.8000000000000005	1	0	0.30000000000000004	0.7	6	6	1.8000000000000005	4.199999999999998	valid	0.6665115959985997	53248	0	1	1	53248	1	53248	1	53248	1	0.7	53248	red	blue	0	6	ml	2.7.3	lorasick	sub-11_ses-02_task-ml_proj-lorasick_2021-03-09-14-07-27.312513
38	11	2	1	39	stable	1	200	39	sv	blue	red	red	blue	right	left	0.7	0.30000000000000004	4	2	2.8	0.6000000000000001	1	0	0.30000000000000004	0.7	2	4	0.6000000000000001	2.8	valid	0.7998051710019354	53248	0	1	1	53248	1	53248	1	53248	1	0.7	53248	red	blue	1	4	ml	2.7.3	lorasick	sub-11_ses-02_task-ml_proj-lorasick_2021-03-09-14-07-27.312513
39	11	2	1	40	stable	1	200	40	sv	blue	red	red	blue	right	left	0.7	0.30000000000000004	4	6	2.8	1.8000000000000005	1	0	0.30000000000000004	0.7	6	4	1.8000000000000005	2.8	valid	1.2496743330011668	53248	0	1	1	53248	1	53248	1	51200	0	0.7	53248	red	blue	0	4	ml	2.7.3	lorasick	sub-11_ses-02_task-ml_proj-lorasick_2021-03-09-14-07-27.312513
40	11	2	1	41	stable	1	200	41	sv	red	blue	red	blue	left	right	0.7	0.30000000000000004	10	2	7.0	0.6000000000000001	1	0	0.7	0.30000000000000004	10	2	7.0	0.6000000000000001	valid	0.6831618739997793	51200	0	0	1	51200	1	51200	1	51200	1	0.7	51200	red	blue	1	10	ml	2.7.3	lorasick	sub-11_ses-02_task-ml_proj-lorasick_2021-03-09-14-07-27.312513
41	11	2	1	42	stable	1	200	42	sv	red	blue	red	blue	left	right	0.7	0.30000000000000004	4	2	2.8	0.6000000000000001	1	0	0.7	0.30000000000000004	4	2	2.8	0.6000000000000001	valid	0.6331764069982455	51200	0	0	1	51200	1	51200	1	51200	1	0.7	51200	red	blue	1	4	ml	2.7.3	lorasick	sub-11_ses-02_task-ml_proj-lorasick_2021-03-09-14-07-27.312513
42	11	2	1	43	stable	1	200	43	sv	red	blue	red	blue	left	right	0.7	0.30000000000000004	2	6	1.4	1.8000000000000005	1	0	0.7	0.30000000000000004	2	6	1.4	1.8000000000000005	valid	1.5329146699987175	51200	0	0	1	53248	0	51200	1	53248	0	0.7	51200	red	blue	0	2	ml	2.7.3	lorasick	sub-11_ses-02_task-ml_proj-lorasick_2021-03-09-14-07-27.312513
43	11	2	1	44	stable	1	200	44	sv	blue	red	red	blue	right	left	0.7	0.30000000000000004	10	2	7.0	0.6000000000000001	1	0	0.30000000000000004	0.7	2	10	0.6000000000000001	7.0	valid	0.6665135660005035	53248	0	1	1	53248	1	53248	1	53248	1	0.7	53248	red	blue	1	10	ml	2.7.3	lorasick	sub-11_ses-02_task-ml_proj-lorasick_2021-03-09-14-07-27.312513
44	11	2	1	45	stable	1	200	45	sv	red	blue	red	blue	left	right	0.7	0.30000000000000004	2	4	1.4	1.2000000000000002	0	1	0.7	0.30000000000000004	2	4	1.4	1.2000000000000002	invalid	0.7998021640014485	51200	0	0	1	51200	1	51200	1	53248	0	0.7	51200	red	blue	0	0	ml	2.7.3	lorasick	sub-11_ses-02_task-ml_proj-lorasick_2021-03-09-14-07-27.312513
45	11	2	1	46	stable	1	200	46	sv	red	blue	red	blue	left	right	0.7	0.30000000000000004	4	6	2.8	1.8000000000000005	1	0	0.7	0.30000000000000004	4	6	2.8	1.8000000000000005	valid	0.8664351730003546	51200	0	0	1	51200	1	51200	1	53248	0	0.7	51200	red	blue	0	4	ml	2.7.3	lorasick	sub-11_ses-02_task-ml_proj-lorasick_2021-03-09-14-07-27.312513
46	11	2	1	47	stable	1	200	47	sv	red	blue	red	blue	left	right	0.7	0.30000000000000004	4	2	2.8	0.6000000000000001	1	0	0.7	0.30000000000000004	4	2	2.8	0.6000000000000001	valid	0.5832030910023605	51200	0	0	1	51200	1	51200	1	51200	1	0.7	51200	red	blue	1	4	ml	2.7.3	lorasick	sub-11_ses-02_task-ml_proj-lorasick_2021-03-09-14-07-27.312513
47	11	2	1	48	stable	1	200	48	sv	red	blue	red	blue	left	right	0.7	0.30000000000000004	4	2	2.8	0.6000000000000001	0	1	0.7	0.30000000000000004	4	2	2.8	0.6000000000000001	invalid	0.6831614200018521	51200	0	0	1	51200	1	51200	1	51200	1	0.7	51200	red	blue	1	0	ml	2.7.3	lorasick	sub-11_ses-02_task-ml_proj-lorasick_2021-03-09-14-07-27.312513
48	11	2	1	49	stable	1	200	49	sv	red	blue	red	blue	left	right	0.7	0.30000000000000004	10	2	7.0	0.6000000000000001	1	0	0.7	0.30000000000000004	10	2	7.0	0.6000000000000001	valid	1.0330543300005957	51200	0	0	1	51200	1	51200	1	51200	1	0.7	51200	red	blue	1	10	ml	2.7.3	lorasick	sub-11_ses-02_task-ml_proj-lorasick_2021-03-09-14-07-27.312513
49	11	2	1	50	stable	1	200	50	sv	red	blue	red	blue	left	right	0.7	0.30000000000000004	4	6	2.8	1.8000000000000005	1	0	0.7	0.30000000000000004	4	6	2.8	1.8000000000000005	valid	1.2330006020019937	51200	0	0	1	51200	1	51200	1	53248	0	0.7	51200	red	blue	0	4	ml	2.7.3	lorasick	sub-11_ses-02_task-ml_proj-lorasick_2021-03-09-14-07-27.312513
50	11	2	2	51	stable	1	200	51	sv	red	blue	red	blue	left	right	0.7	0.30000000000000004	4	2	2.8	0.6000000000000001	0	1	0.7	0.30000000000000004	4	2	2.8	0.6000000000000001	invalid	0.9830720089994428	51200	0	0	1	51200	1	51200	1	51200	1	0.7	51200	red	blue	1	0	ml	2.7.3	lorasick	sub-11_ses-02_task-ml_proj-lorasick_2021-03-09-14-07-27.312513
51	11	2	2	52	stable	1	200	52	sv	blue	red	red	blue	right	left	0.7	0.30000000000000004	6	6	4.199999999999998	1.8000000000000005	1	0	0.30000000000000004	0.7	6	6	1.8000000000000005	4.199999999999998	valid	0.6165181590004067	51200	0	0	2	53248	0	53248	0	53248	0	0.7	53248	red	blue	0	0	ml	2.7.3	lorasick	sub-11_ses-02_task-ml_proj-lorasick_2021-03-09-14-07-27.312513
52	11	2	2	53	stable	1	200	53	sv	red	blue	red	blue	left	right	0.7	0.30000000000000004	4	6	2.8	1.8000000000000005	1	0	0.7	0.30000000000000004	4	6	2.8	1.8000000000000005	valid	0.7498209940022207	53248	0	1	2	51200	0	51200	0	53248	1	0.7	51200	red	blue	0	0	ml	2.7.3	lorasick	sub-11_ses-02_task-ml_proj-lorasick_2021-03-09-14-07-27.312513
53	11	2	2	54	stable	1	200	54	sv	red	blue	red	blue	left	right	0.7	0.30000000000000004	6	6	4.199999999999998	1.8000000000000005	1	0	0.7	0.30000000000000004	6	6	4.199999999999998	1.8000000000000005	valid	0.5831891909983824	51200	0	0	1	51200	1	51200	1	53248	0	0.7	51200	red	blue	1	6	ml	2.7.3	lorasick	sub-11_ses-02_task-ml_proj-lorasick_2021-03-09-14-07-27.312513
54	11	2	2	55	stable	1	200	55	sv	blue	red	red	blue	right	left	0.7	0.30000000000000004	4	2	2.8	0.6000000000000001	0	1	0.30000000000000004	0.7	2	4	0.6000000000000001	2.8	invalid	0.5832010949998221	53248	0	1	1	53248	1	53248	1	53248	1	0.7	53248	red	blue	1	0	ml	2.7.3	lorasick	sub-11_ses-02_task-ml_proj-lorasick_2021-03-09-14-07-27.312513
55	11	2	2	56	stable	1	200	56	sv	blue	red	red	blue	right	left	0.7	0.30000000000000004	2	10	1.4	3.0000000000000004	1	0	0.30000000000000004	0.7	10	2	3.0000000000000004	1.4	valid	0.7498118609983067	51200	0	0	2	51200	1	53248	0	51200	1	0.7	53248	red	blue	0	0	ml	2.7.3	lorasick	sub-11_ses-02_task-ml_proj-lorasick_2021-03-09-14-07-27.312513
56	11	2	2	57	stable	1	200	57	sv	blue	red	red	blue	right	left	0.7	0.30000000000000004	2	4	1.4	1.2000000000000002	1	0	0.30000000000000004	0.7	4	2	1.2000000000000002	1.4	valid	1.2330025859992022	51200	0	0	2	53248	0	53248	0	51200	1	0.7	53248	red	blue	0	0	ml	2.7.3	lorasick	sub-11_ses-02_task-ml_proj-lorasick_2021-03-09-14-07-27.312513
57	11	2	2	58	stable	1	200	58	sv	red	blue	red	blue	left	right	0.7	0.30000000000000004	2	10	1.4	3.0000000000000004	1	0	0.7	0.30000000000000004	2	10	1.4	3.0000000000000004	valid	1.2163733609995688	53248	0	1	2	53248	1	51200	0	53248	1	0.7	51200	red	blue	0	0	ml	2.7.3	lorasick	sub-11_ses-02_task-ml_proj-lorasick_2021-03-09-14-07-27.312513
58	11	2	2	59	stable	1	200	59	sv	red	blue	red	blue	left	right	0.7	0.30000000000000004	4	2	2.8	0.6000000000000001	0	1	0.7	0.30000000000000004	4	2	2.8	0.6000000000000001	invalid	0.6665010190008616	51200	0	0	1	51200	1	51200	1	51200	1	0.7	51200	red	blue	1	0	ml	2.7.3	lorasick	sub-11_ses-02_task-ml_proj-lorasick_2021-03-09-14-07-27.312513
59	11	2	2	60	stable	1	200	60	sv	blue	red	red	blue	right	left	0.7	0.30000000000000004	2	6	1.4	1.8000000000000005	1	0	0.30000000000000004	0.7	6	2	1.8000000000000005	1.4	valid	0.9164279929973418	51200	0	0	2	51200	1	53248	0	51200	1	0.7	53248	red	blue	0	0	ml	2.7.3	lorasick	sub-11_ses-02_task-ml_proj-lorasick_2021-03-09-14-07-27.312513
60	11	2	2	61	stable	1	200	61	sv	blue	red	red	blue	right	left	0.7	0.30000000000000004	2	4	1.4	1.2000000000000002	0	1	0.30000000000000004	0.7	4	2	1.2000000000000002	1.4	invalid	1.199689136003144	53248	0	1	1	53248	1	53248	1	51200	0	0.7	53248	red	blue	0	0	ml	2.7.3	lorasick	sub-11_ses-02_task-ml_proj-lorasick_2021-03-09-14-07-27.312513
61	11	2	2	62	stable	1	200	62	sv	blue	red	red	blue	right	left	0.7	0.30000000000000004	4	2	2.8	0.6000000000000001	1	0	0.30000000000000004	0.7	2	4	0.6000000000000001	2.8	valid	1.3663125219973151	53248	0	1	1	53248	1	53248	1	53248	1	0.7	53248	red	blue	1	4	ml	2.7.3	lorasick	sub-11_ses-02_task-ml_proj-lorasick_2021-03-09-14-07-27.312513
62	11	2	2	63	stable	1	200	63	sv	red	blue	red	blue	left	right	0.7	0.30000000000000004	2	6	1.4	1.8000000000000005	1	0	0.7	0.30000000000000004	2	6	1.4	1.8000000000000005	valid	0.9330968189970008	53248	0	1	2	53248	1	51200	0	53248	1	0.7	51200	red	blue	0	0	ml	2.7.3	lorasick	sub-11_ses-02_task-ml_proj-lorasick_2021-03-09-14-07-27.312513
63	11	2	2	64	stable	1	200	64	sv	red	blue	red	blue	left	right	0.7	0.30000000000000004	10	2	7.0	0.6000000000000001	0	1	0.7	0.30000000000000004	10	2	7.0	0.6000000000000001	invalid	0.6664998519991059	51200	0	0	1	51200	1	51200	1	51200	1	0.7	51200	red	blue	1	0	ml	2.7.3	lorasick	sub-11_ses-02_task-ml_proj-lorasick_2021-03-09-14-07-27.312513
64	11	2	2	65	stable	1	200	65	sv	blue	red	red	blue	right	left	0.7	0.30000000000000004	6	6	4.199999999999998	1.8000000000000005	1	0	0.30000000000000004	0.7	6	6	1.8000000000000005	4.199999999999998	valid	1.7495292669991611	53248	0	1	1	53248	1	53248	1	53248	1	0.7	53248	red	blue	0	6	ml	2.7.3	lorasick	sub-11_ses-02_task-ml_proj-lorasick_2021-03-09-14-07-27.312513
65	11	2	2	66	stable	1	200	66	sv	blue	red	red	blue	right	left	0.7	0.30000000000000004	4	6	2.8	1.8000000000000005	0	1	0.30000000000000004	0.7	6	4	1.8000000000000005	2.8	invalid	1.3996297740013688	53248	0	1	1	53248	1	53248	1	51200	0	0.7	53248	red	blue	0	0	ml	2.7.3	lorasick	sub-11_ses-02_task-ml_proj-lorasick_2021-03-09-14-07-27.312513
66	11	2	2	67	stable	1	200	67	sv	blue	red	red	blue	right	left	0.7	0.30000000000000004	6	6	4.199999999999998	1.8000000000000005	0	1	0.30000000000000004	0.7	6	6	1.8000000000000005	4.199999999999998	invalid	0.6998336660035419	53248	0	1	1	53248	1	53248	1	53248	1	0.7	53248	red	blue	0	0	ml	2.7.3	lorasick	sub-11_ses-02_task-ml_proj-lorasick_2021-03-09-14-07-27.312513
67	11	2	2	68	stable	1	200	68	sv	red	blue	red	blue	left	right	0.7	0.30000000000000004	6	4	4.199999999999998	1.2000000000000002	0	1	0.7	0.30000000000000004	6	4	4.199999999999998	1.2000000000000002	invalid	1.8161635189972003	51200	0	0	1	51200	1	51200	1	51200	1	0.7	51200	red	blue	1	0	ml	2.7.3	lorasick	sub-11_ses-02_task-ml_proj-lorasick_2021-03-09-14-07-27.312513
68	11	2	2	69	stable	1	200	69	sv	blue	red	red	blue	right	left	0.7	0.30000000000000004	4	6	2.8	1.8000000000000005	0	1	0.30000000000000004	0.7	6	4	1.8000000000000005	2.8	invalid	1.1163698729978933	51200	0	0	2	53248	0	53248	0	51200	1	0.7	53248	red	blue	0	6	ml	2.7.3	lorasick	sub-11_ses-02_task-ml_proj-lorasick_2021-03-09-14-07-27.312513
69	11	2	2	70	stable	1	200	70	sv	red	blue	red	blue	left	right	0.7	0.30000000000000004	2	6	1.4	1.8000000000000005	0	1	0.7	0.30000000000000004	2	6	1.4	1.8000000000000005	invalid	0.6831726990021707	53248	0	1	2	53248	1	51200	0	53248	1	0.7	51200	red	blue	0	6	ml	2.7.3	lorasick	sub-11_ses-02_task-ml_proj-lorasick_2021-03-09-14-07-27.312513
70	11	2	2	71	stable	1	200	71	sv	red	blue	red	blue	left	right	0.7	0.30000000000000004	6	4	4.199999999999998	1.2000000000000002	0	1	0.7	0.30000000000000004	6	4	4.199999999999998	1.2000000000000002	invalid	1.0330748650012538	53248	0	1	2	51200	0	51200	0	51200	0	0.7	51200	red	blue	1	4	ml	2.7.3	lorasick	sub-11_ses-02_task-ml_proj-lorasick_2021-03-09-14-07-27.312513
71	11	2	2	72	stable	1	200	72	sv	blue	red	red	blue	right	left	0.7	0.30000000000000004	10	2	7.0	0.6000000000000001	0	1	0.30000000000000004	0.7	2	10	0.6000000000000001	7.0	invalid	1.4496166999997513	53248	0	1	1	53248	1	53248	1	53248	1	0.7	53248	red	blue	1	0	ml	2.7.3	lorasick	sub-11_ses-02_task-ml_proj-lorasick_2021-03-09-14-07-27.312513
72	11	2	2	73	stable	1	200	73	sv	blue	red	red	blue	right	left	0.7	0.30000000000000004	4	6	2.8	1.8000000000000005	0	1	0.30000000000000004	0.7	6	4	1.8000000000000005	2.8	invalid	0.6165100149992213	51200	0	0	2	53248	0	53248	0	51200	1	0.7	53248	red	blue	0	6	ml	2.7.3	lorasick	sub-11_ses-02_task-ml_proj-lorasick_2021-03-09-14-07-27.312513
73	11	2	2	74	stable	1	200	74	sv	blue	red	red	blue	right	left	0.7	0.30000000000000004	4	2	2.8	0.6000000000000001	1	0	0.30000000000000004	0.7	2	4	0.6000000000000001	2.8	valid	0.9830748240019602	51200	0	0	2	53248	0	53248	0	53248	0	0.7	53248	red	blue	1	0	ml	2.7.3	lorasick	sub-11_ses-02_task-ml_proj-lorasick_2021-03-09-14-07-27.312513
74	11	2	2	75	stable	1	200	75	sv	blue	red	red	blue	right	left	0.7	0.30000000000000004	2	6	1.4	1.8000000000000005	1	0	0.30000000000000004	0.7	6	2	1.8000000000000005	1.4	valid	0.8664418249973096	51200	0	0	2	51200	1	53248	0	51200	1	0.7	53248	red	blue	0	0	ml	2.7.3	lorasick	sub-11_ses-02_task-ml_proj-lorasick_2021-03-09-14-07-27.312513
75	11	2	2	76	stable	1	200	76	sv	red	blue	red	blue	left	right	0.7	0.30000000000000004	2	4	1.4	1.2000000000000002	0	1	0.7	0.30000000000000004	2	4	1.4	1.2000000000000002	invalid	0.8164724579983158	53248	0	1	2	51200	0	51200	0	53248	1	0.7	51200	red	blue	0	4	ml	2.7.3	lorasick	sub-11_ses-02_task-ml_proj-lorasick_2021-03-09-14-07-27.312513
76	11	2	2	77	stable	1	200	77	sv	red	blue	red	blue	left	right	0.7	0.30000000000000004	2	4	1.4	1.2000000000000002	1	0	0.7	0.30000000000000004	2	4	1.4	1.2000000000000002	valid	0.9330999730009352	53248	0	1	2	51200	0	51200	0	53248	1	0.7	51200	red	blue	0	0	ml	2.7.3	lorasick	sub-11_ses-02_task-ml_proj-lorasick_2021-03-09-14-07-27.312513
77	11	2	2	78	stable	1	200	78	sv	blue	red	red	blue	right	left	0.7	0.30000000000000004	2	10	1.4	3.0000000000000004	0	1	0.30000000000000004	0.7	10	2	3.0000000000000004	1.4	invalid	0.7164848950014857	51200	0	0	2	51200	1	53248	0	51200	1	0.7	53248	red	blue	0	10	ml	2.7.3	lorasick	sub-11_ses-02_task-ml_proj-lorasick_2021-03-09-14-07-27.312513
78	11	2	2	79	stable	1	200	79	sv	blue	red	red	blue	right	left	0.7	0.30000000000000004	4	2	2.8	0.6000000000000001	0	1	0.30000000000000004	0.7	2	4	0.6000000000000001	2.8	invalid	1.2663293840014376	53248	0	1	1	53248	1	53248	1	53248	1	0.7	53248	red	blue	1	0	ml	2.7.3	lorasick	sub-11_ses-02_task-ml_proj-lorasick_2021-03-09-14-07-27.312513
79	11	2	2	80	stable	1	200	80	sv	blue	red	red	blue	right	left	0.7	0.30000000000000004	4	6	2.8	1.8000000000000005	1	0	0.30000000000000004	0.7	6	4	1.8000000000000005	2.8	valid	0.6831608190004772	51200	0	0	2	53248	0	53248	0	51200	1	0.7	53248	red	blue	0	0	ml	2.7.3	lorasick	sub-11_ses-02_task-ml_proj-lorasick_2021-03-09-14-07-27.312513
80	11	2	2	81	stable	1	200	81	sv	blue	red	red	blue	right	left	0.7	0.30000000000000004	2	2	1.4	0.6000000000000001	0	1	0.30000000000000004	0.7	2	2	0.6000000000000001	1.4	invalid	0.9164282609999646	51200	0	0	2	53248	0	53248	0	53248	0	0.7	53248	red	blue	0	2	ml	2.7.3	lorasick	sub-11_ses-02_task-ml_proj-lorasick_2021-03-09-14-07-27.312513
81	11	2	2	82	stable	1	200	82	sv	red	blue	red	blue	left	right	0.7	0.30000000000000004	4	2	2.8	0.6000000000000001	1	0	0.7	0.30000000000000004	4	2	2.8	0.6000000000000001	valid	2.0161067400003962	51200	0	0	1	51200	1	51200	1	51200	1	0.7	51200	red	blue	1	4	ml	2.7.3	lorasick	sub-11_ses-02_task-ml_proj-lorasick_2021-03-09-14-07-27.312513
82	11	2	2	83	stable	1	200	83	sv	blue	red	red	blue	right	left	0.7	0.30000000000000004	4	6	2.8	1.8000000000000005	0	1	0.30000000000000004	0.7	6	4	1.8000000000000005	2.8	invalid	1.5995718310005032	53248	0	1	1	53248	1	53248	1	51200	0	0.7	53248	red	blue	0	0	ml	2.7.3	lorasick	sub-11_ses-02_task-ml_proj-lorasick_2021-03-09-14-07-27.312513
83	11	2	2	84	stable	1	200	84	sv	red	blue	red	blue	left	right	0.7	0.30000000000000004	6	2	4.199999999999998	0.6000000000000001	1	0	0.7	0.30000000000000004	6	2	4.199999999999998	0.6000000000000001	valid	0.7164849850014434	51200	0	0	1	51200	1	51200	1	51200	1	0.7	51200	red	blue	1	6	ml	2.7.3	lorasick	sub-11_ses-02_task-ml_proj-lorasick_2021-03-09-14-07-27.312513
84	11	2	2	85	stable	1	200	85	sv	blue	red	red	blue	right	left	0.7	0.30000000000000004	2	6	1.4	1.8000000000000005	1	0	0.30000000000000004	0.7	6	2	1.8000000000000005	1.4	valid	1.0830419060002896	51200	0	0	2	51200	1	53248	0	51200	1	0.7	53248	red	blue	0	0	ml	2.7.3	lorasick	sub-11_ses-02_task-ml_proj-lorasick_2021-03-09-14-07-27.312513
85	11	2	2	86	stable	1	200	86	sv	red	blue	red	blue	left	right	0.7	0.30000000000000004	2	2	1.4	0.6000000000000001	0	1	0.7	0.30000000000000004	2	2	1.4	0.6000000000000001	invalid	0.8997687939991009	51200	0	0	1	51200	1	51200	1	53248	0	0.7	51200	red	blue	1	0	ml	2.7.3	lorasick	sub-11_ses-02_task-ml_proj-lorasick_2021-03-09-14-07-27.312513
86	11	2	2	87	stable	1	200	87	sv	red	blue	red	blue	left	right	0.7	0.30000000000000004	6	4	4.199999999999998	1.2000000000000002	0	1	0.7	0.30000000000000004	6	4	4.199999999999998	1.2000000000000002	invalid	0.6331734240011428	51200	0	0	1	51200	1	51200	1	51200	1	0.7	51200	red	blue	1	0	ml	2.7.3	lorasick	sub-11_ses-02_task-ml_proj-lorasick_2021-03-09-14-07-27.312513
87	11	2	2	88	stable	1	200	88	sv	red	blue	red	blue	left	right	0.7	0.30000000000000004	4	6	2.8	1.8000000000000005	1	0	0.7	0.30000000000000004	4	6	2.8	1.8000000000000005	valid	0.8164652759987803	53248	0	1	2	51200	0	51200	0	53248	1	0.7	51200	red	blue	0	0	ml	2.7.3	lorasick	sub-11_ses-02_task-ml_proj-lorasick_2021-03-09-14-07-27.312513
88	11	2	2	89	stable	1	200	89	sv	red	blue	red	blue	left	right	0.7	0.30000000000000004	6	4	4.199999999999998	1.2000000000000002	1	0	0.7	0.30000000000000004	6	4	4.199999999999998	1.2000000000000002	valid	0.6831679410024663	51200	0	0	1	51200	1	51200	1	51200	1	0.7	51200	red	blue	1	6	ml	2.7.3	lorasick	sub-11_ses-02_task-ml_proj-lorasick_2021-03-09-14-07-27.312513
89	11	2	2	90	stable	1	200	90	sv	blue	red	red	blue	right	left	0.7	0.30000000000000004	4	2	2.8	0.6000000000000001	1	0	0.30000000000000004	0.7	2	4	0.6000000000000001	2.8	valid	0.666501490999508	53248	0	1	1	53248	1	53248	1	53248	1	0.7	53248	red	blue	1	4	ml	2.7.3	lorasick	sub-11_ses-02_task-ml_proj-lorasick_2021-03-09-14-07-27.312513
90	11	2	2	91	stable	1	200	91	sv	blue	red	red	blue	right	left	0.7	0.30000000000000004	2	2	1.4	0.6000000000000001	1	0	0.30000000000000004	0.7	2	2	0.6000000000000001	1.4	valid	0.7831428030003735	53248	0	1	1	53248	1	53248	1	53248	1	0.7	53248	red	blue	0	2	ml	2.7.3	lorasick	sub-11_ses-02_task-ml_proj-lorasick_2021-03-09-14-07-27.312513
91	11	2	2	92	stable	1	200	92	sv	red	blue	red	blue	left	right	0.7	0.30000000000000004	6	6	4.199999999999998	1.8000000000000005	0	1	0.7	0.30000000000000004	6	6	4.199999999999998	1.8000000000000005	invalid	0.9164202669999212	51200	0	0	1	51200	1	51200	1	53248	0	0.7	51200	red	blue	1	0	ml	2.7.3	lorasick	sub-11_ses-02_task-ml_proj-lorasick_2021-03-09-14-07-27.312513
92	11	2	2	93	stable	1	200	93	sv	blue	red	red	blue	right	left	0.7	0.30000000000000004	6	4	4.199999999999998	1.2000000000000002	1	0	0.30000000000000004	0.7	4	6	1.2000000000000002	4.199999999999998	valid	1.033072245998483	53248	0	1	1	53248	1	53248	1	53248	1	0.7	53248	red	blue	1	6	ml	2.7.3	lorasick	sub-11_ses-02_task-ml_proj-lorasick_2021-03-09-14-07-27.312513
93	11	2	2	94	stable	1	200	94	sv	red	blue	red	blue	left	right	0.7	0.30000000000000004	6	4	4.199999999999998	1.2000000000000002	1	0	0.7	0.30000000000000004	6	4	4.199999999999998	1.2000000000000002	valid	0.7498152919979475	51200	0	0	1	51200	1	51200	1	51200	1	0.7	51200	red	blue	1	6	ml	2.7.3	lorasick	sub-11_ses-02_task-ml_proj-lorasick_2021-03-09-14-07-27.312513
94	11	2	2	95	stable	1	200	95	sv	red	blue	red	blue	left	right	0.7	0.30000000000000004	2	10	1.4	3.0000000000000004	1	0	0.7	0.30000000000000004	2	10	1.4	3.0000000000000004	valid	0.7164962669994566	53248	0	1	2	53248	1	51200	0	53248	1	0.7	51200	red	blue	0	0	ml	2.7.3	lorasick	sub-11_ses-02_task-ml_proj-lorasick_2021-03-09-14-07-27.312513
95	11	2	2	96	stable	1	200	96	sv	blue	red	red	blue	right	left	0.7	0.30000000000000004	6	6	4.199999999999998	1.8000000000000005	1	0	0.30000000000000004	0.7	6	6	1.8000000000000005	4.199999999999998	valid	1.3496439159971487	53248	0	1	1	53248	1	53248	1	53248	1	0.7	53248	red	blue	0	6	ml	2.7.3	lorasick	sub-11_ses-02_task-ml_proj-lorasick_2021-03-09-14-07-27.312513
96	11	2	2	97	stable	1	200	97	sv	red	blue	red	blue	left	right	0.7	0.30000000000000004	2	4	1.4	1.2000000000000002	1	0	0.7	0.30000000000000004	2	4	1.4	1.2000000000000002	valid	1.4996030270012852	53248	0	1	2	51200	0	51200	0	53248	1	0.7	51200	red	blue	0	0	ml	2.7.3	lorasick	sub-11_ses-02_task-ml_proj-lorasick_2021-03-09-14-07-27.312513
97	11	2	2	98	stable	1	200	98	sv	red	blue	red	blue	left	right	0.7	0.30000000000000004	4	2	2.8	0.6000000000000001	1	0	0.7	0.30000000000000004	4	2	2.8	0.6000000000000001	valid	0.8164624150012969	51200	0	0	1	51200	1	51200	1	51200	1	0.7	51200	red	blue	1	4	ml	2.7.3	lorasick	sub-11_ses-02_task-ml_proj-lorasick_2021-03-09-14-07-27.312513
98	11	2	2	99	stable	1	200	99	sv	red	blue	red	blue	left	right	0.7	0.30000000000000004	2	2	1.4	0.6000000000000001	1	0	0.7	0.30000000000000004	2	2	1.4	0.6000000000000001	valid	0.8164630110004509	51200	0	0	1	51200	1	51200	1	53248	0	0.7	51200	red	blue	1	2	ml	2.7.3	lorasick	sub-11_ses-02_task-ml_proj-lorasick_2021-03-09-14-07-27.312513
99	11	2	2	100	stable	1	200	100	sv	blue	red	red	blue	right	left	0.7	0.30000000000000004	2	2	1.4	0.6000000000000001	1	0	0.30000000000000004	0.7	2	2	0.6000000000000001	1.4	valid	0.6998343430022942	53248	0	1	1	53248	1	53248	1	53248	1	0.7	53248	red	blue	0	2	ml	2.7.3	lorasick	sub-11_ses-02_task-ml_proj-lorasick_2021-03-09-14-07-27.312513
100	11	2	3	101	stable	1	200	101	sv	red	blue	red	blue	left	right	0.7	0.30000000000000004	2	2	1.4	0.6000000000000001	0	1	0.7	0.30000000000000004	2	2	1.4	0.6000000000000001	invalid	1.18301396699826	51200	0	0	1	51200	1	51200	1	53248	0	0.7	51200	red	blue	1	0	ml	2.7.3	lorasick	sub-11_ses-02_task-ml_proj-lorasick_2021-03-09-14-07-27.312513
101	11	2	3	102	stable	1	200	102	sv	red	blue	red	blue	left	right	0.7	0.30000000000000004	6	6	4.199999999999998	1.8000000000000005	1	0	0.7	0.30000000000000004	6	6	4.199999999999998	1.8000000000000005	valid	0.7164939989997947	53248	0	1	2	51200	0	51200	0	53248	1	0.7	51200	red	blue	1	0	ml	2.7.3	lorasick	sub-11_ses-02_task-ml_proj-lorasick_2021-03-09-14-07-27.312513
102	11	2	3	103	stable	1	200	103	sv	blue	red	red	blue	right	left	0.7	0.30000000000000004	4	6	2.8	1.8000000000000005	0	1	0.30000000000000004	0.7	6	4	1.8000000000000005	2.8	invalid	0.8331084959972941	51200	0	0	2	53248	0	53248	0	51200	1	0.7	53248	red	blue	0	6	ml	2.7.3	lorasick	sub-11_ses-02_task-ml_proj-lorasick_2021-03-09-14-07-27.312513
103	11	2	3	104	stable	1	200	104	sv	red	blue	red	blue	left	right	0.7	0.30000000000000004	2	6	1.4	1.8000000000000005	1	0	0.7	0.30000000000000004	2	6	1.4	1.8000000000000005	valid	0.5665463829973305	53248	0	1	2	53248	1	51200	0	53248	1	0.7	51200	red	blue	0	0	ml	2.7.3	lorasick	sub-11_ses-02_task-ml_proj-lorasick_2021-03-09-14-07-27.312513
104	11	2	3	105	stable	1	200	105	sv	red	blue	red	blue	left	right	0.7	0.30000000000000004	2	6	1.4	1.8000000000000005	1	0	0.7	0.30000000000000004	2	6	1.4	1.8000000000000005	valid	0.5832031179998012	53248	0	1	2	53248	1	51200	0	53248	1	0.7	51200	red	blue	0	0	ml	2.7.3	lorasick	sub-11_ses-02_task-ml_proj-lorasick_2021-03-09-14-07-27.312513
105	11	2	3	106	stable	1	200	106	sv	red	blue	red	blue	left	right	0.7	0.30000000000000004	2	10	1.4	3.0000000000000004	1	0	0.7	0.30000000000000004	2	10	1.4	3.0000000000000004	valid	0.6165270800011058	53248	0	1	2	53248	1	51200	0	53248	1	0.7	51200	red	blue	0	0	ml	2.7.3	lorasick	sub-11_ses-02_task-ml_proj-lorasick_2021-03-09-14-07-27.312513
106	11	2	3	107	stable	1	200	107	sv	blue	red	red	blue	right	left	0.7	0.30000000000000004	6	6	4.199999999999998	1.8000000000000005	0	1	0.30000000000000004	0.7	6	6	1.8000000000000005	4.199999999999998	invalid	0.5665354630000365	53248	0	1	1	53248	1	53248	1	53248	1	0.7	53248	red	blue	0	0	ml	2.7.3	lorasick	sub-11_ses-02_task-ml_proj-lorasick_2021-03-09-14-07-27.312513
107	11	2	3	108	stable	1	200	108	sv	blue	red	red	blue	right	left	0.7	0.30000000000000004	6	4	4.199999999999998	1.2000000000000002	1	0	0.30000000000000004	0.7	4	6	1.2000000000000002	4.199999999999998	valid	0.7498210009980539	53248	0	1	1	53248	1	53248	1	53248	1	0.7	53248	red	blue	1	6	ml	2.7.3	lorasick	sub-11_ses-02_task-ml_proj-lorasick_2021-03-09-14-07-27.312513
108	11	2	3	109	stable	1	200	109	sv	red	blue	red	blue	left	right	0.7	0.30000000000000004	2	2	1.4	0.6000000000000001	1	0	0.7	0.30000000000000004	2	2	1.4	0.6000000000000001	valid	0.5998519439999654	51200	0	0	1	51200	1	51200	1	53248	0	0.7	51200	red	blue	1	2	ml	2.7.3	lorasick	sub-11_ses-02_task-ml_proj-lorasick_2021-03-09-14-07-27.312513
109	11	2	3	110	stable	1	200	110	sv	red	blue	red	blue	left	right	0.7	0.30000000000000004	2	6	1.4	1.8000000000000005	0	1	0.7	0.30000000000000004	2	6	1.4	1.8000000000000005	invalid	1.5329333459994814	53248	0	1	2	53248	1	51200	0	53248	1	0.7	51200	red	blue	0	6	ml	2.7.3	lorasick	sub-11_ses-02_task-ml_proj-lorasick_2021-03-09-14-07-27.312513
110	11	2	3	111	stable	1	200	111	sv	blue	red	red	blue	right	left	0.7	0.30000000000000004	2	10	1.4	3.0000000000000004	0	1	0.30000000000000004	0.7	10	2	3.0000000000000004	1.4	invalid	1.233011071002693	51200	0	0	2	51200	1	53248	0	51200	1	0.7	53248	red	blue	0	10	ml	2.7.3	lorasick	sub-11_ses-02_task-ml_proj-lorasick_2021-03-09-14-07-27.312513
111	11	2	3	112	stable	1	200	112	sv	red	blue	red	blue	left	right	0.7	0.30000000000000004	2	2	1.4	0.6000000000000001	1	0	0.7	0.30000000000000004	2	2	1.4	0.6000000000000001	valid	1.083049662000121	53248	0	1	2	51200	0	51200	0	53248	1	0.7	51200	red	blue	1	0	ml	2.7.3	lorasick	sub-11_ses-02_task-ml_proj-lorasick_2021-03-09-14-07-27.312513
112	11	2	3	113	stable	1	200	113	sv	red	blue	red	blue	left	right	0.7	0.30000000000000004	6	2	4.199999999999998	0.6000000000000001	0	1	0.7	0.30000000000000004	6	2	4.199999999999998	0.6000000000000001	invalid	0.6331747589974839	51200	0	0	1	51200	1	51200	1	51200	1	0.7	51200	red	blue	1	0	ml	2.7.3	lorasick	sub-11_ses-02_task-ml_proj-lorasick_2021-03-09-14-07-27.312513
113	11	2	3	114	stable	1	200	114	sv	blue	red	red	blue	right	left	0.7	0.30000000000000004	4	2	2.8	0.6000000000000001	1	0	0.30000000000000004	0.7	2	4	0.6000000000000001	2.8	valid	0.5998679799995443	53248	0	1	1	53248	1	53248	1	53248	1	0.7	53248	red	blue	1	4	ml	2.7.3	lorasick	sub-11_ses-02_task-ml_proj-lorasick_2021-03-09-14-07-27.312513
114	11	2	3	115	stable	1	200	115	sv	red	blue	red	blue	left	right	0.7	0.30000000000000004	2	2	1.4	0.6000000000000001	1	0	0.7	0.30000000000000004	2	2	1.4	0.6000000000000001	valid	0.6831546920002438	51200	0	0	1	51200	1	51200	1	53248	0	0.7	51200	red	blue	1	2	ml	2.7.3	lorasick	sub-11_ses-02_task-ml_proj-lorasick_2021-03-09-14-07-27.312513
115	11	2	3	116	stable	1	200	116	sv	blue	red	red	blue	right	left	0.7	0.30000000000000004	6	2	4.199999999999998	0.6000000000000001	0	1	0.30000000000000004	0.7	2	6	0.6000000000000001	4.199999999999998	invalid	0.5332194190013979	53248	0	1	1	53248	1	53248	1	53248	1	0.7	53248	red	blue	1	0	ml	2.7.3	lorasick	sub-11_ses-02_task-ml_proj-lorasick_2021-03-09-14-07-27.312513
116	11	2	3	117	stable	1	200	117	sv	red	blue	red	blue	left	right	0.7	0.30000000000000004	2	10	1.4	3.0000000000000004	1	0	0.7	0.30000000000000004	2	10	1.4	3.0000000000000004	valid	0.9164386070006004	53248	0	1	2	53248	1	51200	0	53248	1	0.7	51200	red	blue	0	0	ml	2.7.3	lorasick	sub-11_ses-02_task-ml_proj-lorasick_2021-03-09-14-07-27.312513
117	11	2	3	118	stable	1	200	118	sv	red	blue	red	blue	left	right	0.7	0.30000000000000004	2	6	1.4	1.8000000000000005	0	1	0.7	0.30000000000000004	2	6	1.4	1.8000000000000005	invalid	1.7162039830000142	51200	0	0	1	53248	0	51200	1	53248	0	0.7	51200	red	blue	0	0	ml	2.7.3	lorasick	sub-11_ses-02_task-ml_proj-lorasick_2021-03-09-14-07-27.312513
118	11	2	3	119	stable	1	200	119	sv	red	blue	red	blue	left	right	0.7	0.30000000000000004	2	6	1.4	1.8000000000000005	1	0	0.7	0.30000000000000004	2	6	1.4	1.8000000000000005	valid	0.5332166619991767	53248	0	1	2	53248	1	51200	0	53248	1	0.7	51200	red	blue	0	0	ml	2.7.3	lorasick	sub-11_ses-02_task-ml_proj-lorasick_2021-03-09-14-07-27.312513
119	11	2	3	120	stable	1	200	120	sv	red	blue	red	blue	left	right	0.7	0.30000000000000004	6	2	4.199999999999998	0.6000000000000001	1	0	0.7	0.30000000000000004	6	2	4.199999999999998	0.6000000000000001	valid	0.8830902209992928	51200	0	0	1	51200	1	51200	1	51200	1	0.7	51200	red	blue	1	6	ml	2.7.3	lorasick	sub-11_ses-02_task-ml_proj-lorasick_2021-03-09-14-07-27.312513
120	11	2	3	121	stable	1	200	121	sv	blue	red	red	blue	right	left	0.7	0.30000000000000004	2	6	1.4	1.8000000000000005	1	0	0.30000000000000004	0.7	6	2	1.8000000000000005	1.4	valid	0.9830746529987664	51200	0	0	2	51200	1	53248	0	51200	1	0.7	53248	red	blue	0	0	ml	2.7.3	lorasick	sub-11_ses-02_task-ml_proj-lorasick_2021-03-09-14-07-27.312513
121	11	2	3	122	stable	1	200	122	sv	red	blue	red	blue	left	right	0.7	0.30000000000000004	2	4	1.4	1.2000000000000002	1	0	0.7	0.30000000000000004	2	4	1.4	1.2000000000000002	valid	1.2829859900011795	51200	0	0	1	51200	1	51200	1	53248	0	0.7	51200	red	blue	0	2	ml	2.7.3	lorasick	sub-11_ses-02_task-ml_proj-lorasick_2021-03-09-14-07-27.312513
122	11	2	3	123	stable	1	200	123	sv	blue	red	red	blue	right	left	0.7	0.30000000000000004	4	6	2.8	1.8000000000000005	0	1	0.30000000000000004	0.7	6	4	1.8000000000000005	2.8	invalid	0.9664320400006544	53248	0	1	1	53248	1	53248	1	51200	0	0.7	53248	red	blue	0	0	ml	2.7.3	lorasick	sub-11_ses-02_task-ml_proj-lorasick_2021-03-09-14-07-27.312513
123	11	2	3	124	stable	1	200	124	sv	red	blue	red	blue	left	right	0.7	0.30000000000000004	10	2	7.0	0.6000000000000001	1	0	0.7	0.30000000000000004	10	2	7.0	0.6000000000000001	valid	0.8331194910024351	51200	0	0	1	51200	1	51200	1	51200	1	0.7	51200	red	blue	1	10	ml	2.7.3	lorasick	sub-11_ses-02_task-ml_proj-lorasick_2021-03-09-14-07-27.312513
124	11	2	3	125	stable	1	200	125	sv	blue	red	red	blue	right	left	0.7	0.30000000000000004	6	6	4.199999999999998	1.8000000000000005	1	0	0.30000000000000004	0.7	6	6	1.8000000000000005	4.199999999999998	valid	0.8664526220018158	53248	0	1	1	53248	1	53248	1	53248	1	0.7	53248	red	blue	0	6	ml	2.7.3	lorasick	sub-11_ses-02_task-ml_proj-lorasick_2021-03-09-14-07-27.312513
125	11	2	3	126	stable	1	200	126	sv	red	blue	red	blue	left	right	0.7	0.30000000000000004	4	6	2.8	1.8000000000000005	1	0	0.7	0.30000000000000004	4	6	2.8	1.8000000000000005	valid	1.0330609619995812	51200	0	0	1	51200	1	51200	1	53248	0	0.7	51200	red	blue	0	4	ml	2.7.3	lorasick	sub-11_ses-02_task-ml_proj-lorasick_2021-03-09-14-07-27.312513
126	11	2	3	127	stable	1	200	127	sv	red	blue	red	blue	left	right	0.7	0.30000000000000004	10	2	7.0	0.6000000000000001	1	0	0.7	0.30000000000000004	10	2	7.0	0.6000000000000001	valid	0.6498356480005896	51200	0	0	1	51200	1	51200	1	51200	1	0.7	51200	red	blue	1	10	ml	2.7.3	lorasick	sub-11_ses-02_task-ml_proj-lorasick_2021-03-09-14-07-27.312513
127	11	2	3	128	stable	1	200	128	sv	blue	red	red	blue	right	left	0.7	0.30000000000000004	2	10	1.4	3.0000000000000004	1	0	0.30000000000000004	0.7	10	2	3.0000000000000004	1.4	valid	1.5662562280012935	51200	0	0	2	51200	1	53248	0	51200	1	0.7	53248	red	blue	0	0	ml	2.7.3	lorasick	sub-11_ses-02_task-ml_proj-lorasick_2021-03-09-14-07-27.312513
128	11	2	3	129	stable	1	200	129	sv	blue	red	red	blue	right	left	0.7	0.30000000000000004	6	4	4.199999999999998	1.2000000000000002	0	1	0.30000000000000004	0.7	4	6	1.2000000000000002	4.199999999999998	invalid	0.6498557509985403	53248	0	1	1	53248	1	53248	1	53248	1	0.7	53248	red	blue	1	0	ml	2.7.3	lorasick	sub-11_ses-02_task-ml_proj-lorasick_2021-03-09-14-07-27.312513
129	11	2	3	130	stable	1	200	130	sv	red	blue	red	blue	left	right	0.7	0.30000000000000004	10	2	7.0	0.6000000000000001	1	0	0.7	0.30000000000000004	10	2	7.0	0.6000000000000001	valid	0.6331740560017352	51200	0	0	1	51200	1	51200	1	51200	1	0.7	51200	red	blue	1	10	ml	2.7.3	lorasick	sub-11_ses-02_task-ml_proj-lorasick_2021-03-09-14-07-27.312513
130	11	2	3	131	stable	1	200	131	sv	red	blue	red	blue	left	right	0.7	0.30000000000000004	2	4	1.4	1.2000000000000002	1	0	0.7	0.30000000000000004	2	4	1.4	1.2000000000000002	valid	1.2996487710006477	51200	0	0	1	51200	1	51200	1	53248	0	0.7	51200	red	blue	0	2	ml	2.7.3	lorasick	sub-11_ses-02_task-ml_proj-lorasick_2021-03-09-14-07-27.312513
131	11	2	3	132	stable	1	200	132	sv	red	blue	red	blue	left	right	0.7	0.30000000000000004	6	4	4.199999999999998	1.2000000000000002	0	1	0.7	0.30000000000000004	6	4	4.199999999999998	1.2000000000000002	invalid	0.683154881997325	51200	0	0	1	51200	1	51200	1	51200	1	0.7	51200	red	blue	1	0	ml	2.7.3	lorasick	sub-11_ses-02_task-ml_proj-lorasick_2021-03-09-14-07-27.312513
132	11	2	3	133	stable	1	200	133	sv	blue	red	red	blue	right	left	0.7	0.30000000000000004	4	2	2.8	0.6000000000000001	0	1	0.30000000000000004	0.7	2	4	0.6000000000000001	2.8	invalid	0.5498763020004844	53248	0	1	1	53248	1	53248	1	53248	1	0.7	53248	red	blue	1	0	ml	2.7.3	lorasick	sub-11_ses-02_task-ml_proj-lorasick_2021-03-09-14-07-27.312513
133	11	2	3	134	stable	1	200	134	sv	blue	red	red	blue	right	left	0.7	0.30000000000000004	2	2	1.4	0.6000000000000001	1	0	0.30000000000000004	0.7	2	2	0.6000000000000001	1.4	valid	0.7498196689994074	53248	0	1	1	53248	1	53248	1	53248	1	0.7	53248	red	blue	0	2	ml	2.7.3	lorasick	sub-11_ses-02_task-ml_proj-lorasick_2021-03-09-14-07-27.312513
134	11	2	3	135	stable	1	200	135	sv	blue	red	red	blue	right	left	0.7	0.30000000000000004	2	2	1.4	0.6000000000000001	1	0	0.30000000000000004	0.7	2	2	0.6000000000000001	1.4	valid	0.766475841999636	53248	0	1	1	53248	1	53248	1	53248	1	0.7	53248	red	blue	0	2	ml	2.7.3	lorasick	sub-11_ses-02_task-ml_proj-lorasick_2021-03-09-14-07-27.312513
135	11	2	3	136	stable	1	200	136	sv	blue	red	red	blue	right	left	0.7	0.30000000000000004	2	2	1.4	0.6000000000000001	1	0	0.30000000000000004	0.7	2	2	0.6000000000000001	1.4	valid	0.8664538189987071	53248	0	1	1	53248	1	53248	1	53248	1	0.7	53248	red	blue	0	2	ml	2.7.3	lorasick	sub-11_ses-02_task-ml_proj-lorasick_2021-03-09-14-07-27.312513
136	11	2	3	137	stable	1	200	137	sv	red	blue	red	blue	left	right	0.7	0.30000000000000004	6	2	4.199999999999998	0.6000000000000001	0	1	0.7	0.30000000000000004	6	2	4.199999999999998	0.6000000000000001	invalid	0.7164852139976574	51200	0	0	1	51200	1	51200	1	51200	1	0.7	51200	red	blue	1	0	ml	2.7.3	lorasick	sub-11_ses-02_task-ml_proj-lorasick_2021-03-09-14-07-27.312513
137	11	2	3	138	stable	1	200	138	sv	blue	red	red	blue	right	left	0.7	0.30000000000000004	6	4	4.199999999999998	1.2000000000000002	1	0	0.30000000000000004	0.7	4	6	1.2000000000000002	4.199999999999998	valid	0.6665113470007782	53248	0	1	1	53248	1	53248	1	53248	1	0.7	53248	red	blue	1	6	ml	2.7.3	lorasick	sub-11_ses-02_task-ml_proj-lorasick_2021-03-09-14-07-27.312513
138	11	2	3	139	stable	1	200	139	sv	blue	red	red	blue	right	left	0.7	0.30000000000000004	6	2	4.199999999999998	0.6000000000000001	1	0	0.30000000000000004	0.7	2	6	0.6000000000000001	4.199999999999998	valid	0.5832034649974958	53248	0	1	1	53248	1	53248	1	53248	1	0.7	53248	red	blue	1	6	ml	2.7.3	lorasick	sub-11_ses-02_task-ml_proj-lorasick_2021-03-09-14-07-27.312513
139	11	2	3	140	stable	1	200	140	sv	blue	red	red	blue	right	left	0.7	0.30000000000000004	4	6	2.8	1.8000000000000005	1	0	0.30000000000000004	0.7	6	4	1.8000000000000005	2.8	valid	1.616237969003123	53248	0	1	1	53248	1	53248	1	51200	0	0.7	53248	red	blue	0	4	ml	2.7.3	lorasick	sub-11_ses-02_task-ml_proj-lorasick_2021-03-09-14-07-27.312513
140	11	2	3	141	stable	1	200	141	sv	blue	red	red	blue	right	left	0.7	0.30000000000000004	2	10	1.4	3.0000000000000004	0	1	0.30000000000000004	0.7	10	2	3.0000000000000004	1.4	invalid	2.082750278001185	51200	0	0	2	51200	1	53248	0	51200	1	0.7	53248	red	blue	0	10	ml	2.7.3	lorasick	sub-11_ses-02_task-ml_proj-lorasick_2021-03-09-14-07-27.312513
141	11	2	3	142	stable	1	200	142	sv	red	blue	red	blue	left	right	0.7	0.30000000000000004	2	2	1.4	0.6000000000000001	0	1	0.7	0.30000000000000004	2	2	1.4	0.6000000000000001	invalid	1.3329664049997518	51200	0	0	1	51200	1	51200	1	53248	0	0.7	51200	red	blue	1	0	ml	2.7.3	lorasick	sub-11_ses-02_task-ml_proj-lorasick_2021-03-09-14-07-27.312513
142	11	2	3	143	stable	1	200	143	sv	blue	red	red	blue	right	left	0.7	0.30000000000000004	6	6	4.199999999999998	1.8000000000000005	1	0	0.30000000000000004	0.7	6	6	1.8000000000000005	4.199999999999998	valid	0.6831638330004353	51200	0	0	2	53248	0	53248	0	53248	0	0.7	53248	red	blue	0	0	ml	2.7.3	lorasick	sub-11_ses-02_task-ml_proj-lorasick_2021-03-09-14-07-27.312513
143	11	2	3	144	stable	1	200	144	sv	blue	red	red	blue	right	left	0.7	0.30000000000000004	6	2	4.199999999999998	0.6000000000000001	1	0	0.30000000000000004	0.7	2	6	0.6000000000000001	4.199999999999998	valid	0.9830855940017501	53248	0	1	1	53248	1	53248	1	53248	1	0.7	53248	red	blue	1	6	ml	2.7.3	lorasick	sub-11_ses-02_task-ml_proj-lorasick_2021-03-09-14-07-27.312513
144	11	2	3	145	stable	1	200	145	sv	red	blue	red	blue	left	right	0.7	0.30000000000000004	2	6	1.4	1.8000000000000005	1	0	0.7	0.30000000000000004	2	6	1.4	1.8000000000000005	valid	1.7162317630027246	53248	0	1	2	53248	1	51200	0	53248	1	0.7	51200	red	blue	0	0	ml	2.7.3	lorasick	sub-11_ses-02_task-ml_proj-lorasick_2021-03-09-14-07-27.312513
145	11	2	3	146	stable	1	200	146	sv	red	blue	red	blue	left	right	0.7	0.30000000000000004	10	2	7.0	0.6000000000000001	1	0	0.7	0.30000000000000004	10	2	7.0	0.6000000000000001	valid	0.6331860829996003	51200	0	0	1	51200	1	51200	1	51200	1	0.7	51200	red	blue	1	10	ml	2.7.3	lorasick	sub-11_ses-02_task-ml_proj-lorasick_2021-03-09-14-07-27.312513
146	11	2	3	147	stable	1	200	147	sv	blue	red	red	blue	right	left	0.7	0.30000000000000004	2	4	1.4	1.2000000000000002	1	0	0.30000000000000004	0.7	4	2	1.2000000000000002	1.4	valid	1.1830315879997215	53248	0	1	1	53248	1	53248	1	51200	0	0.7	53248	red	blue	0	2	ml	2.7.3	lorasick	sub-11_ses-02_task-ml_proj-lorasick_2021-03-09-14-07-27.312513
147	11	2	3	148	stable	1	200	148	sv	red	blue	red	blue	left	right	0.7	0.30000000000000004	6	6	4.199999999999998	1.8000000000000005	1	0	0.7	0.30000000000000004	6	6	4.199999999999998	1.8000000000000005	valid	0.9164255510004296	51200	0	0	1	51200	1	51200	1	53248	0	0.7	51200	red	blue	1	6	ml	2.7.3	lorasick	sub-11_ses-02_task-ml_proj-lorasick_2021-03-09-14-07-27.312513
148	11	2	3	149	stable	1	200	149	sv	blue	red	red	blue	right	left	0.7	0.30000000000000004	6	4	4.199999999999998	1.2000000000000002	1	0	0.30000000000000004	0.7	4	6	1.2000000000000002	4.199999999999998	valid	0.7498233910009731	53248	0	1	1	53248	1	53248	1	53248	1	0.7	53248	red	blue	1	6	ml	2.7.3	lorasick	sub-11_ses-02_task-ml_proj-lorasick_2021-03-09-14-07-27.312513
149	11	2	3	150	stable	1	200	150	sv	blue	red	red	blue	right	left	0.7	0.30000000000000004	2	4	1.4	1.2000000000000002	1	0	0.30000000000000004	0.7	4	2	1.2000000000000002	1.4	valid	1.4662854799971683	53248	0	1	1	53248	1	53248	1	51200	0	0.7	53248	red	blue	0	2	ml	2.7.3	lorasick	sub-11_ses-02_task-ml_proj-lorasick_2021-03-09-14-07-27.312513
150	11	2	4	151	stable	1	200	151	sv	blue	red	red	blue	right	left	0.7	0.30000000000000004	2	10	1.4	3.0000000000000004	1	0	0.30000000000000004	0.7	10	2	3.0000000000000004	1.4	valid	1.2829911149965485	51200	0	0	2	51200	1	53248	0	51200	1	0.7	53248	red	blue	0	0	ml	2.7.3	lorasick	sub-11_ses-02_task-ml_proj-lorasick_2021-03-09-14-07-27.312513
151	11	2	4	152	stable	1	200	152	sv	blue	red	red	blue	right	left	0.7	0.30000000000000004	6	2	4.199999999999998	0.6000000000000001	1	0	0.30000000000000004	0.7	2	6	0.6000000000000001	4.199999999999998	valid	1.44961725399844	53248	0	1	1	53248	1	53248	1	53248	1	0.7	53248	red	blue	1	6	ml	2.7.3	lorasick	sub-11_ses-02_task-ml_proj-lorasick_2021-03-09-14-07-27.312513
152	11	2	4	153	stable	1	200	153	sv	blue	red	red	blue	right	left	0.7	0.30000000000000004	4	6	2.8	1.8000000000000005	1	0	0.30000000000000004	0.7	6	4	1.8000000000000005	2.8	valid	0.8831076620008389	53248	0	1	1	53248	1	53248	1	51200	0	0.7	53248	red	blue	0	4	ml	2.7.3	lorasick	sub-11_ses-02_task-ml_proj-lorasick_2021-03-09-14-07-27.312513
153	11	2	4	154	stable	1	200	154	sv	red	blue	red	blue	left	right	0.7	0.30000000000000004	6	6	4.199999999999998	1.8000000000000005	1	0	0.7	0.30000000000000004	6	6	4.199999999999998	1.8000000000000005	valid	0.8331175870007428	51200	0	0	1	51200	1	51200	1	53248	0	0.7	51200	red	blue	1	6	ml	2.7.3	lorasick	sub-11_ses-02_task-ml_proj-lorasick_2021-03-09-14-07-27.312513
154	11	2	4	155	stable	1	200	155	sv	red	blue	red	blue	left	right	0.7	0.30000000000000004	2	6	1.4	1.8000000000000005	1	0	0.7	0.30000000000000004	2	6	1.4	1.8000000000000005	valid	1.3829681960014568	51200	0	0	1	53248	0	51200	1	53248	0	0.7	51200	red	blue	0	2	ml	2.7.3	lorasick	sub-11_ses-02_task-ml_proj-lorasick_2021-03-09-14-07-27.312513
155	11	2	4	156	stable	1	200	156	sv	blue	red	red	blue	right	left	0.7	0.30000000000000004	2	6	1.4	1.8000000000000005	1	0	0.30000000000000004	0.7	6	2	1.8000000000000005	1.4	valid	1.3163274859980447	53248	0	1	1	51200	0	53248	1	51200	0	0.7	53248	red	blue	0	2	ml	2.7.3	lorasick	sub-11_ses-02_task-ml_proj-lorasick_2021-03-09-14-07-27.312513
156	11	2	4	157	stable	1	200	157	sv	red	blue	red	blue	left	right	0.7	0.30000000000000004	2	2	1.4	0.6000000000000001	1	0	0.7	0.30000000000000004	2	2	1.4	0.6000000000000001	valid	0.9997388740011957	51200	0	0	1	51200	1	51200	1	53248	0	0.7	51200	red	blue	1	2	ml	2.7.3	lorasick	sub-11_ses-02_task-ml_proj-lorasick_2021-03-09-14-07-27.312513
157	11	2	4	158	stable	1	200	158	sv	blue	red	red	blue	right	left	0.7	0.30000000000000004	6	6	4.199999999999998	1.8000000000000005	1	0	0.30000000000000004	0.7	6	6	1.8000000000000005	4.199999999999998	valid	0.8331303720005963	53248	0	1	1	53248	1	53248	1	53248	1	0.7	53248	red	blue	0	6	ml	2.7.3	lorasick	sub-11_ses-02_task-ml_proj-lorasick_2021-03-09-14-07-27.312513
158	11	2	4	159	stable	1	200	159	sv	blue	red	red	blue	right	left	0.7	0.30000000000000004	10	2	7.0	0.6000000000000001	0	1	0.30000000000000004	0.7	2	10	0.6000000000000001	7.0	invalid	0.6498495979976724	53248	0	1	1	53248	1	53248	1	53248	1	0.7	53248	red	blue	1	0	ml	2.7.3	lorasick	sub-11_ses-02_task-ml_proj-lorasick_2021-03-09-14-07-27.312513
159	11	2	4	160	stable	1	200	160	sv	red	blue	red	blue	left	right	0.7	0.30000000000000004	6	6	4.199999999999998	1.8000000000000005	1	0	0.7	0.30000000000000004	6	6	4.199999999999998	1.8000000000000005	valid	1.5995650889999524	51200	0	0	1	51200	1	51200	1	53248	0	0.7	51200	red	blue	1	6	ml	2.7.3	lorasick	sub-11_ses-02_task-ml_proj-lorasick_2021-03-09-14-07-27.312513
160	11	2	4	161	stable	1	200	161	sv	blue	red	red	blue	right	left	0.7	0.30000000000000004	6	2	4.199999999999998	0.6000000000000001	1	0	0.30000000000000004	0.7	2	6	0.6000000000000001	4.199999999999998	valid	0.7831441470007121	53248	0	1	1	53248	1	53248	1	53248	1	0.7	53248	red	blue	1	6	ml	2.7.3	lorasick	sub-11_ses-02_task-ml_proj-lorasick_2021-03-09-14-07-27.312513
161	11	2	4	162	stable	1	200	162	sv	red	blue	red	blue	left	right	0.7	0.30000000000000004	2	10	1.4	3.0000000000000004	1	0	0.7	0.30000000000000004	2	10	1.4	3.0000000000000004	valid	1.8161796829990635	53248	0	1	2	53248	1	51200	0	53248	1	0.7	51200	red	blue	0	0	ml	2.7.3	lorasick	sub-11_ses-02_task-ml_proj-lorasick_2021-03-09-14-07-27.312513
162	11	2	4	163	stable	1	200	163	sv	blue	red	red	blue	right	left	0.7	0.30000000000000004	10	2	7.0	0.6000000000000001	0	1	0.30000000000000004	0.7	2	10	0.6000000000000001	7.0	invalid	0.8331283389998134	53248	0	1	1	53248	1	53248	1	53248	1	0.7	53248	red	blue	1	0	ml	2.7.3	lorasick	sub-11_ses-02_task-ml_proj-lorasick_2021-03-09-14-07-27.312513
163	11	2	4	164	stable	1	200	164	sv	blue	red	red	blue	right	left	0.7	0.30000000000000004	2	6	1.4	1.8000000000000005	1	0	0.30000000000000004	0.7	6	2	1.8000000000000005	1.4	valid	0.6831649040032062	51200	0	0	2	51200	1	53248	0	51200	1	0.7	53248	red	blue	0	0	ml	2.7.3	lorasick	sub-11_ses-02_task-ml_proj-lorasick_2021-03-09-14-07-27.312513
164	11	2	4	165	stable	1	200	165	sv	red	blue	red	blue	left	right	0.7	0.30000000000000004	6	2	4.199999999999998	0.6000000000000001	1	0	0.7	0.30000000000000004	6	2	4.199999999999998	0.6000000000000001	valid	0.8164624870005355	51200	0	0	1	51200	1	51200	1	51200	1	0.7	51200	red	blue	1	6	ml	2.7.3	lorasick	sub-11_ses-02_task-ml_proj-lorasick_2021-03-09-14-07-27.312513
165	11	2	4	166	stable	1	200	166	sv	blue	red	red	blue	right	left	0.7	0.30000000000000004	2	10	1.4	3.0000000000000004	1	0	0.30000000000000004	0.7	10	2	3.0000000000000004	1.4	valid	0.7997944309972809	51200	0	0	2	51200	1	53248	0	51200	1	0.7	53248	red	blue	0	0	ml	2.7.3	lorasick	sub-11_ses-02_task-ml_proj-lorasick_2021-03-09-14-07-27.312513
166	11	2	4	167	stable	1	200	167	sv	blue	red	red	blue	right	left	0.7	0.30000000000000004	2	6	1.4	1.8000000000000005	1	0	0.30000000000000004	0.7	6	2	1.8000000000000005	1.4	valid	1.84948596400136	51200	0	0	2	51200	1	53248	0	51200	1	0.7	53248	red	blue	0	0	ml	2.7.3	lorasick	sub-11_ses-02_task-ml_proj-lorasick_2021-03-09-14-07-27.312513
167	11	2	4	168	stable	1	200	168	sv	blue	red	red	blue	right	left	0.7	0.30000000000000004	10	2	7.0	0.6000000000000001	1	0	0.30000000000000004	0.7	2	10	0.6000000000000001	7.0	valid	0.6665067419999104	53248	0	1	1	53248	1	53248	1	53248	1	0.7	53248	red	blue	1	10	ml	2.7.3	lorasick	sub-11_ses-02_task-ml_proj-lorasick_2021-03-09-14-07-27.312513
168	11	2	4	169	stable	1	200	169	sv	red	blue	red	blue	left	right	0.7	0.30000000000000004	2	10	1.4	3.0000000000000004	1	0	0.7	0.30000000000000004	2	10	1.4	3.0000000000000004	valid	2.415999961001944	53248	0	1	2	53248	1	51200	0	53248	1	0.7	51200	red	blue	0	0	ml	2.7.3	lorasick	sub-11_ses-02_task-ml_proj-lorasick_2021-03-09-14-07-27.312513
169	11	2	4	170	stable	1	200	170	sv	red	blue	red	blue	left	right	0.7	0.30000000000000004	4	2	2.8	0.6000000000000001	0	1	0.7	0.30000000000000004	4	2	2.8	0.6000000000000001	invalid	0.7664808160006942	51200	0	0	1	51200	1	51200	1	51200	1	0.7	51200	red	blue	1	0	ml	2.7.3	lorasick	sub-11_ses-02_task-ml_proj-lorasick_2021-03-09-14-07-27.312513
170	11	2	4	171	stable	1	200	171	sv	blue	red	red	blue	right	left	0.7	0.30000000000000004	6	4	4.199999999999998	1.2000000000000002	0	1	0.30000000000000004	0.7	4	6	1.2000000000000002	4.199999999999998	invalid	0.5498779660010769	53248	0	1	1	53248	1	53248	1	53248	1	0.7	53248	red	blue	1	0	ml	2.7.3	lorasick	sub-11_ses-02_task-ml_proj-lorasick_2021-03-09-14-07-27.312513
171	11	2	4	172	stable	1	200	172	sv	blue	red	red	blue	right	left	0.7	0.30000000000000004	4	2	2.8	0.6000000000000001	0	1	0.30000000000000004	0.7	2	4	0.6000000000000001	2.8	invalid	0.8497909479992813	53248	0	1	1	53248	1	53248	1	53248	1	0.7	53248	red	blue	1	0	ml	2.7.3	lorasick	sub-11_ses-02_task-ml_proj-lorasick_2021-03-09-14-07-27.312513
172	11	2	4	173	stable	1	200	173	sv	blue	red	red	blue	right	left	0.7	0.30000000000000004	6	2	4.199999999999998	0.6000000000000001	1	0	0.30000000000000004	0.7	2	6	0.6000000000000001	4.199999999999998	valid	0.6831541810024646	51200	0	0	2	53248	0	53248	0	53248	0	0.7	53248	red	blue	1	0	ml	2.7.3	lorasick	sub-11_ses-02_task-ml_proj-lorasick_2021-03-09-14-07-27.312513
173	11	2	4	174	stable	1	200	174	sv	blue	red	red	blue	right	left	0.7	0.30000000000000004	2	6	1.4	1.8000000000000005	0	1	0.30000000000000004	0.7	6	2	1.8000000000000005	1.4	invalid	0.5498664830010966	51200	0	0	2	51200	1	53248	0	51200	1	0.7	53248	red	blue	0	6	ml	2.7.3	lorasick	sub-11_ses-02_task-ml_proj-lorasick_2021-03-09-14-07-27.312513
174	11	2	4	175	stable	1	200	175	sv	blue	red	red	blue	right	left	0.7	0.30000000000000004	4	2	2.8	0.6000000000000001	1	0	0.30000000000000004	0.7	2	4	0.6000000000000001	2.8	valid	1.3663099330005934	53248	0	1	1	53248	1	53248	1	53248	1	0.7	53248	red	blue	1	4	ml	2.7.3	lorasick	sub-11_ses-02_task-ml_proj-lorasick_2021-03-09-14-07-27.312513
175	11	2	4	176	stable	1	200	176	sv	red	blue	red	blue	left	right	0.7	0.30000000000000004	2	2	1.4	0.6000000000000001	0	1	0.7	0.30000000000000004	2	2	1.4	0.6000000000000001	invalid	1.3329742419991817	51200	0	0	1	51200	1	51200	1	53248	0	0.7	51200	red	blue	1	0	ml	2.7.3	lorasick	sub-11_ses-02_task-ml_proj-lorasick_2021-03-09-14-07-27.312513
176	11	2	4	177	stable	1	200	177	sv	blue	red	red	blue	right	left	0.7	0.30000000000000004	6	4	4.199999999999998	1.2000000000000002	0	1	0.30000000000000004	0.7	4	6	1.2000000000000002	4.199999999999998	invalid	1.1330399860016769	53248	0	1	1	53248	1	53248	1	53248	1	0.7	53248	red	blue	1	0	ml	2.7.3	lorasick	sub-11_ses-02_task-ml_proj-lorasick_2021-03-09-14-07-27.312513
177	11	2	4	178	stable	1	200	178	sv	blue	red	red	blue	right	left	0.7	0.30000000000000004	2	2	1.4	0.6000000000000001	0	1	0.30000000000000004	0.7	2	2	0.6000000000000001	1.4	invalid	0.7164845190018241	51200	0	0	2	53248	0	53248	0	53248	0	0.7	53248	red	blue	0	2	ml	2.7.3	lorasick	sub-11_ses-02_task-ml_proj-lorasick_2021-03-09-14-07-27.312513
178	11	2	4	179	stable	1	200	179	sv	red	blue	red	blue	left	right	0.7	0.30000000000000004	2	10	1.4	3.0000000000000004	0	1	0.7	0.30000000000000004	2	10	1.4	3.0000000000000004	invalid	0.4832227369988686	53248	0	1	2	53248	1	51200	0	53248	1	0.7	51200	red	blue	0	10	ml	2.7.3	lorasick	sub-11_ses-02_task-ml_proj-lorasick_2021-03-09-14-07-27.312513
179	11	2	4	180	stable	1	200	180	sv	red	blue	red	blue	left	right	0.7	0.30000000000000004	10	2	7.0	0.6000000000000001	1	0	0.7	0.30000000000000004	10	2	7.0	0.6000000000000001	valid	1.466271377998055	51200	0	0	1	51200	1	51200	1	51200	1	0.7	51200	red	blue	1	10	ml	2.7.3	lorasick	sub-11_ses-02_task-ml_proj-lorasick_2021-03-09-14-07-27.312513
180	11	2	4	181	stable	1	200	181	sv	red	blue	red	blue	left	right	0.7	0.30000000000000004	10	2	7.0	0.6000000000000001	1	0	0.7	0.30000000000000004	10	2	7.0	0.6000000000000001	valid	0.9830751129993588	51200	0	0	1	51200	1	51200	1	51200	1	0.7	51200	red	blue	1	10	ml	2.7.3	lorasick	sub-11_ses-02_task-ml_proj-lorasick_2021-03-09-14-07-27.312513
181	11	2	4	182	stable	1	200	182	sv	blue	red	red	blue	right	left	0.7	0.30000000000000004	2	2	1.4	0.6000000000000001	1	0	0.30000000000000004	0.7	2	2	0.6000000000000001	1.4	valid	0.9330887399992208	51200	0	0	2	53248	0	53248	0	53248	0	0.7	53248	red	blue	0	0	ml	2.7.3	lorasick	sub-11_ses-02_task-ml_proj-lorasick_2021-03-09-14-07-27.312513
182	11	2	4	183	stable	1	200	183	sv	blue	red	red	blue	right	left	0.7	0.30000000000000004	6	2	4.199999999999998	0.6000000000000001	1	0	0.30000000000000004	0.7	2	6	0.6000000000000001	4.199999999999998	valid	0.6665101200014761	53248	0	1	1	53248	1	53248	1	53248	1	0.7	53248	red	blue	1	6	ml	2.7.3	lorasick	sub-11_ses-02_task-ml_proj-lorasick_2021-03-09-14-07-27.312513
183	11	2	4	184	stable	1	200	184	sv	red	blue	red	blue	left	right	0.7	0.30000000000000004	4	6	2.8	1.8000000000000005	1	0	0.7	0.30000000000000004	4	6	2.8	1.8000000000000005	valid	0.799790576002124	51200	0	0	1	51200	1	51200	1	53248	0	0.7	51200	red	blue	0	4	ml	2.7.3	lorasick	sub-11_ses-02_task-ml_proj-lorasick_2021-03-09-14-07-27.312513
184	11	2	4	185	stable	1	200	185	sv	red	blue	red	blue	left	right	0.7	0.30000000000000004	4	6	2.8	1.8000000000000005	0	1	0.7	0.30000000000000004	4	6	2.8	1.8000000000000005	invalid	0.8664430249991709	51200	0	0	1	51200	1	51200	1	53248	0	0.7	51200	red	blue	0	0	ml	2.7.3	lorasick	sub-11_ses-02_task-ml_proj-lorasick_2021-03-09-14-07-27.312513
185	11	2	4	186	stable	1	200	186	sv	red	blue	red	blue	left	right	0.7	0.30000000000000004	4	2	2.8	0.6000000000000001	1	0	0.7	0.30000000000000004	4	2	2.8	0.6000000000000001	valid	0.5831936629983829	51200	0	0	1	51200	1	51200	1	51200	1	0.7	51200	red	blue	1	4	ml	2.7.3	lorasick	sub-11_ses-02_task-ml_proj-lorasick_2021-03-09-14-07-27.312513
186	11	2	4	187	stable	1	200	187	sv	blue	red	red	blue	right	left	0.7	0.30000000000000004	2	10	1.4	3.0000000000000004	1	0	0.30000000000000004	0.7	10	2	3.0000000000000004	1.4	valid	1.4662804789986694	51200	0	0	2	51200	1	53248	0	51200	1	0.7	53248	red	blue	0	0	ml	2.7.3	lorasick	sub-11_ses-02_task-ml_proj-lorasick_2021-03-09-14-07-27.312513
187	11	2	4	188	stable	1	200	188	sv	blue	red	red	blue	right	left	0.7	0.30000000000000004	10	2	7.0	0.6000000000000001	1	0	0.30000000000000004	0.7	2	10	0.6000000000000001	7.0	valid	0.633183400001144	53248	0	1	1	53248	1	53248	1	53248	1	0.7	53248	red	blue	1	10	ml	2.7.3	lorasick	sub-11_ses-02_task-ml_proj-lorasick_2021-03-09-14-07-27.312513
188	11	2	4	189	stable	1	200	189	sv	red	blue	red	blue	left	right	0.7	0.30000000000000004	10	2	7.0	0.6000000000000001	0	1	0.7	0.30000000000000004	10	2	7.0	0.6000000000000001	invalid	0.7664710259996355	51200	0	0	1	51200	1	51200	1	51200	1	0.7	51200	red	blue	1	0	ml	2.7.3	lorasick	sub-11_ses-02_task-ml_proj-lorasick_2021-03-09-14-07-27.312513
189	11	2	4	190	stable	1	200	190	sv	blue	red	red	blue	right	left	0.7	0.30000000000000004	4	6	2.8	1.8000000000000005	1	0	0.30000000000000004	0.7	6	4	1.8000000000000005	2.8	valid	1.249676059000194	53248	0	1	1	53248	1	53248	1	51200	0	0.7	53248	red	blue	0	4	ml	2.7.3	lorasick	sub-11_ses-02_task-ml_proj-lorasick_2021-03-09-14-07-27.312513
190	11	2	4	191	stable	1	200	191	sv	red	blue	red	blue	left	right	0.7	0.30000000000000004	6	2	4.199999999999998	0.6000000000000001	1	0	0.7	0.30000000000000004	6	2	4.199999999999998	0.6000000000000001	valid	0.7164839539982495	51200	0	0	1	51200	1	51200	1	51200	1	0.7	51200	red	blue	1	6	ml	2.7.3	lorasick	sub-11_ses-02_task-ml_proj-lorasick_2021-03-09-14-07-27.312513
191	11	2	4	192	stable	1	200	192	sv	red	blue	red	blue	left	right	0.7	0.30000000000000004	4	6	2.8	1.8000000000000005	0	1	0.7	0.30000000000000004	4	6	2.8	1.8000000000000005	invalid	1.1163829409997559	51200	0	0	1	51200	1	51200	1	53248	0	0.7	51200	red	blue	0	0	ml	2.7.3	lorasick	sub-11_ses-02_task-ml_proj-lorasick_2021-03-09-14-07-27.312513
192	11	2	4	193	stable	1	200	193	sv	red	blue	red	blue	left	right	0.7	0.30000000000000004	4	2	2.8	0.6000000000000001	1	0	0.7	0.30000000000000004	4	2	2.8	0.6000000000000001	valid	0.9164341830000922	51200	0	0	1	51200	1	51200	1	51200	1	0.7	51200	red	blue	1	4	ml	2.7.3	lorasick	sub-11_ses-02_task-ml_proj-lorasick_2021-03-09-14-07-27.312513
193	11	2	4	194	stable	1	200	194	sv	blue	red	red	blue	right	left	0.7	0.30000000000000004	2	2	1.4	0.6000000000000001	0	1	0.30000000000000004	0.7	2	2	0.6000000000000001	1.4	invalid	0.81646321199878	53248	0	1	1	53248	1	53248	1	53248	1	0.7	53248	red	blue	0	0	ml	2.7.3	lorasick	sub-11_ses-02_task-ml_proj-lorasick_2021-03-09-14-07-27.312513
194	11	2	4	195	stable	1	200	195	sv	red	blue	red	blue	left	right	0.7	0.30000000000000004	6	2	4.199999999999998	0.6000000000000001	1	0	0.7	0.30000000000000004	6	2	4.199999999999998	0.6000000000000001	valid	0.6331756200015661	51200	0	0	1	51200	1	51200	1	51200	1	0.7	51200	red	blue	1	6	ml	2.7.3	lorasick	sub-11_ses-02_task-ml_proj-lorasick_2021-03-09-14-07-27.312513
195	11	2	4	196	stable	1	200	196	sv	red	blue	red	blue	left	right	0.7	0.30000000000000004	2	10	1.4	3.0000000000000004	1	0	0.7	0.30000000000000004	2	10	1.4	3.0000000000000004	valid	1.4829418129993428	53248	0	1	2	53248	1	51200	0	53248	1	0.7	51200	red	blue	0	0	ml	2.7.3	lorasick	sub-11_ses-02_task-ml_proj-lorasick_2021-03-09-14-07-27.312513
196	11	2	4	197	stable	1	200	197	sv	blue	red	red	blue	right	left	0.7	0.30000000000000004	10	2	7.0	0.6000000000000001	1	0	0.30000000000000004	0.7	2	10	0.6000000000000001	7.0	valid	0.6498517990003165	53248	0	1	1	53248	1	53248	1	53248	1	0.7	53248	red	blue	1	10	ml	2.7.3	lorasick	sub-11_ses-02_task-ml_proj-lorasick_2021-03-09-14-07-27.312513
197	11	2	4	198	stable	1	200	198	sv	blue	red	red	blue	right	left	0.7	0.30000000000000004	10	2	7.0	0.6000000000000001	1	0	0.30000000000000004	0.7	2	10	0.6000000000000001	7.0	valid	0.5665422050005873	53248	0	1	1	53248	1	53248	1	53248	1	0.7	53248	red	blue	1	10	ml	2.7.3	lorasick	sub-11_ses-02_task-ml_proj-lorasick_2021-03-09-14-07-27.312513
198	11	2	4	199	stable	1	200	199	sv	blue	red	red	blue	right	left	0.7	0.30000000000000004	2	2	1.4	0.6000000000000001	1	0	0.30000000000000004	0.7	2	2	0.6000000000000001	1.4	valid	0.7831513689998246	53248	0	1	1	53248	1	53248	1	53248	1	0.7	53248	red	blue	0	2	ml	2.7.3	lorasick	sub-11_ses-02_task-ml_proj-lorasick_2021-03-09-14-07-27.312513
199	11	2	4	200	stable	1	200	200	sv	blue	red	red	blue	right	left	0.7	0.30000000000000004	2	10	1.4	3.0000000000000004	1	0	0.30000000000000004	0.7	10	2	3.0000000000000004	1.4	valid	2.0827500939994934	51200	0	0	2	51200	1	53248	0	51200	1	0.7	53248	red	blue	0	0	ml	2.7.3	lorasick	sub-11_ses-02_task-ml_proj-lorasick_2021-03-09-14-07-27.312513
200	11	2	5	201	volatile	2	40	1	sv	blue	red	red	blue	right	left	0.30000000000000004	0.7	2	2	0.6000000000000001	1.4	0	1	0.7	0.30000000000000004	2	2	1.4	0.6000000000000001	valid	0.7164901459982502	53248	0	1	1	51200	0	51200	0	53248	1	0.7	51200	blue	red	1	0	ml	2.7.3	lorasick	sub-11_ses-02_task-ml_proj-lorasick_2021-03-09-14-07-27.312513
201	11	2	5	202	volatile	2	40	2	sv	red	blue	red	blue	left	right	0.30000000000000004	0.7	10	2	3.0000000000000004	1.4	0	1	0.30000000000000004	0.7	10	2	3.0000000000000004	1.4	valid	1.299642825000774	51200	0	0	1	51200	1	53248	0	51200	1	0.7	53248	blue	red	0	0	ml	2.7.3	lorasick	sub-11_ses-02_task-ml_proj-lorasick_2021-03-09-14-07-27.312513
202	11	2	5	203	volatile	2	40	3	sv	blue	red	red	blue	right	left	0.30000000000000004	0.7	4	6	1.2000000000000002	4.199999999999998	0	1	0.7	0.30000000000000004	6	4	4.199999999999998	1.2000000000000002	valid	1.9494624260005369	51200	0	0	2	51200	1	51200	1	51200	1	0.7	51200	blue	red	1	6	ml	2.7.3	lorasick	sub-11_ses-02_task-ml_proj-lorasick_2021-03-09-14-07-27.312513
203	11	2	5	204	volatile	2	40	4	sv	blue	red	red	blue	right	left	0.30000000000000004	0.7	2	4	0.6000000000000001	2.8	0	1	0.7	0.30000000000000004	4	2	2.8	0.6000000000000001	valid	0.8664454589998059	51200	0	0	2	51200	1	51200	1	51200	1	0.7	51200	blue	red	1	4	ml	2.7.3	lorasick	sub-11_ses-02_task-ml_proj-lorasick_2021-03-09-14-07-27.312513
204	11	2	5	205	volatile	2	40	5	sv	blue	red	red	blue	right	left	0.30000000000000004	0.7	4	6	1.2000000000000002	4.199999999999998	0	1	0.7	0.30000000000000004	6	4	4.199999999999998	1.2000000000000002	valid	0.6831332889996702	51200	0	0	2	51200	1	51200	1	51200	1	0.7	51200	blue	red	1	6	ml	2.7.3	lorasick	sub-11_ses-02_task-ml_proj-lorasick_2021-03-09-14-07-27.312513
205	11	2	5	206	volatile	2	40	6	sv	red	blue	red	blue	left	right	0.30000000000000004	0.7	2	4	0.6000000000000001	2.8	0	1	0.30000000000000004	0.7	2	4	0.6000000000000001	2.8	valid	0.6331861699982255	53248	0	1	2	53248	1	53248	1	53248	1	0.7	53248	blue	red	1	4	ml	2.7.3	lorasick	sub-11_ses-02_task-ml_proj-lorasick_2021-03-09-14-07-27.312513
206	11	2	5	207	volatile	2	40	7	sv	red	blue	red	blue	left	right	0.30000000000000004	0.7	4	6	1.2000000000000002	4.199999999999998	1	0	0.30000000000000004	0.7	4	6	1.2000000000000002	4.199999999999998	invalid	0.7164971959973627	53248	0	1	2	53248	1	53248	1	53248	1	0.7	53248	blue	red	1	0	ml	2.7.3	lorasick	sub-11_ses-02_task-ml_proj-lorasick_2021-03-09-14-07-27.312513
207	11	2	5	208	volatile	2	40	8	sv	blue	red	red	blue	right	left	0.30000000000000004	0.7	6	2	1.8000000000000005	1.4	0	1	0.7	0.30000000000000004	2	6	1.4	1.8000000000000005	valid	1.4829474580001258	53248	0	1	1	53248	1	51200	0	53248	1	0.7	51200	blue	red	0	0	ml	2.7.3	lorasick	sub-11_ses-02_task-ml_proj-lorasick_2021-03-09-14-07-27.312513
208	11	2	5	209	volatile	2	40	9	sv	red	blue	red	blue	left	right	0.30000000000000004	0.7	2	4	0.6000000000000001	2.8	1	0	0.30000000000000004	0.7	2	4	0.6000000000000001	2.8	invalid	0.6665186480022385	53248	0	1	2	53248	1	53248	1	53248	1	0.7	53248	blue	red	1	0	ml	2.7.3	lorasick	sub-11_ses-02_task-ml_proj-lorasick_2021-03-09-14-07-27.312513
209	11	2	5	210	volatile	2	40	10	sv	blue	red	red	blue	right	left	0.30000000000000004	0.7	2	10	0.6000000000000001	7.0	0	1	0.7	0.30000000000000004	10	2	7.0	0.6000000000000001	valid	0.8497783249986242	51200	0	0	2	51200	1	51200	1	51200	1	0.7	51200	blue	red	1	10	ml	2.7.3	lorasick	sub-11_ses-02_task-ml_proj-lorasick_2021-03-09-14-07-27.312513
210	11	2	5	211	volatile	2	40	11	sv	red	blue	red	blue	left	right	0.30000000000000004	0.7	2	4	0.6000000000000001	2.8	0	1	0.30000000000000004	0.7	2	4	0.6000000000000001	2.8	valid	0.7831437649983854	53248	0	1	2	53248	1	53248	1	53248	1	0.7	53248	blue	red	1	4	ml	2.7.3	lorasick	sub-11_ses-02_task-ml_proj-lorasick_2021-03-09-14-07-27.312513
211	11	2	5	212	volatile	2	40	12	sv	red	blue	red	blue	left	right	0.30000000000000004	0.7	6	4	1.8000000000000005	2.8	0	1	0.30000000000000004	0.7	6	4	1.8000000000000005	2.8	valid	1.0830615049999324	53248	0	1	2	53248	1	53248	1	51200	0	0.7	53248	blue	red	0	4	ml	2.7.3	lorasick	sub-11_ses-02_task-ml_proj-lorasick_2021-03-09-14-07-27.312513
212	11	2	5	213	volatile	2	40	13	sv	blue	red	red	blue	right	left	0.30000000000000004	0.7	2	4	0.6000000000000001	2.8	1	0	0.7	0.30000000000000004	4	2	2.8	0.6000000000000001	invalid	0.7998061939979381	51200	0	0	2	51200	1	51200	1	51200	1	0.7	51200	blue	red	1	0	ml	2.7.3	lorasick	sub-11_ses-02_task-ml_proj-lorasick_2021-03-09-14-07-27.312513
213	11	2	5	214	volatile	2	40	14	sv	red	blue	red	blue	left	right	0.30000000000000004	0.7	4	6	1.2000000000000002	4.199999999999998	0	1	0.30000000000000004	0.7	4	6	1.2000000000000002	4.199999999999998	valid	0.916437632000452	53248	0	1	2	53248	1	53248	1	53248	1	0.7	53248	blue	red	1	6	ml	2.7.3	lorasick	sub-11_ses-02_task-ml_proj-lorasick_2021-03-09-14-07-27.312513
214	11	2	5	215	volatile	2	40	15	sv	red	blue	red	blue	left	right	0.30000000000000004	0.7	2	10	0.6000000000000001	7.0	0	1	0.30000000000000004	0.7	2	10	0.6000000000000001	7.0	valid	0.6831705060030799	53248	0	1	2	53248	1	53248	1	53248	1	0.7	53248	blue	red	1	10	ml	2.7.3	lorasick	sub-11_ses-02_task-ml_proj-lorasick_2021-03-09-14-07-27.312513
215	11	2	5	216	volatile	2	40	16	sv	red	blue	red	blue	left	right	0.30000000000000004	0.7	2	4	0.6000000000000001	2.8	0	1	0.30000000000000004	0.7	2	4	0.6000000000000001	2.8	valid	0.6498474079999141	53248	0	1	2	53248	1	53248	1	53248	1	0.7	53248	blue	red	1	4	ml	2.7.3	lorasick	sub-11_ses-02_task-ml_proj-lorasick_2021-03-09-14-07-27.312513
216	11	2	5	217	volatile	2	40	17	sv	red	blue	red	blue	left	right	0.30000000000000004	0.7	4	6	1.2000000000000002	4.199999999999998	0	1	0.30000000000000004	0.7	4	6	1.2000000000000002	4.199999999999998	valid	0.5498820470020291	53248	0	1	2	53248	1	53248	1	53248	1	0.7	53248	blue	red	1	6	ml	2.7.3	lorasick	sub-11_ses-02_task-ml_proj-lorasick_2021-03-09-14-07-27.312513
217	11	2	5	218	volatile	2	40	18	sv	blue	red	red	blue	right	left	0.30000000000000004	0.7	6	2	1.8000000000000005	1.4	1	0	0.7	0.30000000000000004	2	6	1.4	1.8000000000000005	invalid	1.299641829002212	51200	0	0	2	53248	0	51200	1	53248	0	0.7	51200	blue	red	0	0	ml	2.7.3	lorasick	sub-11_ses-02_task-ml_proj-lorasick_2021-03-09-14-07-27.312513
218	11	2	5	219	volatile	2	40	19	sv	red	blue	red	blue	left	right	0.30000000000000004	0.7	4	2	1.2000000000000002	1.4	0	1	0.30000000000000004	0.7	4	2	1.2000000000000002	1.4	valid	1.2163512219995027	53248	0	1	2	53248	1	53248	1	51200	0	0.7	53248	blue	red	0	2	ml	2.7.3	lorasick	sub-11_ses-02_task-ml_proj-lorasick_2021-03-09-14-07-27.312513
219	11	2	5	220	volatile	2	40	20	sv	blue	red	red	blue	right	left	0.30000000000000004	0.7	6	6	1.8000000000000005	4.199999999999998	1	0	0.7	0.30000000000000004	6	6	4.199999999999998	1.8000000000000005	invalid	0.8664427249968867	51200	0	0	2	51200	1	51200	1	53248	0	0.7	51200	blue	red	1	0	ml	2.7.3	lorasick	sub-11_ses-02_task-ml_proj-lorasick_2021-03-09-14-07-27.312513
220	11	2	5	221	volatile	2	40	21	sv	red	blue	red	blue	left	right	0.30000000000000004	0.7	6	2	1.8000000000000005	1.4	0	1	0.30000000000000004	0.7	6	2	1.8000000000000005	1.4	valid	0.8997555339992687	51200	0	0	1	51200	1	53248	0	51200	1	0.7	53248	blue	red	0	0	ml	2.7.3	lorasick	sub-11_ses-02_task-ml_proj-lorasick_2021-03-09-14-07-27.312513
221	11	2	5	222	volatile	2	40	22	sv	red	blue	red	blue	left	right	0.30000000000000004	0.7	2	10	0.6000000000000001	7.0	0	1	0.30000000000000004	0.7	2	10	0.6000000000000001	7.0	valid	0.8331272649993481	53248	0	1	2	53248	1	53248	1	53248	1	0.7	53248	blue	red	1	10	ml	2.7.3	lorasick	sub-11_ses-02_task-ml_proj-lorasick_2021-03-09-14-07-27.312513
222	11	2	5	223	volatile	2	40	23	sv	red	blue	red	blue	left	right	0.30000000000000004	0.7	2	2	0.6000000000000001	1.4	1	0	0.30000000000000004	0.7	2	2	0.6000000000000001	1.4	invalid	0.8997781110010692	53248	0	1	2	53248	1	53248	1	53248	1	0.7	53248	blue	red	0	0	ml	2.7.3	lorasick	sub-11_ses-02_task-ml_proj-lorasick_2021-03-09-14-07-27.312513
223	11	2	5	224	volatile	2	40	24	sv	red	blue	red	blue	left	right	0.30000000000000004	0.7	2	6	0.6000000000000001	4.199999999999998	0	1	0.30000000000000004	0.7	2	6	0.6000000000000001	4.199999999999998	valid	0.6165237979985251	53248	0	1	2	53248	1	53248	1	53248	1	0.7	53248	blue	red	1	6	ml	2.7.3	lorasick	sub-11_ses-02_task-ml_proj-lorasick_2021-03-09-14-07-27.312513
224	11	2	5	225	volatile	2	40	25	sv	red	blue	red	blue	left	right	0.30000000000000004	0.7	6	6	1.8000000000000005	4.199999999999998	1	0	0.30000000000000004	0.7	6	6	1.8000000000000005	4.199999999999998	invalid	0.6165256120002596	53248	0	1	2	53248	1	53248	1	53248	1	0.7	53248	blue	red	0	0	ml	2.7.3	lorasick	sub-11_ses-02_task-ml_proj-lorasick_2021-03-09-14-07-27.312513
225	11	2	5	226	volatile	2	40	26	sv	blue	red	red	blue	right	left	0.30000000000000004	0.7	2	6	0.6000000000000001	4.199999999999998	0	1	0.7	0.30000000000000004	6	2	4.199999999999998	0.6000000000000001	valid	1.4162853009984246	51200	0	0	2	51200	1	51200	1	51200	1	0.7	51200	blue	red	1	6	ml	2.7.3	lorasick	sub-11_ses-02_task-ml_proj-lorasick_2021-03-09-14-07-27.312513
226	11	2	5	227	volatile	2	40	27	sv	blue	red	red	blue	right	left	0.30000000000000004	0.7	2	6	0.6000000000000001	4.199999999999998	0	1	0.7	0.30000000000000004	6	2	4.199999999999998	0.6000000000000001	valid	0.6331823930013343	51200	0	0	2	51200	1	51200	1	51200	1	0.7	51200	blue	red	1	6	ml	2.7.3	lorasick	sub-11_ses-02_task-ml_proj-lorasick_2021-03-09-14-07-27.312513
227	11	2	5	228	volatile	2	40	28	sv	blue	red	red	blue	right	left	0.30000000000000004	0.7	2	2	0.6000000000000001	1.4	0	1	0.7	0.30000000000000004	2	2	1.4	0.6000000000000001	valid	0.7331502259985427	51200	0	0	2	51200	1	51200	1	53248	0	0.7	51200	blue	red	1	2	ml	2.7.3	lorasick	sub-11_ses-02_task-ml_proj-lorasick_2021-03-09-14-07-27.312513
228	11	2	5	229	volatile	2	40	29	sv	red	blue	red	blue	left	right	0.30000000000000004	0.7	2	2	0.6000000000000001	1.4	1	0	0.30000000000000004	0.7	2	2	0.6000000000000001	1.4	invalid	0.6665116830008628	53248	0	1	2	53248	1	53248	1	53248	1	0.7	53248	blue	red	0	0	ml	2.7.3	lorasick	sub-11_ses-02_task-ml_proj-lorasick_2021-03-09-14-07-27.312513
229	11	2	5	230	volatile	2	40	30	sv	blue	red	red	blue	right	left	0.30000000000000004	0.7	2	10	0.6000000000000001	7.0	0	1	0.7	0.30000000000000004	10	2	7.0	0.6000000000000001	valid	0.7997898450012144	51200	0	0	2	51200	1	51200	1	51200	1	0.7	51200	blue	red	1	10	ml	2.7.3	lorasick	sub-11_ses-02_task-ml_proj-lorasick_2021-03-09-14-07-27.312513
230	11	2	5	231	volatile	2	40	31	sv	blue	red	red	blue	right	left	0.30000000000000004	0.7	2	4	0.6000000000000001	2.8	1	0	0.7	0.30000000000000004	4	2	2.8	0.6000000000000001	invalid	0.749817283001903	51200	0	0	2	51200	1	51200	1	51200	1	0.7	51200	blue	red	1	0	ml	2.7.3	lorasick	sub-11_ses-02_task-ml_proj-lorasick_2021-03-09-14-07-27.312513
231	11	2	5	232	volatile	2	40	32	sv	blue	red	red	blue	right	left	0.30000000000000004	0.7	6	4	1.8000000000000005	2.8	0	1	0.7	0.30000000000000004	4	6	2.8	1.8000000000000005	valid	0.9664246850006748	53248	0	1	1	51200	0	51200	0	53248	1	0.7	51200	blue	red	0	0	ml	2.7.3	lorasick	sub-11_ses-02_task-ml_proj-lorasick_2021-03-09-14-07-27.312513
232	11	2	5	233	volatile	2	40	33	sv	red	blue	red	blue	left	right	0.30000000000000004	0.7	2	10	0.6000000000000001	7.0	1	0	0.30000000000000004	0.7	2	10	0.6000000000000001	7.0	invalid	0.7164982299982512	53248	0	1	2	53248	1	53248	1	53248	1	0.7	53248	blue	red	1	0	ml	2.7.3	lorasick	sub-11_ses-02_task-ml_proj-lorasick_2021-03-09-14-07-27.312513
233	11	2	5	234	volatile	2	40	34	sv	red	blue	red	blue	left	right	0.30000000000000004	0.7	6	4	1.8000000000000005	2.8	0	1	0.30000000000000004	0.7	6	4	1.8000000000000005	2.8	valid	0.6331761580004239	51200	0	0	1	53248	0	53248	0	51200	1	0.7	53248	blue	red	0	0	ml	2.7.3	lorasick	sub-11_ses-02_task-ml_proj-lorasick_2021-03-09-14-07-27.312513
234	11	2	5	235	volatile	2	40	35	sv	blue	red	red	blue	right	left	0.30000000000000004	0.7	2	10	0.6000000000000001	7.0	1	0	0.7	0.30000000000000004	10	2	7.0	0.6000000000000001	invalid	0.8497815139999148	51200	0	0	2	51200	1	51200	1	51200	1	0.7	51200	blue	red	1	0	ml	2.7.3	lorasick	sub-11_ses-02_task-ml_proj-lorasick_2021-03-09-14-07-27.312513
235	11	2	5	236	volatile	2	40	36	sv	blue	red	red	blue	right	left	0.30000000000000004	0.7	2	6	0.6000000000000001	4.199999999999998	0	1	0.7	0.30000000000000004	6	2	4.199999999999998	0.6000000000000001	valid	0.749809428001754	51200	0	0	2	51200	1	51200	1	51200	1	0.7	51200	blue	red	1	6	ml	2.7.3	lorasick	sub-11_ses-02_task-ml_proj-lorasick_2021-03-09-14-07-27.312513
236	11	2	5	237	volatile	2	40	37	sv	blue	red	red	blue	right	left	0.30000000000000004	0.7	6	6	1.8000000000000005	4.199999999999998	0	1	0.7	0.30000000000000004	6	6	4.199999999999998	1.8000000000000005	valid	0.7164963710019947	53248	0	1	1	51200	0	51200	0	53248	1	0.7	51200	blue	red	1	0	ml	2.7.3	lorasick	sub-11_ses-02_task-ml_proj-lorasick_2021-03-09-14-07-27.312513
237	11	2	5	238	volatile	2	40	38	sv	red	blue	red	blue	left	right	0.30000000000000004	0.7	6	6	1.8000000000000005	4.199999999999998	0	1	0.30000000000000004	0.7	6	6	1.8000000000000005	4.199999999999998	valid	0.7831414409993158	53248	0	1	2	53248	1	53248	1	53248	1	0.7	53248	blue	red	0	6	ml	2.7.3	lorasick	sub-11_ses-02_task-ml_proj-lorasick_2021-03-09-14-07-27.312513
238	11	2	5	239	volatile	2	40	39	sv	blue	red	red	blue	right	left	0.30000000000000004	0.7	10	2	3.0000000000000004	1.4	0	1	0.7	0.30000000000000004	2	10	1.4	3.0000000000000004	valid	1.6162288919986167	53248	0	1	1	53248	1	51200	0	53248	1	0.7	51200	blue	red	0	0	ml	2.7.3	lorasick	sub-11_ses-02_task-ml_proj-lorasick_2021-03-09-14-07-27.312513
239	11	2	5	240	volatile	2	40	40	sv	blue	red	red	blue	right	left	0.30000000000000004	0.7	6	2	1.8000000000000005	1.4	1	0	0.7	0.30000000000000004	2	6	1.4	1.8000000000000005	invalid	1.6328998259996297	53248	0	1	1	53248	1	51200	0	53248	1	0.7	51200	blue	red	0	6	ml	2.7.3	lorasick	sub-11_ses-02_task-ml_proj-lorasick_2021-03-09-14-07-27.312513
240	11	2	5	241	volatile	3	40	1	sv	blue	red	red	blue	right	left	0.7	0.30000000000000004	2	6	1.4	1.8000000000000005	1	0	0.30000000000000004	0.7	6	2	1.8000000000000005	1.4	valid	1.0497244309990492	51200	0	0	2	51200	1	53248	0	51200	1	0.7	53248	red	blue	0	0	ml	2.7.3	lorasick	sub-11_ses-02_task-ml_proj-lorasick_2021-03-09-14-07-27.312513
241	11	2	5	242	volatile	3	40	2	sv	red	blue	red	blue	left	right	0.7	0.30000000000000004	2	4	1.4	1.2000000000000002	1	0	0.7	0.30000000000000004	2	4	1.4	1.2000000000000002	valid	0.7164896169997519	53248	0	1	2	51200	0	51200	0	53248	1	0.7	51200	red	blue	0	0	ml	2.7.3	lorasick	sub-11_ses-02_task-ml_proj-lorasick_2021-03-09-14-07-27.312513
242	11	2	5	243	volatile	3	40	3	sv	blue	red	red	blue	right	left	0.7	0.30000000000000004	4	6	2.8	1.8000000000000005	1	0	0.30000000000000004	0.7	6	4	1.8000000000000005	2.8	valid	1.2829998250017525	53248	0	1	1	53248	1	53248	1	51200	0	0.7	53248	red	blue	0	4	ml	2.7.3	lorasick	sub-11_ses-02_task-ml_proj-lorasick_2021-03-09-14-07-27.312513
243	11	2	5	244	volatile	3	40	4	sv	red	blue	red	blue	left	right	0.7	0.30000000000000004	6	6	4.199999999999998	1.8000000000000005	1	0	0.7	0.30000000000000004	6	6	4.199999999999998	1.8000000000000005	valid	0.5998498359986115	51200	0	0	1	51200	1	51200	1	53248	0	0.7	51200	red	blue	1	6	ml	2.7.3	lorasick	sub-11_ses-02_task-ml_proj-lorasick_2021-03-09-14-07-27.312513
244	11	2	5	245	volatile	3	40	5	sv	blue	red	red	blue	right	left	0.7	0.30000000000000004	6	4	4.199999999999998	1.2000000000000002	1	0	0.30000000000000004	0.7	4	6	1.2000000000000002	4.199999999999998	valid	0.5831994040017889	53248	0	1	1	53248	1	53248	1	53248	1	0.7	53248	red	blue	1	6	ml	2.7.3	lorasick	sub-11_ses-02_task-ml_proj-lorasick_2021-03-09-14-07-27.312513
245	11	2	5	246	volatile	3	40	6	sv	blue	red	red	blue	right	left	0.7	0.30000000000000004	10	2	7.0	0.6000000000000001	0	1	0.30000000000000004	0.7	2	10	0.6000000000000001	7.0	invalid	0.4665656439974555	53248	0	1	1	53248	1	53248	1	53248	1	0.7	53248	red	blue	1	0	ml	2.7.3	lorasick	sub-11_ses-02_task-ml_proj-lorasick_2021-03-09-14-07-27.312513
246	11	2	5	247	volatile	3	40	7	sv	blue	red	red	blue	right	left	0.7	0.30000000000000004	10	2	7.0	0.6000000000000001	0	1	0.30000000000000004	0.7	2	10	0.6000000000000001	7.0	invalid	0.5665328659997613	53248	0	1	1	53248	1	53248	1	53248	1	0.7	53248	red	blue	1	0	ml	2.7.3	lorasick	sub-11_ses-02_task-ml_proj-lorasick_2021-03-09-14-07-27.312513
247	11	2	5	248	volatile	3	40	8	sv	red	blue	red	blue	left	right	0.7	0.30000000000000004	2	10	1.4	3.0000000000000004	1	0	0.7	0.30000000000000004	2	10	1.4	3.0000000000000004	valid	0.7165022810004302	53248	0	1	2	53248	1	51200	0	53248	1	0.7	51200	red	blue	0	0	ml	2.7.3	lorasick	sub-11_ses-02_task-ml_proj-lorasick_2021-03-09-14-07-27.312513
248	11	2	5	249	volatile	3	40	9	sv	blue	red	red	blue	right	left	0.7	0.30000000000000004	2	6	1.4	1.8000000000000005	1	0	0.30000000000000004	0.7	6	2	1.8000000000000005	1.4	valid	0.6498380519988132	51200	0	0	2	51200	1	53248	0	51200	1	0.7	53248	red	blue	0	0	ml	2.7.3	lorasick	sub-11_ses-02_task-ml_proj-lorasick_2021-03-09-14-07-27.312513
249	11	2	5	250	volatile	3	40	10	sv	red	blue	red	blue	left	right	0.7	0.30000000000000004	10	2	7.0	0.6000000000000001	1	0	0.7	0.30000000000000004	10	2	7.0	0.6000000000000001	valid	0.5998584519984433	51200	0	0	1	51200	1	51200	1	51200	1	0.7	51200	red	blue	1	10	ml	2.7.3	lorasick	sub-11_ses-02_task-ml_proj-lorasick_2021-03-09-14-07-27.312513
250	11	2	6	251	volatile	3	40	11	sv	blue	red	red	blue	right	left	0.7	0.30000000000000004	2	4	1.4	1.2000000000000002	0	1	0.30000000000000004	0.7	4	2	1.2000000000000002	1.4	invalid	0.9497501039986672	51200	0	0	2	53248	0	53248	0	51200	1	0.7	53248	red	blue	0	4	ml	2.7.3	lorasick	sub-11_ses-02_task-ml_proj-lorasick_2021-03-09-14-07-27.312513
251	11	2	6	252	volatile	3	40	12	sv	blue	red	red	blue	right	left	0.7	0.30000000000000004	2	10	1.4	3.0000000000000004	1	0	0.30000000000000004	0.7	10	2	3.0000000000000004	1.4	valid	0.5665298749991052	51200	0	0	2	51200	1	53248	0	51200	1	0.7	53248	red	blue	0	0	ml	2.7.3	lorasick	sub-11_ses-02_task-ml_proj-lorasick_2021-03-09-14-07-27.312513
252	11	2	6	253	volatile	3	40	13	sv	blue	red	red	blue	right	left	0.7	0.30000000000000004	2	2	1.4	0.6000000000000001	1	0	0.30000000000000004	0.7	2	2	0.6000000000000001	1.4	valid	0.866445310999552	51200	0	0	2	53248	0	53248	0	53248	0	0.7	53248	red	blue	0	0	ml	2.7.3	lorasick	sub-11_ses-02_task-ml_proj-lorasick_2021-03-09-14-07-27.312513
253	11	2	6	254	volatile	3	40	14	sv	red	blue	red	blue	left	right	0.7	0.30000000000000004	6	6	4.199999999999998	1.8000000000000005	1	0	0.7	0.30000000000000004	6	6	4.199999999999998	1.8000000000000005	valid	1.2163586719980228	53248	0	1	2	51200	0	51200	0	53248	1	0.7	51200	red	blue	1	0	ml	2.7.3	lorasick	sub-11_ses-02_task-ml_proj-lorasick_2021-03-09-14-07-27.312513
254	11	2	6	255	volatile	3	40	15	sv	red	blue	red	blue	left	right	0.7	0.30000000000000004	4	2	2.8	0.6000000000000001	0	1	0.7	0.30000000000000004	4	2	2.8	0.6000000000000001	invalid	0.5498669560001872	51200	0	0	1	51200	1	51200	1	51200	1	0.7	51200	red	blue	1	0	ml	2.7.3	lorasick	sub-11_ses-02_task-ml_proj-lorasick_2021-03-09-14-07-27.312513
255	11	2	6	256	volatile	3	40	16	sv	blue	red	red	blue	right	left	0.7	0.30000000000000004	2	10	1.4	3.0000000000000004	1	0	0.30000000000000004	0.7	10	2	3.0000000000000004	1.4	valid	0.8164524459971291	51200	0	0	2	51200	1	53248	0	51200	1	0.7	53248	red	blue	0	0	ml	2.7.3	lorasick	sub-11_ses-02_task-ml_proj-lorasick_2021-03-09-14-07-27.312513
256	11	2	6	257	volatile	3	40	17	sv	blue	red	red	blue	right	left	0.7	0.30000000000000004	6	6	4.199999999999998	1.8000000000000005	0	1	0.30000000000000004	0.7	6	6	1.8000000000000005	4.199999999999998	invalid	0.4499059850022604	53248	0	1	1	53248	1	53248	1	53248	1	0.7	53248	red	blue	0	0	ml	2.7.3	lorasick	sub-11_ses-02_task-ml_proj-lorasick_2021-03-09-14-07-27.312513
257	11	2	6	258	volatile	3	40	18	sv	red	blue	red	blue	left	right	0.7	0.30000000000000004	6	2	4.199999999999998	0.6000000000000001	0	1	0.7	0.30000000000000004	6	2	4.199999999999998	0.6000000000000001	invalid	0.6165241800008516	51200	0	0	1	51200	1	51200	1	51200	1	0.7	51200	red	blue	1	0	ml	2.7.3	lorasick	sub-11_ses-02_task-ml_proj-lorasick_2021-03-09-14-07-27.312513
258	11	2	6	259	volatile	3	40	19	sv	blue	red	red	blue	right	left	0.7	0.30000000000000004	6	2	4.199999999999998	0.6000000000000001	1	0	0.30000000000000004	0.7	2	6	0.6000000000000001	4.199999999999998	valid	0.6165272209982504	53248	0	1	1	53248	1	53248	1	53248	1	0.7	53248	red	blue	1	6	ml	2.7.3	lorasick	sub-11_ses-02_task-ml_proj-lorasick_2021-03-09-14-07-27.312513
259	11	2	6	260	volatile	3	40	20	sv	red	blue	red	blue	left	right	0.7	0.30000000000000004	4	6	2.8	1.8000000000000005	1	0	0.7	0.30000000000000004	4	6	2.8	1.8000000000000005	valid	1.299660475997371	53248	0	1	2	51200	0	51200	0	53248	1	0.7	51200	red	blue	0	0	ml	2.7.3	lorasick	sub-11_ses-02_task-ml_proj-lorasick_2021-03-09-14-07-27.312513
260	11	2	6	261	volatile	3	40	21	sv	red	blue	red	blue	left	right	0.7	0.30000000000000004	4	6	2.8	1.8000000000000005	1	0	0.7	0.30000000000000004	4	6	2.8	1.8000000000000005	valid	0.9664138389998698	51200	0	0	1	51200	1	51200	1	53248	0	0.7	51200	red	blue	0	4	ml	2.7.3	lorasick	sub-11_ses-02_task-ml_proj-lorasick_2021-03-09-14-07-27.312513
261	11	2	6	262	volatile	3	40	22	sv	red	blue	red	blue	left	right	0.7	0.30000000000000004	2	6	1.4	1.8000000000000005	0	1	0.7	0.30000000000000004	2	6	1.4	1.8000000000000005	invalid	1.8494929139997112	51200	0	0	1	53248	0	51200	1	53248	0	0.7	51200	red	blue	0	0	ml	2.7.3	lorasick	sub-11_ses-02_task-ml_proj-lorasick_2021-03-09-14-07-27.312513
262	11	2	6	263	volatile	3	40	23	sv	red	blue	red	blue	left	right	0.7	0.30000000000000004	2	6	1.4	1.8000000000000005	1	0	0.7	0.30000000000000004	2	6	1.4	1.8000000000000005	valid	1.3329850629997964	53248	0	1	2	53248	1	51200	0	53248	1	0.7	51200	red	blue	0	0	ml	2.7.3	lorasick	sub-11_ses-02_task-ml_proj-lorasick_2021-03-09-14-07-27.312513
263	11	2	6	264	volatile	3	40	24	sv	blue	red	red	blue	right	left	0.7	0.30000000000000004	4	6	2.8	1.8000000000000005	1	0	0.30000000000000004	0.7	6	4	1.8000000000000005	2.8	valid	1.7495322630020382	53248	0	1	1	53248	1	53248	1	51200	0	0.7	53248	red	blue	0	4	ml	2.7.3	lorasick	sub-11_ses-02_task-ml_proj-lorasick_2021-03-09-14-07-27.312513
264	11	2	6	265	volatile	3	40	25	sv	red	blue	red	blue	left	right	0.7	0.30000000000000004	6	4	4.199999999999998	1.2000000000000002	1	0	0.7	0.30000000000000004	6	4	4.199999999999998	1.2000000000000002	valid	1.183017221999762	51200	0	0	1	51200	1	51200	1	51200	1	0.7	51200	red	blue	1	6	ml	2.7.3	lorasick	sub-11_ses-02_task-ml_proj-lorasick_2021-03-09-14-07-27.312513
265	11	2	6	266	volatile	3	40	26	sv	red	blue	red	blue	left	right	0.7	0.30000000000000004	2	4	1.4	1.2000000000000002	1	0	0.7	0.30000000000000004	2	4	1.4	1.2000000000000002	valid	1.3163132000008773	51200	0	0	1	51200	1	51200	1	53248	0	0.7	51200	red	blue	0	2	ml	2.7.3	lorasick	sub-11_ses-02_task-ml_proj-lorasick_2021-03-09-14-07-27.312513
266	11	2	6	267	volatile	3	40	27	sv	red	blue	red	blue	left	right	0.7	0.30000000000000004	2	4	1.4	1.2000000000000002	0	1	0.7	0.30000000000000004	2	4	1.4	1.2000000000000002	invalid	1.2330054310004923	51200	0	0	1	51200	1	51200	1	53248	0	0.7	51200	red	blue	0	0	ml	2.7.3	lorasick	sub-11_ses-02_task-ml_proj-lorasick_2021-03-09-14-07-27.312513
267	11	2	6	268	volatile	3	40	28	sv	blue	red	red	blue	right	left	0.7	0.30000000000000004	10	2	7.0	0.6000000000000001	1	0	0.30000000000000004	0.7	2	10	0.6000000000000001	7.0	valid	0.9664254810013516	53248	0	1	1	53248	1	53248	1	53248	1	0.7	53248	red	blue	1	10	ml	2.7.3	lorasick	sub-11_ses-02_task-ml_proj-lorasick_2021-03-09-14-07-27.312513
268	11	2	6	269	volatile	3	40	29	sv	blue	red	red	blue	right	left	0.7	0.30000000000000004	2	10	1.4	3.0000000000000004	1	0	0.30000000000000004	0.7	10	2	3.0000000000000004	1.4	valid	1.6495490580018668	51200	0	0	2	51200	1	53248	0	51200	1	0.7	53248	red	blue	0	0	ml	2.7.3	lorasick	sub-11_ses-02_task-ml_proj-lorasick_2021-03-09-14-07-27.312513
269	11	2	6	270	volatile	3	40	30	sv	red	blue	red	blue	left	right	0.7	0.30000000000000004	4	2	2.8	0.6000000000000001	1	0	0.7	0.30000000000000004	4	2	2.8	0.6000000000000001	valid	0.8664450399992347	51200	0	0	1	51200	1	51200	1	51200	1	0.7	51200	red	blue	1	4	ml	2.7.3	lorasick	sub-11_ses-02_task-ml_proj-lorasick_2021-03-09-14-07-27.312513
270	11	2	6	271	volatile	3	40	31	sv	red	blue	red	blue	left	right	0.7	0.30000000000000004	2	4	1.4	1.2000000000000002	0	1	0.7	0.30000000000000004	2	4	1.4	1.2000000000000002	invalid	1.4329490680029269	51200	0	0	1	51200	1	51200	1	53248	0	0.7	51200	red	blue	0	0	ml	2.7.3	lorasick	sub-11_ses-02_task-ml_proj-lorasick_2021-03-09-14-07-27.312513
271	11	2	6	272	volatile	3	40	32	sv	blue	red	red	blue	right	left	0.7	0.30000000000000004	6	2	4.199999999999998	0.6000000000000001	1	0	0.30000000000000004	0.7	2	6	0.6000000000000001	4.199999999999998	valid	0.7498185170006764	53248	0	1	1	53248	1	53248	1	53248	1	0.7	53248	red	blue	1	6	ml	2.7.3	lorasick	sub-11_ses-02_task-ml_proj-lorasick_2021-03-09-14-07-27.312513
272	11	2	6	273	volatile	3	40	33	sv	red	blue	red	blue	left	right	0.7	0.30000000000000004	4	6	2.8	1.8000000000000005	0	1	0.7	0.30000000000000004	4	6	2.8	1.8000000000000005	invalid	1.3829594050002925	51200	0	0	1	51200	1	51200	1	53248	0	0.7	51200	red	blue	0	0	ml	2.7.3	lorasick	sub-11_ses-02_task-ml_proj-lorasick_2021-03-09-14-07-27.312513
273	11	2	6	274	volatile	3	40	34	sv	blue	red	red	blue	right	left	0.7	0.30000000000000004	2	6	1.4	1.8000000000000005	0	1	0.30000000000000004	0.7	6	2	1.8000000000000005	1.4	invalid	1.1330296609994548	51200	0	0	2	51200	1	53248	0	51200	1	0.7	53248	red	blue	0	6	ml	2.7.3	lorasick	sub-11_ses-02_task-ml_proj-lorasick_2021-03-09-14-07-27.312513
274	11	2	6	275	volatile	3	40	35	sv	red	blue	red	blue	left	right	0.7	0.30000000000000004	2	2	1.4	0.6000000000000001	1	0	0.7	0.30000000000000004	2	2	1.4	0.6000000000000001	valid	0.9497628749995785	53248	0	1	2	51200	0	51200	0	53248	1	0.7	51200	red	blue	1	0	ml	2.7.3	lorasick	sub-11_ses-02_task-ml_proj-lorasick_2021-03-09-14-07-27.312513
275	11	2	6	276	volatile	3	40	36	sv	red	blue	red	blue	left	right	0.7	0.30000000000000004	2	2	1.4	0.6000000000000001	1	0	0.7	0.30000000000000004	2	2	1.4	0.6000000000000001	valid	0.666519246999087	53248	0	1	2	51200	0	51200	0	53248	1	0.7	51200	red	blue	1	0	ml	2.7.3	lorasick	sub-11_ses-02_task-ml_proj-lorasick_2021-03-09-14-07-27.312513
276	11	2	6	277	volatile	3	40	37	sv	blue	red	red	blue	right	left	0.7	0.30000000000000004	6	6	4.199999999999998	1.8000000000000005	1	0	0.30000000000000004	0.7	6	6	1.8000000000000005	4.199999999999998	valid	0.6831888279994018	53248	0	1	1	53248	1	53248	1	53248	1	0.7	53248	red	blue	0	6	ml	2.7.3	lorasick	sub-11_ses-02_task-ml_proj-lorasick_2021-03-09-14-07-27.312513
277	11	2	6	278	volatile	3	40	38	sv	red	blue	red	blue	left	right	0.7	0.30000000000000004	6	4	4.199999999999998	1.2000000000000002	1	0	0.7	0.30000000000000004	6	4	4.199999999999998	1.2000000000000002	valid	0.683162593999441	51200	0	0	1	51200	1	51200	1	51200	1	0.7	51200	red	blue	1	6	ml	2.7.3	lorasick	sub-11_ses-02_task-ml_proj-lorasick_2021-03-09-14-07-27.312513
278	11	2	6	279	volatile	3	40	39	sv	blue	red	red	blue	right	left	0.7	0.30000000000000004	2	4	1.4	1.2000000000000002	1	0	0.30000000000000004	0.7	4	2	1.2000000000000002	1.4	valid	0.8831172159989364	53248	0	1	1	53248	1	53248	1	51200	0	0.7	53248	red	blue	0	2	ml	2.7.3	lorasick	sub-11_ses-02_task-ml_proj-lorasick_2021-03-09-14-07-27.312513
279	11	2	6	280	volatile	3	40	40	sv	blue	red	red	blue	right	left	0.7	0.30000000000000004	2	2	1.4	0.6000000000000001	0	1	0.30000000000000004	0.7	2	2	0.6000000000000001	1.4	invalid	0.7164972049977223	53248	0	1	1	53248	1	53248	1	53248	1	0.7	53248	red	blue	0	0	ml	2.7.3	lorasick	sub-11_ses-02_task-ml_proj-lorasick_2021-03-09-14-07-27.312513
280	11	2	6	281	volatile	4	20	1	sv	red	blue	red	blue	left	right	0.30000000000000004	0.7	2	6	0.6000000000000001	4.199999999999998	1	0	0.30000000000000004	0.7	2	6	0.6000000000000001	4.199999999999998	invalid	1.5162605780024023	53248	0	1	2	53248	1	53248	1	53248	1	0.7	53248	blue	red	1	0	ml	2.7.3	lorasick	sub-11_ses-02_task-ml_proj-lorasick_2021-03-09-14-07-27.312513
281	11	2	6	282	volatile	4	20	2	sv	blue	red	red	blue	right	left	0.30000000000000004	0.7	2	10	0.6000000000000001	7.0	0	1	0.7	0.30000000000000004	10	2	7.0	0.6000000000000001	valid	0.8331225850015471	51200	0	0	2	51200	1	51200	1	51200	1	0.7	51200	blue	red	1	10	ml	2.7.3	lorasick	sub-11_ses-02_task-ml_proj-lorasick_2021-03-09-14-07-27.312513
282	11	2	6	283	volatile	4	20	3	sv	blue	red	red	blue	right	left	0.30000000000000004	0.7	4	6	1.2000000000000002	4.199999999999998	1	0	0.7	0.30000000000000004	6	4	4.199999999999998	1.2000000000000002	invalid	1.8994898040000407	53248	0	1	1	51200	0	51200	0	51200	0	0.7	51200	blue	red	1	4	ml	2.7.3	lorasick	sub-11_ses-02_task-ml_proj-lorasick_2021-03-09-14-07-27.312513
283	11	2	6	284	volatile	4	20	4	sv	blue	red	red	blue	right	left	0.30000000000000004	0.7	2	4	0.6000000000000001	2.8	1	0	0.7	0.30000000000000004	4	2	2.8	0.6000000000000001	invalid	1.3329911719993106	53248	0	1	1	51200	0	51200	0	51200	0	0.7	51200	blue	red	1	2	ml	2.7.3	lorasick	sub-11_ses-02_task-ml_proj-lorasick_2021-03-09-14-07-27.312513
284	11	2	6	285	volatile	4	20	5	sv	red	blue	red	blue	left	right	0.30000000000000004	0.7	4	6	1.2000000000000002	4.199999999999998	0	1	0.30000000000000004	0.7	4	6	1.2000000000000002	4.199999999999998	valid	1.3662992650024537	51200	0	0	1	53248	0	53248	0	53248	0	0.7	53248	blue	red	1	0	ml	2.7.3	lorasick	sub-11_ses-02_task-ml_proj-lorasick_2021-03-09-14-07-27.312513
285	11	2	6	286	volatile	4	20	6	sv	blue	red	red	blue	right	left	0.30000000000000004	0.7	2	6	0.6000000000000001	4.199999999999998	0	1	0.7	0.30000000000000004	6	2	4.199999999999998	0.6000000000000001	valid	0.7831347879982786	51200	0	0	2	51200	1	51200	1	51200	1	0.7	51200	blue	red	1	6	ml	2.7.3	lorasick	sub-11_ses-02_task-ml_proj-lorasick_2021-03-09-14-07-27.312513
286	11	2	6	287	volatile	4	20	7	sv	blue	red	red	blue	right	left	0.30000000000000004	0.7	10	2	3.0000000000000004	1.4	0	1	0.7	0.30000000000000004	2	10	1.4	3.0000000000000004	valid	1.632898703999672	53248	0	1	1	53248	1	51200	0	53248	1	0.7	51200	blue	red	0	0	ml	2.7.3	lorasick	sub-11_ses-02_task-ml_proj-lorasick_2021-03-09-14-07-27.312513
287	11	2	6	288	volatile	4	20	8	sv	blue	red	red	blue	right	left	0.30000000000000004	0.7	4	2	1.2000000000000002	1.4	0	1	0.7	0.30000000000000004	2	4	1.4	1.2000000000000002	valid	1.1163712170018698	51200	0	0	2	51200	1	51200	1	53248	0	0.7	51200	blue	red	0	2	ml	2.7.3	lorasick	sub-11_ses-02_task-ml_proj-lorasick_2021-03-09-14-07-27.312513
288	11	2	6	289	volatile	4	20	9	sv	red	blue	red	blue	left	right	0.30000000000000004	0.7	10	2	3.0000000000000004	1.4	1	0	0.30000000000000004	0.7	10	2	3.0000000000000004	1.4	invalid	1.7828392530027486	51200	0	0	1	51200	1	53248	0	51200	1	0.7	53248	blue	red	0	10	ml	2.7.3	lorasick	sub-11_ses-02_task-ml_proj-lorasick_2021-03-09-14-07-27.312513
289	11	2	6	290	volatile	4	20	10	sv	red	blue	red	blue	left	right	0.30000000000000004	0.7	4	2	1.2000000000000002	1.4	0	1	0.30000000000000004	0.7	4	2	1.2000000000000002	1.4	valid	0.8331286249995173	53248	0	1	2	53248	1	53248	1	51200	0	0.7	53248	blue	red	0	2	ml	2.7.3	lorasick	sub-11_ses-02_task-ml_proj-lorasick_2021-03-09-14-07-27.312513
