Unnamed: 0	sub_id	ses_id	block_no	trial_no	phase_type	phase_no	phase_length	trialInPhase_no	phase_type_order	color_left	color_right	color1	color2	position1	position2	prob1	prob2	mag1	mag2	ev1	ev2	outcome1	outcome2	prob_left	prob_right	mag_left	mag_right	ev_left	ev_right	reward_validity	resp_time	resp_key	timeout	choice_side	choice	ev_corr_resp	ev_correct	prob_corr_resp	prob_correct	mag_corr_resp	mag_correct	high_prob	high_prob_side	high_prob_color	low_prob_color	no_brain	reward	name	version	proj_id	logFileID
0	7	1	1	1	stable	1	200	1	sv	purple	turquoise	turquoise	purple	right	left	0.7	0.30000000000000004	2	6	1.4	1.8000000000000005	1	0	0.30000000000000004	0.7	6	2	1.8000000000000005	1.4	valid	1.2329948990009143	51200	0	0	2	51200	1	53248	0	51200	1	0.7	53248	turquoise	purple	0	0	ml	2.7.3	lorasick	sub-07_ses-01_task-ml_proj-lorasick_2021-01-13-14-01-56.936892
1	7	1	1	2	stable	1	200	2	sv	purple	turquoise	turquoise	purple	right	left	0.7	0.30000000000000004	4	6	2.8	1.8000000000000005	1	0	0.30000000000000004	0.7	6	4	1.8000000000000005	2.8	valid	0.516554587000428	53248	0	1	1	53248	1	53248	1	51200	0	0.7	53248	turquoise	purple	0	4	ml	2.7.3	lorasick	sub-07_ses-01_task-ml_proj-lorasick_2021-01-13-14-01-56.936892
2	7	1	1	3	stable	1	200	3	sv	purple	turquoise	turquoise	purple	right	left	0.7	0.30000000000000004	4	6	2.8	1.8000000000000005	1	0	0.30000000000000004	0.7	6	4	1.8000000000000005	2.8	valid	0.4165826560019923	53248	0	1	1	53248	1	53248	1	51200	0	0.7	53248	turquoise	purple	0	4	ml	2.7.3	lorasick	sub-07_ses-01_task-ml_proj-lorasick_2021-01-13-14-01-56.936892
3	7	1	1	4	stable	1	200	4	sv	purple	turquoise	turquoise	purple	right	left	0.7	0.30000000000000004	2	6	1.4	1.8000000000000005	1	0	0.30000000000000004	0.7	6	2	1.8000000000000005	1.4	valid	0.6331804379988171	53248	0	1	1	51200	0	53248	1	51200	0	0.7	53248	turquoise	purple	0	2	ml	2.7.3	lorasick	sub-07_ses-01_task-ml_proj-lorasick_2021-01-13-14-01-56.936892
4	7	1	1	5	stable	1	200	5	sv	purple	turquoise	turquoise	purple	right	left	0.7	0.30000000000000004	10	2	7.0	0.6000000000000001	1	0	0.30000000000000004	0.7	2	10	0.6000000000000001	7.0	valid	0.7498188139979902	53248	0	1	1	53248	1	53248	1	53248	1	0.7	53248	turquoise	purple	1	10	ml	2.7.3	lorasick	sub-07_ses-01_task-ml_proj-lorasick_2021-01-13-14-01-56.936892
5	7	1	1	6	stable	1	200	6	sv	turquoise	purple	turquoise	purple	left	right	0.7	0.30000000000000004	10	2	7.0	0.6000000000000001	1	0	0.7	0.30000000000000004	10	2	7.0	0.6000000000000001	valid	0.6498372700007167	51200	0	0	1	51200	1	51200	1	51200	1	0.7	51200	turquoise	purple	1	10	ml	2.7.3	lorasick	sub-07_ses-01_task-ml_proj-lorasick_2021-01-13-14-01-56.936892
6	7	1	1	7	stable	1	200	7	sv	turquoise	purple	turquoise	purple	left	right	0.7	0.30000000000000004	4	6	2.8	1.8000000000000005	1	0	0.7	0.30000000000000004	4	6	2.8	1.8000000000000005	valid	0.4998825379989285	51200	0	0	1	51200	1	51200	1	53248	0	0.7	51200	turquoise	purple	0	4	ml	2.7.3	lorasick	sub-07_ses-01_task-ml_proj-lorasick_2021-01-13-14-01-56.936892
7	7	1	1	8	stable	1	200	8	sv	turquoise	purple	turquoise	purple	left	right	0.7	0.30000000000000004	4	6	2.8	1.8000000000000005	1	0	0.7	0.30000000000000004	4	6	2.8	1.8000000000000005	valid	0.5332038220003597	51200	0	0	1	51200	1	51200	1	53248	0	0.7	51200	turquoise	purple	0	4	ml	2.7.3	lorasick	sub-07_ses-01_task-ml_proj-lorasick_2021-01-13-14-01-56.936892
8	7	1	1	9	stable	1	200	9	sv	turquoise	purple	turquoise	purple	left	right	0.7	0.30000000000000004	4	2	2.8	0.6000000000000001	1	0	0.7	0.30000000000000004	4	2	2.8	0.6000000000000001	valid	0.3665929420021712	51200	0	0	1	51200	1	51200	1	51200	1	0.7	51200	turquoise	purple	1	4	ml	2.7.3	lorasick	sub-07_ses-01_task-ml_proj-lorasick_2021-01-13-14-01-56.936892
9	7	1	1	10	stable	1	200	10	sv	turquoise	purple	turquoise	purple	left	right	0.7	0.30000000000000004	2	4	1.4	1.2000000000000002	1	0	0.7	0.30000000000000004	2	4	1.4	1.2000000000000002	valid	0.4665565100003733	51200	0	0	1	51200	1	51200	1	53248	0	0.7	51200	turquoise	purple	0	2	ml	2.7.3	lorasick	sub-07_ses-01_task-ml_proj-lorasick_2021-01-13-14-01-56.936892
10	7	1	1	11	stable	1	200	11	sv	purple	turquoise	turquoise	purple	right	left	0.7	0.30000000000000004	4	2	2.8	0.6000000000000001	1	0	0.30000000000000004	0.7	2	4	0.6000000000000001	2.8	valid	0.4499055220003356	53248	0	1	1	53248	1	53248	1	53248	1	0.7	53248	turquoise	purple	1	4	ml	2.7.3	lorasick	sub-07_ses-01_task-ml_proj-lorasick_2021-01-13-14-01-56.936892
11	7	1	1	12	stable	1	200	12	sv	turquoise	purple	turquoise	purple	left	right	0.7	0.30000000000000004	2	10	1.4	3.0000000000000004	1	0	0.7	0.30000000000000004	2	10	1.4	3.0000000000000004	valid	0.4332358930005285	51200	0	0	1	53248	0	51200	1	53248	0	0.7	51200	turquoise	purple	0	2	ml	2.7.3	lorasick	sub-07_ses-01_task-ml_proj-lorasick_2021-01-13-14-01-56.936892
12	7	1	1	13	stable	1	200	13	sv	purple	turquoise	turquoise	purple	right	left	0.7	0.30000000000000004	2	4	1.4	1.2000000000000002	0	1	0.30000000000000004	0.7	4	2	1.2000000000000002	1.4	invalid	0.3665990560002683	53248	0	1	1	53248	1	53248	1	51200	0	0.7	53248	turquoise	purple	0	0	ml	2.7.3	lorasick	sub-07_ses-01_task-ml_proj-lorasick_2021-01-13-14-01-56.936892
13	7	1	1	14	stable	1	200	14	sv	turquoise	purple	turquoise	purple	left	right	0.7	0.30000000000000004	2	10	1.4	3.0000000000000004	1	0	0.7	0.30000000000000004	2	10	1.4	3.0000000000000004	valid	0.4332443919993239	53248	0	1	2	53248	1	51200	0	53248	1	0.7	51200	turquoise	purple	0	0	ml	2.7.3	lorasick	sub-07_ses-01_task-ml_proj-lorasick_2021-01-13-14-01-56.936892
14	7	1	1	15	stable	1	200	15	sv	turquoise	purple	turquoise	purple	left	right	0.7	0.30000000000000004	6	6	4.199999999999998	1.8000000000000005	1	0	0.7	0.30000000000000004	6	6	4.199999999999998	1.8000000000000005	valid	0.8997762019971558	53248	0	1	2	51200	0	51200	0	53248	1	0.7	51200	turquoise	purple	1	0	ml	2.7.3	lorasick	sub-07_ses-01_task-ml_proj-lorasick_2021-01-13-14-01-56.936892
15	7	1	1	16	stable	1	200	16	sv	purple	turquoise	turquoise	purple	right	left	0.7	0.30000000000000004	2	10	1.4	3.0000000000000004	1	0	0.30000000000000004	0.7	10	2	3.0000000000000004	1.4	valid	0.6498499469998933	53248	0	1	1	51200	0	53248	1	51200	0	0.7	53248	turquoise	purple	0	2	ml	2.7.3	lorasick	sub-07_ses-01_task-ml_proj-lorasick_2021-01-13-14-01-56.936892
16	7	1	1	17	stable	1	200	17	sv	turquoise	purple	turquoise	purple	left	right	0.7	0.30000000000000004	2	2	1.4	0.6000000000000001	1	0	0.7	0.30000000000000004	2	2	1.4	0.6000000000000001	valid	0.3332611299993005	51200	0	0	1	51200	1	51200	1	53248	0	0.7	51200	turquoise	purple	1	2	ml	2.7.3	lorasick	sub-07_ses-01_task-ml_proj-lorasick_2021-01-13-14-01-56.936892
17	7	1	1	18	stable	1	200	18	sv	turquoise	purple	turquoise	purple	left	right	0.7	0.30000000000000004	2	6	1.4	1.8000000000000005	1	0	0.7	0.30000000000000004	2	6	1.4	1.8000000000000005	valid	0.416574725000828	51200	0	0	1	53248	0	51200	1	53248	0	0.7	51200	turquoise	purple	0	2	ml	2.7.3	lorasick	sub-07_ses-01_task-ml_proj-lorasick_2021-01-13-14-01-56.936892
18	7	1	1	19	stable	1	200	19	sv	turquoise	purple	turquoise	purple	left	right	0.7	0.30000000000000004	6	6	4.199999999999998	1.8000000000000005	1	0	0.7	0.30000000000000004	6	6	4.199999999999998	1.8000000000000005	valid	0.4665572350022558	51200	0	0	1	51200	1	51200	1	53248	0	0.7	51200	turquoise	purple	1	6	ml	2.7.3	lorasick	sub-07_ses-01_task-ml_proj-lorasick_2021-01-13-14-01-56.936892
19	7	1	1	20	stable	1	200	20	sv	turquoise	purple	turquoise	purple	left	right	0.7	0.30000000000000004	6	6	4.199999999999998	1.8000000000000005	1	0	0.7	0.30000000000000004	6	6	4.199999999999998	1.8000000000000005	valid	0.3999100129985891	51200	0	0	1	51200	1	51200	1	53248	0	0.7	51200	turquoise	purple	1	6	ml	2.7.3	lorasick	sub-07_ses-01_task-ml_proj-lorasick_2021-01-13-14-01-56.936892
20	7	1	1	21	stable	1	200	21	sv	turquoise	purple	turquoise	purple	left	right	0.7	0.30000000000000004	4	6	2.8	1.8000000000000005	1	0	0.7	0.30000000000000004	4	6	2.8	1.8000000000000005	valid	0.4332368710020091	51200	0	0	1	51200	1	51200	1	53248	0	0.7	51200	turquoise	purple	0	4	ml	2.7.3	lorasick	sub-07_ses-01_task-ml_proj-lorasick_2021-01-13-14-01-56.936892
21	7	1	1	22	stable	1	200	22	sv	turquoise	purple	turquoise	purple	left	right	0.7	0.30000000000000004	2	10	1.4	3.0000000000000004	1	0	0.7	0.30000000000000004	2	10	1.4	3.0000000000000004	valid	0.4165650280010596	51200	0	0	1	53248	0	51200	1	53248	0	0.7	51200	turquoise	purple	0	2	ml	2.7.3	lorasick	sub-07_ses-01_task-ml_proj-lorasick_2021-01-13-14-01-56.936892
22	7	1	1	23	stable	1	200	23	sv	purple	turquoise	turquoise	purple	right	left	0.7	0.30000000000000004	2	6	1.4	1.8000000000000005	1	0	0.30000000000000004	0.7	6	2	1.8000000000000005	1.4	valid	0.9830878410029982	53248	0	1	1	51200	0	53248	1	51200	0	0.7	53248	turquoise	purple	0	2	ml	2.7.3	lorasick	sub-07_ses-01_task-ml_proj-lorasick_2021-01-13-14-01-56.936892
23	7	1	1	24	stable	1	200	24	sv	turquoise	purple	turquoise	purple	left	right	0.7	0.30000000000000004	6	6	4.199999999999998	1.8000000000000005	1	0	0.7	0.30000000000000004	6	6	4.199999999999998	1.8000000000000005	valid	0.3832493230002001	51200	0	0	1	51200	1	51200	1	53248	0	0.7	51200	turquoise	purple	1	6	ml	2.7.3	lorasick	sub-07_ses-01_task-ml_proj-lorasick_2021-01-13-14-01-56.936892
24	7	1	1	25	stable	1	200	25	sv	turquoise	purple	turquoise	purple	left	right	0.7	0.30000000000000004	2	2	1.4	0.6000000000000001	1	0	0.7	0.30000000000000004	2	2	1.4	0.6000000000000001	valid	0.4998836560007476	51200	0	0	1	51200	1	51200	1	53248	0	0.7	51200	turquoise	purple	1	2	ml	2.7.3	lorasick	sub-07_ses-01_task-ml_proj-lorasick_2021-01-13-14-01-56.936892
25	7	1	1	26	stable	1	200	26	sv	purple	turquoise	turquoise	purple	right	left	0.7	0.30000000000000004	6	2	4.199999999999998	0.6000000000000001	1	0	0.30000000000000004	0.7	2	6	0.6000000000000001	4.199999999999998	valid	1.1330434570008947	53248	0	1	1	53248	1	53248	1	53248	1	0.7	53248	turquoise	purple	1	6	ml	2.7.3	lorasick	sub-07_ses-01_task-ml_proj-lorasick_2021-01-13-14-01-56.936892
26	7	1	1	27	stable	1	200	27	sv	turquoise	purple	turquoise	purple	left	right	0.7	0.30000000000000004	2	6	1.4	1.8000000000000005	0	1	0.7	0.30000000000000004	2	6	1.4	1.8000000000000005	invalid	0.8331197550032812	51200	0	0	1	53248	0	51200	1	53248	0	0.7	51200	turquoise	purple	0	0	ml	2.7.3	lorasick	sub-07_ses-01_task-ml_proj-lorasick_2021-01-13-14-01-56.936892
27	7	1	1	28	stable	1	200	28	sv	purple	turquoise	turquoise	purple	right	left	0.7	0.30000000000000004	6	2	4.199999999999998	0.6000000000000001	1	0	0.30000000000000004	0.7	2	6	0.6000000000000001	4.199999999999998	valid	1.2330154650007898	53248	0	1	1	53248	1	53248	1	53248	1	0.7	53248	turquoise	purple	1	6	ml	2.7.3	lorasick	sub-07_ses-01_task-ml_proj-lorasick_2021-01-13-14-01-56.936892
28	7	1	1	29	stable	1	200	29	sv	turquoise	purple	turquoise	purple	left	right	0.7	0.30000000000000004	4	6	2.8	1.8000000000000005	1	0	0.7	0.30000000000000004	4	6	2.8	1.8000000000000005	valid	0.8997604420001153	51200	0	0	1	51200	1	51200	1	53248	0	0.7	51200	turquoise	purple	0	4	ml	2.7.3	lorasick	sub-07_ses-01_task-ml_proj-lorasick_2021-01-13-14-01-56.936892
29	7	1	1	30	stable	1	200	30	sv	turquoise	purple	turquoise	purple	left	right	0.7	0.30000000000000004	4	6	2.8	1.8000000000000005	1	0	0.7	0.30000000000000004	4	6	2.8	1.8000000000000005	valid	0.8664511819988547	53248	0	1	2	51200	0	51200	0	53248	1	0.7	51200	turquoise	purple	0	0	ml	2.7.3	lorasick	sub-07_ses-01_task-ml_proj-lorasick_2021-01-13-14-01-56.936892
30	7	1	1	31	stable	1	200	31	sv	turquoise	purple	turquoise	purple	left	right	0.7	0.30000000000000004	2	2	1.4	0.6000000000000001	1	0	0.7	0.30000000000000004	2	2	1.4	0.6000000000000001	valid	0.9331036399998992	53248	0	1	2	51200	0	51200	0	53248	1	0.7	51200	turquoise	purple	1	0	ml	2.7.3	lorasick	sub-07_ses-01_task-ml_proj-lorasick_2021-01-13-14-01-56.936892
31	7	1	1	32	stable	1	200	32	sv	turquoise	purple	turquoise	purple	left	right	0.7	0.30000000000000004	10	2	7.0	0.6000000000000001	0	1	0.7	0.30000000000000004	10	2	7.0	0.6000000000000001	invalid	1.0497304730015458	51200	0	0	1	51200	1	51200	1	51200	1	0.7	51200	turquoise	purple	1	0	ml	2.7.3	lorasick	sub-07_ses-01_task-ml_proj-lorasick_2021-01-13-14-01-56.936892
32	7	1	1	33	stable	1	200	33	sv	turquoise	purple	turquoise	purple	left	right	0.7	0.30000000000000004	2	10	1.4	3.0000000000000004	0	1	0.7	0.30000000000000004	2	10	1.4	3.0000000000000004	invalid	1.0497304769996845	51200	0	0	1	53248	0	51200	1	53248	0	0.7	51200	turquoise	purple	0	0	ml	2.7.3	lorasick	sub-07_ses-01_task-ml_proj-lorasick_2021-01-13-14-01-56.936892
33	7	1	1	34	stable	1	200	34	sv	purple	turquoise	turquoise	purple	right	left	0.7	0.30000000000000004	4	2	2.8	0.6000000000000001	0	1	0.30000000000000004	0.7	2	4	0.6000000000000001	2.8	invalid	0.5332030379977368	51200	0	0	2	53248	0	53248	0	53248	0	0.7	53248	turquoise	purple	1	2	ml	2.7.3	lorasick	sub-07_ses-01_task-ml_proj-lorasick_2021-01-13-14-01-56.936892
34	7	1	1	35	stable	1	200	35	sv	purple	turquoise	turquoise	purple	right	left	0.7	0.30000000000000004	2	6	1.4	1.8000000000000005	1	0	0.30000000000000004	0.7	6	2	1.8000000000000005	1.4	valid	0.516537731000426	51200	0	0	2	51200	1	53248	0	51200	1	0.7	53248	turquoise	purple	0	0	ml	2.7.3	lorasick	sub-07_ses-01_task-ml_proj-lorasick_2021-01-13-14-01-56.936892
35	7	1	1	36	stable	1	200	36	sv	purple	turquoise	turquoise	purple	right	left	0.7	0.30000000000000004	2	2	1.4	0.6000000000000001	1	0	0.30000000000000004	0.7	2	2	0.6000000000000001	1.4	valid	1.0163934079973842	51200	0	0	2	53248	0	53248	0	53248	0	0.7	53248	turquoise	purple	0	0	ml	2.7.3	lorasick	sub-07_ses-01_task-ml_proj-lorasick_2021-01-13-14-01-56.936892
36	7	1	1	37	stable	1	200	37	sv	purple	turquoise	turquoise	purple	right	left	0.7	0.30000000000000004	2	10	1.4	3.0000000000000004	0	1	0.30000000000000004	0.7	10	2	3.0000000000000004	1.4	invalid	0.6498615849995986	53248	0	1	1	51200	0	53248	1	51200	0	0.7	53248	turquoise	purple	0	0	ml	2.7.3	lorasick	sub-07_ses-01_task-ml_proj-lorasick_2021-01-13-14-01-56.936892
37	7	1	1	38	stable	1	200	38	sv	purple	turquoise	turquoise	purple	right	left	0.7	0.30000000000000004	4	2	2.8	0.6000000000000001	0	1	0.30000000000000004	0.7	2	4	0.6000000000000001	2.8	invalid	0.7831474970007548	53248	0	1	1	53248	1	53248	1	53248	1	0.7	53248	turquoise	purple	1	0	ml	2.7.3	lorasick	sub-07_ses-01_task-ml_proj-lorasick_2021-01-13-14-01-56.936892
38	7	1	1	39	stable	1	200	39	sv	purple	turquoise	turquoise	purple	right	left	0.7	0.30000000000000004	6	6	4.199999999999998	1.8000000000000005	1	0	0.30000000000000004	0.7	6	6	1.8000000000000005	4.199999999999998	valid	0.7997879539980204	51200	0	0	2	53248	0	53248	0	53248	0	0.7	53248	turquoise	purple	0	0	ml	2.7.3	lorasick	sub-07_ses-01_task-ml_proj-lorasick_2021-01-13-14-01-56.936892
39	7	1	1	40	stable	1	200	40	sv	purple	turquoise	turquoise	purple	right	left	0.7	0.30000000000000004	2	10	1.4	3.0000000000000004	0	1	0.30000000000000004	0.7	10	2	3.0000000000000004	1.4	invalid	1.3829699729976708	53248	0	1	1	51200	0	53248	1	51200	0	0.7	53248	turquoise	purple	0	0	ml	2.7.3	lorasick	sub-07_ses-01_task-ml_proj-lorasick_2021-01-13-14-01-56.936892
40	7	1	1	41	stable	1	200	41	sv	turquoise	purple	turquoise	purple	left	right	0.7	0.30000000000000004	10	2	7.0	0.6000000000000001	1	0	0.7	0.30000000000000004	10	2	7.0	0.6000000000000001	valid	0.7831345080012397	51200	0	0	1	51200	1	51200	1	51200	1	0.7	51200	turquoise	purple	1	10	ml	2.7.3	lorasick	sub-07_ses-01_task-ml_proj-lorasick_2021-01-13-14-01-56.936892
41	7	1	1	42	stable	1	200	42	sv	turquoise	purple	turquoise	purple	left	right	0.7	0.30000000000000004	10	2	7.0	0.6000000000000001	1	0	0.7	0.30000000000000004	10	2	7.0	0.6000000000000001	valid	0.6998241440014681	51200	0	0	1	51200	1	51200	1	51200	1	0.7	51200	turquoise	purple	1	10	ml	2.7.3	lorasick	sub-07_ses-01_task-ml_proj-lorasick_2021-01-13-14-01-56.936892
42	7	1	1	43	stable	1	200	43	sv	turquoise	purple	turquoise	purple	left	right	0.7	0.30000000000000004	6	4	4.199999999999998	1.2000000000000002	0	1	0.7	0.30000000000000004	6	4	4.199999999999998	1.2000000000000002	invalid	0.7664723409980071	51200	0	0	1	51200	1	51200	1	51200	1	0.7	51200	turquoise	purple	1	0	ml	2.7.3	lorasick	sub-07_ses-01_task-ml_proj-lorasick_2021-01-13-14-01-56.936892
43	7	1	1	44	stable	1	200	44	sv	turquoise	purple	turquoise	purple	left	right	0.7	0.30000000000000004	6	6	4.199999999999998	1.8000000000000005	1	0	0.7	0.30000000000000004	6	6	4.199999999999998	1.8000000000000005	valid	0.6498468639983912	53248	0	1	2	51200	0	51200	0	53248	1	0.7	51200	turquoise	purple	1	0	ml	2.7.3	lorasick	sub-07_ses-01_task-ml_proj-lorasick_2021-01-13-14-01-56.936892
44	7	1	1	45	stable	1	200	45	sv	purple	turquoise	turquoise	purple	right	left	0.7	0.30000000000000004	4	2	2.8	0.6000000000000001	1	0	0.30000000000000004	0.7	2	4	0.6000000000000001	2.8	valid	0.7164957129971299	53248	0	1	1	53248	1	53248	1	53248	1	0.7	53248	turquoise	purple	1	4	ml	2.7.3	lorasick	sub-07_ses-01_task-ml_proj-lorasick_2021-01-13-14-01-56.936892
45	7	1	1	46	stable	1	200	46	sv	purple	turquoise	turquoise	purple	right	left	0.7	0.30000000000000004	10	2	7.0	0.6000000000000001	1	0	0.30000000000000004	0.7	2	10	0.6000000000000001	7.0	valid	0.6998328570007288	53248	0	1	1	53248	1	53248	1	53248	1	0.7	53248	turquoise	purple	1	10	ml	2.7.3	lorasick	sub-07_ses-01_task-ml_proj-lorasick_2021-01-13-14-01-56.936892
46	7	1	1	47	stable	1	200	47	sv	purple	turquoise	turquoise	purple	right	left	0.7	0.30000000000000004	2	4	1.4	1.2000000000000002	1	0	0.30000000000000004	0.7	4	2	1.2000000000000002	1.4	valid	0.5665384730018559	53248	0	1	1	53248	1	53248	1	51200	0	0.7	53248	turquoise	purple	0	2	ml	2.7.3	lorasick	sub-07_ses-01_task-ml_proj-lorasick_2021-01-13-14-01-56.936892
47	7	1	1	48	stable	1	200	48	sv	turquoise	purple	turquoise	purple	left	right	0.7	0.30000000000000004	4	2	2.8	0.6000000000000001	1	0	0.7	0.30000000000000004	4	2	2.8	0.6000000000000001	valid	0.5165443680016324	51200	0	0	1	51200	1	51200	1	51200	1	0.7	51200	turquoise	purple	1	4	ml	2.7.3	lorasick	sub-07_ses-01_task-ml_proj-lorasick_2021-01-13-14-01-56.936892
48	7	1	1	49	stable	1	200	49	sv	turquoise	purple	turquoise	purple	left	right	0.7	0.30000000000000004	2	4	1.4	1.2000000000000002	0	1	0.7	0.30000000000000004	2	4	1.4	1.2000000000000002	invalid	0.4998798460001126	51200	0	0	1	51200	1	51200	1	53248	0	0.7	51200	turquoise	purple	0	0	ml	2.7.3	lorasick	sub-07_ses-01_task-ml_proj-lorasick_2021-01-13-14-01-56.936892
49	7	1	1	50	stable	1	200	50	sv	purple	turquoise	turquoise	purple	right	left	0.7	0.30000000000000004	4	2	2.8	0.6000000000000001	1	0	0.30000000000000004	0.7	2	4	0.6000000000000001	2.8	valid	0.3665995039991685	53248	0	1	1	53248	1	53248	1	53248	1	0.7	53248	turquoise	purple	1	4	ml	2.7.3	lorasick	sub-07_ses-01_task-ml_proj-lorasick_2021-01-13-14-01-56.936892
50	7	1	2	51	stable	1	200	51	sv	turquoise	purple	turquoise	purple	left	right	0.7	0.30000000000000004	2	10	1.4	3.0000000000000004	0	1	0.7	0.30000000000000004	2	10	1.4	3.0000000000000004	invalid	0.7498353470000438	53248	0	1	2	53248	1	51200	0	53248	1	0.7	51200	turquoise	purple	0	10	ml	2.7.3	lorasick	sub-07_ses-01_task-ml_proj-lorasick_2021-01-13-14-01-56.936892
51	7	1	2	52	stable	1	200	52	sv	purple	turquoise	turquoise	purple	right	left	0.7	0.30000000000000004	2	2	1.4	0.6000000000000001	0	1	0.30000000000000004	0.7	2	2	0.6000000000000001	1.4	invalid	0.4832163499995658	51200	0	0	2	53248	0	53248	0	53248	0	0.7	53248	turquoise	purple	0	2	ml	2.7.3	lorasick	sub-07_ses-01_task-ml_proj-lorasick_2021-01-13-14-01-56.936892
52	7	1	2	53	stable	1	200	53	sv	purple	turquoise	turquoise	purple	right	left	0.7	0.30000000000000004	6	6	4.199999999999998	1.8000000000000005	0	1	0.30000000000000004	0.7	6	6	1.8000000000000005	4.199999999999998	invalid	0.43323592400338384	51200	0	0	2	53248	0	53248	0	53248	0	0.7	53248	turquoise	purple	0	6	ml	2.7.3	lorasick	sub-07_ses-01_task-ml_proj-lorasick_2021-01-13-14-01-56.936892
53	7	1	2	54	stable	1	200	54	sv	purple	turquoise	turquoise	purple	right	left	0.7	0.30000000000000004	2	4	1.4	1.2000000000000002	1	0	0.30000000000000004	0.7	4	2	1.2000000000000002	1.4	valid	0.4498959580014344	51200	0	0	2	53248	0	53248	0	51200	1	0.7	53248	turquoise	purple	0	0	ml	2.7.3	lorasick	sub-07_ses-01_task-ml_proj-lorasick_2021-01-13-14-01-56.936892
54	7	1	2	55	stable	1	200	55	sv	purple	turquoise	turquoise	purple	right	left	0.7	0.30000000000000004	6	4	4.199999999999998	1.2000000000000002	0	1	0.30000000000000004	0.7	4	6	1.2000000000000002	4.199999999999998	invalid	1.0497294630004037	51200	0	0	2	53248	0	53248	0	53248	0	0.7	53248	turquoise	purple	1	4	ml	2.7.3	lorasick	sub-07_ses-01_task-ml_proj-lorasick_2021-01-13-14-01-56.936892
55	7	1	2	56	stable	1	200	56	sv	turquoise	purple	turquoise	purple	left	right	0.7	0.30000000000000004	6	6	4.199999999999998	1.8000000000000005	1	0	0.7	0.30000000000000004	6	6	4.199999999999998	1.8000000000000005	valid	0.5665406510015601	53248	0	1	2	51200	0	51200	0	53248	1	0.7	51200	turquoise	purple	1	0	ml	2.7.3	lorasick	sub-07_ses-01_task-ml_proj-lorasick_2021-01-13-14-01-56.936892
56	7	1	2	57	stable	1	200	57	sv	turquoise	purple	turquoise	purple	left	right	0.7	0.30000000000000004	2	6	1.4	1.8000000000000005	0	1	0.7	0.30000000000000004	2	6	1.4	1.8000000000000005	invalid	0.34993299699999625	51200	0	0	1	53248	0	51200	1	53248	0	0.7	51200	turquoise	purple	0	0	ml	2.7.3	lorasick	sub-07_ses-01_task-ml_proj-lorasick_2021-01-13-14-01-56.936892
57	7	1	2	58	stable	1	200	58	sv	purple	turquoise	turquoise	purple	right	left	0.7	0.30000000000000004	4	2	2.8	0.6000000000000001	0	1	0.30000000000000004	0.7	2	4	0.6000000000000001	2.8	invalid	0.5332115119999798	51200	0	0	2	53248	0	53248	0	53248	0	0.7	53248	turquoise	purple	1	2	ml	2.7.3	lorasick	sub-07_ses-01_task-ml_proj-lorasick_2021-01-13-14-01-56.936892
58	7	1	2	59	stable	1	200	59	sv	turquoise	purple	turquoise	purple	left	right	0.7	0.30000000000000004	2	2	1.4	0.6000000000000001	0	1	0.7	0.30000000000000004	2	2	1.4	0.6000000000000001	invalid	0.5832009369987645	53248	0	1	2	51200	0	51200	0	53248	1	0.7	51200	turquoise	purple	1	2	ml	2.7.3	lorasick	sub-07_ses-01_task-ml_proj-lorasick_2021-01-13-14-01-56.936892
59	7	1	2	60	stable	1	200	60	sv	turquoise	purple	turquoise	purple	left	right	0.7	0.30000000000000004	6	6	4.199999999999998	1.8000000000000005	0	1	0.7	0.30000000000000004	6	6	4.199999999999998	1.8000000000000005	invalid	0.6165259850022267	53248	0	1	2	51200	0	51200	0	53248	1	0.7	51200	turquoise	purple	1	6	ml	2.7.3	lorasick	sub-07_ses-01_task-ml_proj-lorasick_2021-01-13-14-01-56.936892
60	7	1	2	61	stable	1	200	61	sv	turquoise	purple	turquoise	purple	left	right	0.7	0.30000000000000004	4	2	2.8	0.6000000000000001	1	0	0.7	0.30000000000000004	4	2	2.8	0.6000000000000001	valid	0.5165537719985878	53248	0	1	2	51200	0	51200	0	51200	0	0.7	51200	turquoise	purple	1	0	ml	2.7.3	lorasick	sub-07_ses-01_task-ml_proj-lorasick_2021-01-13-14-01-56.936892
61	7	1	2	62	stable	1	200	62	sv	purple	turquoise	turquoise	purple	right	left	0.7	0.30000000000000004	2	6	1.4	1.8000000000000005	1	0	0.30000000000000004	0.7	6	2	1.8000000000000005	1.4	valid	1.1996982189994014	53248	0	1	1	51200	0	53248	1	51200	0	0.7	53248	turquoise	purple	0	2	ml	2.7.3	lorasick	sub-07_ses-01_task-ml_proj-lorasick_2021-01-13-14-01-56.936892
62	7	1	2	63	stable	1	200	63	sv	turquoise	purple	turquoise	purple	left	right	0.7	0.30000000000000004	6	2	4.199999999999998	0.6000000000000001	0	1	0.7	0.30000000000000004	6	2	4.199999999999998	0.6000000000000001	invalid	0.4332319650020509	51200	0	0	1	51200	1	51200	1	51200	1	0.7	51200	turquoise	purple	1	0	ml	2.7.3	lorasick	sub-07_ses-01_task-ml_proj-lorasick_2021-01-13-14-01-56.936892
63	7	1	2	64	stable	1	200	64	sv	purple	turquoise	turquoise	purple	right	left	0.7	0.30000000000000004	2	2	1.4	0.6000000000000001	1	0	0.30000000000000004	0.7	2	2	0.6000000000000001	1.4	valid	0.6498380700031703	51200	0	0	2	53248	0	53248	0	53248	0	0.7	53248	turquoise	purple	0	0	ml	2.7.3	lorasick	sub-07_ses-01_task-ml_proj-lorasick_2021-01-13-14-01-56.936892
64	7	1	2	65	stable	1	200	65	sv	purple	turquoise	turquoise	purple	right	left	0.7	0.30000000000000004	6	2	4.199999999999998	0.6000000000000001	1	0	0.30000000000000004	0.7	2	6	0.6000000000000001	4.199999999999998	valid	1.149704932002351	53248	0	1	1	53248	1	53248	1	53248	1	0.7	53248	turquoise	purple	1	6	ml	2.7.3	lorasick	sub-07_ses-01_task-ml_proj-lorasick_2021-01-13-14-01-56.936892
65	7	1	2	66	stable	1	200	66	sv	turquoise	purple	turquoise	purple	left	right	0.7	0.30000000000000004	6	6	4.199999999999998	1.8000000000000005	1	0	0.7	0.30000000000000004	6	6	4.199999999999998	1.8000000000000005	valid	0.4498964689992136	51200	0	0	1	51200	1	51200	1	53248	0	0.7	51200	turquoise	purple	1	6	ml	2.7.3	lorasick	sub-07_ses-01_task-ml_proj-lorasick_2021-01-13-14-01-56.936892
66	7	1	2	67	stable	1	200	67	sv	turquoise	purple	turquoise	purple	left	right	0.7	0.30000000000000004	4	6	2.8	1.8000000000000005	1	0	0.7	0.30000000000000004	4	6	2.8	1.8000000000000005	valid	0.3999076669970236	51200	0	0	1	51200	1	51200	1	53248	0	0.7	51200	turquoise	purple	0	4	ml	2.7.3	lorasick	sub-07_ses-01_task-ml_proj-lorasick_2021-01-13-14-01-56.936892
67	7	1	2	68	stable	1	200	68	sv	purple	turquoise	turquoise	purple	right	left	0.7	0.30000000000000004	2	2	1.4	0.6000000000000001	1	0	0.30000000000000004	0.7	2	2	0.6000000000000001	1.4	valid	0.5998578750004526	53248	0	1	1	53248	1	53248	1	53248	1	0.7	53248	turquoise	purple	0	2	ml	2.7.3	lorasick	sub-07_ses-01_task-ml_proj-lorasick_2021-01-13-14-01-56.936892
68	7	1	2	69	stable	1	200	69	sv	purple	turquoise	turquoise	purple	right	left	0.7	0.30000000000000004	2	6	1.4	1.8000000000000005	0	1	0.30000000000000004	0.7	6	2	1.8000000000000005	1.4	invalid	0.3332644900001469	51200	0	0	2	51200	1	53248	0	51200	1	0.7	53248	turquoise	purple	0	6	ml	2.7.3	lorasick	sub-07_ses-01_task-ml_proj-lorasick_2021-01-13-14-01-56.936892
69	7	1	2	70	stable	1	200	70	sv	purple	turquoise	turquoise	purple	right	left	0.7	0.30000000000000004	2	2	1.4	0.6000000000000001	1	0	0.30000000000000004	0.7	2	2	0.6000000000000001	1.4	valid	0.6665102150000166	53248	0	1	1	53248	1	53248	1	53248	1	0.7	53248	turquoise	purple	0	2	ml	2.7.3	lorasick	sub-07_ses-01_task-ml_proj-lorasick_2021-01-13-14-01-56.936892
70	7	1	2	71	stable	1	200	71	sv	purple	turquoise	turquoise	purple	right	left	0.7	0.30000000000000004	6	4	4.199999999999998	1.2000000000000002	1	0	0.30000000000000004	0.7	4	6	1.2000000000000002	4.199999999999998	valid	0.4832312520011328	53248	0	1	1	53248	1	53248	1	53248	1	0.7	53248	turquoise	purple	1	6	ml	2.7.3	lorasick	sub-07_ses-01_task-ml_proj-lorasick_2021-01-13-14-01-56.936892
71	7	1	2	72	stable	1	200	72	sv	purple	turquoise	turquoise	purple	right	left	0.7	0.30000000000000004	2	4	1.4	1.2000000000000002	0	1	0.30000000000000004	0.7	4	2	1.2000000000000002	1.4	invalid	0.6498472040002525	53248	0	1	1	53248	1	53248	1	51200	0	0.7	53248	turquoise	purple	0	0	ml	2.7.3	lorasick	sub-07_ses-01_task-ml_proj-lorasick_2021-01-13-14-01-56.936892
72	7	1	2	73	stable	1	200	73	sv	purple	turquoise	turquoise	purple	right	left	0.7	0.30000000000000004	6	6	4.199999999999998	1.8000000000000005	0	1	0.30000000000000004	0.7	6	6	1.8000000000000005	4.199999999999998	invalid	0.8664553050002723	51200	0	0	2	53248	0	53248	0	53248	0	0.7	53248	turquoise	purple	0	6	ml	2.7.3	lorasick	sub-07_ses-01_task-ml_proj-lorasick_2021-01-13-14-01-56.936892
73	7	1	2	74	stable	1	200	74	sv	purple	turquoise	turquoise	purple	right	left	0.7	0.30000000000000004	10	2	7.0	0.6000000000000001	1	0	0.30000000000000004	0.7	2	10	0.6000000000000001	7.0	valid	0.2999484800020582	53248	0	1	1	53248	1	53248	1	53248	1	0.7	53248	turquoise	purple	1	10	ml	2.7.3	lorasick	sub-07_ses-01_task-ml_proj-lorasick_2021-01-13-14-01-56.936892
74	7	1	2	75	stable	1	200	75	sv	turquoise	purple	turquoise	purple	left	right	0.7	0.30000000000000004	4	2	2.8	0.6000000000000001	0	1	0.7	0.30000000000000004	4	2	2.8	0.6000000000000001	invalid	0.4832214229973033	51200	0	0	1	51200	1	51200	1	51200	1	0.7	51200	turquoise	purple	1	0	ml	2.7.3	lorasick	sub-07_ses-01_task-ml_proj-lorasick_2021-01-13-14-01-56.936892
75	7	1	2	76	stable	1	200	76	sv	purple	turquoise	turquoise	purple	right	left	0.7	0.30000000000000004	2	6	1.4	1.8000000000000005	1	0	0.30000000000000004	0.7	6	2	1.8000000000000005	1.4	valid	0.6165298529995198	53248	0	1	1	51200	0	53248	1	51200	0	0.7	53248	turquoise	purple	0	2	ml	2.7.3	lorasick	sub-07_ses-01_task-ml_proj-lorasick_2021-01-13-14-01-56.936892
76	7	1	2	77	stable	1	200	77	sv	turquoise	purple	turquoise	purple	left	right	0.7	0.30000000000000004	2	2	1.4	0.6000000000000001	0	1	0.7	0.30000000000000004	2	2	1.4	0.6000000000000001	invalid	0.5332060359978641	51200	0	0	1	51200	1	51200	1	53248	0	0.7	51200	turquoise	purple	1	0	ml	2.7.3	lorasick	sub-07_ses-01_task-ml_proj-lorasick_2021-01-13-14-01-56.936892
77	7	1	2	78	stable	1	200	78	sv	purple	turquoise	turquoise	purple	right	left	0.7	0.30000000000000004	4	2	2.8	0.6000000000000001	1	0	0.30000000000000004	0.7	2	4	0.6000000000000001	2.8	valid	0.5998603860025469	53248	0	1	1	53248	1	53248	1	53248	1	0.7	53248	turquoise	purple	1	4	ml	2.7.3	lorasick	sub-07_ses-01_task-ml_proj-lorasick_2021-01-13-14-01-56.936892
78	7	1	2	79	stable	1	200	79	sv	purple	turquoise	turquoise	purple	right	left	0.7	0.30000000000000004	6	6	4.199999999999998	1.8000000000000005	1	0	0.30000000000000004	0.7	6	6	1.8000000000000005	4.199999999999998	valid	0.5498775510022824	53248	0	1	1	53248	1	53248	1	53248	1	0.7	53248	turquoise	purple	0	6	ml	2.7.3	lorasick	sub-07_ses-01_task-ml_proj-lorasick_2021-01-13-14-01-56.936892
79	7	1	2	80	stable	1	200	80	sv	turquoise	purple	turquoise	purple	left	right	0.7	0.30000000000000004	10	2	7.0	0.6000000000000001	1	0	0.7	0.30000000000000004	10	2	7.0	0.6000000000000001	valid	0.3332621499976085	51200	0	0	1	51200	1	51200	1	51200	1	0.7	51200	turquoise	purple	1	10	ml	2.7.3	lorasick	sub-07_ses-01_task-ml_proj-lorasick_2021-01-13-14-01-56.936892
80	7	1	2	81	stable	1	200	81	sv	purple	turquoise	turquoise	purple	right	left	0.7	0.30000000000000004	2	4	1.4	1.2000000000000002	0	1	0.30000000000000004	0.7	4	2	1.2000000000000002	1.4	invalid	0.8331292949987983	53248	0	1	1	53248	1	53248	1	51200	0	0.7	53248	turquoise	purple	0	0	ml	2.7.3	lorasick	sub-07_ses-01_task-ml_proj-lorasick_2021-01-13-14-01-56.936892
81	7	1	2	82	stable	1	200	82	sv	purple	turquoise	turquoise	purple	right	left	0.7	0.30000000000000004	2	2	1.4	0.6000000000000001	1	0	0.30000000000000004	0.7	2	2	0.6000000000000001	1.4	valid	0.5998685790000309	53248	0	1	1	53248	1	53248	1	53248	1	0.7	53248	turquoise	purple	0	2	ml	2.7.3	lorasick	sub-07_ses-01_task-ml_proj-lorasick_2021-01-13-14-01-56.936892
82	7	1	2	83	stable	1	200	83	sv	purple	turquoise	turquoise	purple	right	left	0.7	0.30000000000000004	4	2	2.8	0.6000000000000001	1	0	0.30000000000000004	0.7	2	4	0.6000000000000001	2.8	valid	0.39990442500129575	51200	0	0	2	53248	0	53248	0	53248	0	0.7	53248	turquoise	purple	1	0	ml	2.7.3	lorasick	sub-07_ses-01_task-ml_proj-lorasick_2021-01-13-14-01-56.936892
83	7	1	2	84	stable	1	200	84	sv	purple	turquoise	turquoise	purple	right	left	0.7	0.30000000000000004	2	6	1.4	1.8000000000000005	0	1	0.30000000000000004	0.7	6	2	1.8000000000000005	1.4	invalid	1.0330613859987352	51200	0	0	2	51200	1	53248	0	51200	1	0.7	53248	turquoise	purple	0	6	ml	2.7.3	lorasick	sub-07_ses-01_task-ml_proj-lorasick_2021-01-13-14-01-56.936892
84	7	1	2	85	stable	1	200	85	sv	turquoise	purple	turquoise	purple	left	right	0.7	0.30000000000000004	2	10	1.4	3.0000000000000004	1	0	0.7	0.30000000000000004	2	10	1.4	3.0000000000000004	valid	0.5332172419985	53248	0	1	2	53248	1	51200	0	53248	1	0.7	51200	turquoise	purple	0	0	ml	2.7.3	lorasick	sub-07_ses-01_task-ml_proj-lorasick_2021-01-13-14-01-56.936892
85	7	1	2	86	stable	1	200	86	sv	turquoise	purple	turquoise	purple	left	right	0.7	0.30000000000000004	2	4	1.4	1.2000000000000002	1	0	0.7	0.30000000000000004	2	4	1.4	1.2000000000000002	valid	0.599852015999204	51200	0	0	1	51200	1	51200	1	53248	0	0.7	51200	turquoise	purple	0	2	ml	2.7.3	lorasick	sub-07_ses-01_task-ml_proj-lorasick_2021-01-13-14-01-56.936892
86	7	1	2	87	stable	1	200	87	sv	turquoise	purple	turquoise	purple	left	right	0.7	0.30000000000000004	2	2	1.4	0.6000000000000001	1	0	0.7	0.30000000000000004	2	2	1.4	0.6000000000000001	valid	0.4332342300003802	51200	0	0	1	51200	1	51200	1	53248	0	0.7	51200	turquoise	purple	1	2	ml	2.7.3	lorasick	sub-07_ses-01_task-ml_proj-lorasick_2021-01-13-14-01-56.936892
87	7	1	2	88	stable	1	200	88	sv	turquoise	purple	turquoise	purple	left	right	0.7	0.30000000000000004	4	2	2.8	0.6000000000000001	1	0	0.7	0.30000000000000004	4	2	2.8	0.6000000000000001	valid	0.8831107210025948	51200	0	0	1	51200	1	51200	1	51200	1	0.7	51200	turquoise	purple	1	4	ml	2.7.3	lorasick	sub-07_ses-01_task-ml_proj-lorasick_2021-01-13-14-01-56.936892
88	7	1	2	89	stable	1	200	89	sv	purple	turquoise	turquoise	purple	right	left	0.7	0.30000000000000004	10	2	7.0	0.6000000000000001	1	0	0.30000000000000004	0.7	2	10	0.6000000000000001	7.0	valid	0.7164977829997952	53248	0	1	1	53248	1	53248	1	53248	1	0.7	53248	turquoise	purple	1	10	ml	2.7.3	lorasick	sub-07_ses-01_task-ml_proj-lorasick_2021-01-13-14-01-56.936892
89	7	1	2	90	stable	1	200	90	sv	turquoise	purple	turquoise	purple	left	right	0.7	0.30000000000000004	2	6	1.4	1.8000000000000005	1	0	0.7	0.30000000000000004	2	6	1.4	1.8000000000000005	valid	0.6498493869985396	53248	0	1	2	53248	1	51200	0	53248	1	0.7	51200	turquoise	purple	0	0	ml	2.7.3	lorasick	sub-07_ses-01_task-ml_proj-lorasick_2021-01-13-14-01-56.936892
90	7	1	2	91	stable	1	200	91	sv	turquoise	purple	turquoise	purple	left	right	0.7	0.30000000000000004	4	6	2.8	1.8000000000000005	1	0	0.7	0.30000000000000004	4	6	2.8	1.8000000000000005	valid	0.5165417059979518	51200	0	0	1	51200	1	51200	1	53248	0	0.7	51200	turquoise	purple	0	4	ml	2.7.3	lorasick	sub-07_ses-01_task-ml_proj-lorasick_2021-01-13-14-01-56.936892
91	7	1	2	92	stable	1	200	92	sv	purple	turquoise	turquoise	purple	right	left	0.7	0.30000000000000004	2	6	1.4	1.8000000000000005	0	1	0.30000000000000004	0.7	6	2	1.8000000000000005	1.4	invalid	0.4832284999974945	53248	0	1	1	51200	0	53248	1	51200	0	0.7	53248	turquoise	purple	0	0	ml	2.7.3	lorasick	sub-07_ses-01_task-ml_proj-lorasick_2021-01-13-14-01-56.936892
92	7	1	2	93	stable	1	200	93	sv	turquoise	purple	turquoise	purple	left	right	0.7	0.30000000000000004	6	2	4.199999999999998	0.6000000000000001	0	1	0.7	0.30000000000000004	6	2	4.199999999999998	0.6000000000000001	invalid	0.3832504980018712	51200	0	0	1	51200	1	51200	1	51200	1	0.7	51200	turquoise	purple	1	0	ml	2.7.3	lorasick	sub-07_ses-01_task-ml_proj-lorasick_2021-01-13-14-01-56.936892
93	7	1	2	94	stable	1	200	94	sv	purple	turquoise	turquoise	purple	right	left	0.7	0.30000000000000004	6	6	4.199999999999998	1.8000000000000005	1	0	0.30000000000000004	0.7	6	6	1.8000000000000005	4.199999999999998	valid	0.4665664810017915	53248	0	1	1	53248	1	53248	1	53248	1	0.7	53248	turquoise	purple	0	6	ml	2.7.3	lorasick	sub-07_ses-01_task-ml_proj-lorasick_2021-01-13-14-01-56.936892
94	7	1	2	95	stable	1	200	95	sv	purple	turquoise	turquoise	purple	right	left	0.7	0.30000000000000004	6	6	4.199999999999998	1.8000000000000005	1	0	0.30000000000000004	0.7	6	6	1.8000000000000005	4.199999999999998	valid	0.516538045998459	53248	0	1	1	53248	1	53248	1	53248	1	0.7	53248	turquoise	purple	0	6	ml	2.7.3	lorasick	sub-07_ses-01_task-ml_proj-lorasick_2021-01-13-14-01-56.936892
95	7	1	2	96	stable	1	200	96	sv	purple	turquoise	turquoise	purple	right	left	0.7	0.30000000000000004	10	2	7.0	0.6000000000000001	0	1	0.30000000000000004	0.7	2	10	0.6000000000000001	7.0	invalid	0.3999212339986116	53248	0	1	1	53248	1	53248	1	53248	1	0.7	53248	turquoise	purple	1	0	ml	2.7.3	lorasick	sub-07_ses-01_task-ml_proj-lorasick_2021-01-13-14-01-56.936892
96	7	1	2	97	stable	1	200	97	sv	turquoise	purple	turquoise	purple	left	right	0.7	0.30000000000000004	6	4	4.199999999999998	1.2000000000000002	1	0	0.7	0.30000000000000004	6	4	4.199999999999998	1.2000000000000002	valid	0.43324924599801307	51200	0	0	1	51200	1	51200	1	51200	1	0.7	51200	turquoise	purple	1	6	ml	2.7.3	lorasick	sub-07_ses-01_task-ml_proj-lorasick_2021-01-13-14-01-56.936892
97	7	1	2	98	stable	1	200	98	sv	purple	turquoise	turquoise	purple	right	left	0.7	0.30000000000000004	6	2	4.199999999999998	0.6000000000000001	1	0	0.30000000000000004	0.7	2	6	0.6000000000000001	4.199999999999998	valid	0.3999193029994785	53248	0	1	1	53248	1	53248	1	53248	1	0.7	53248	turquoise	purple	1	6	ml	2.7.3	lorasick	sub-07_ses-01_task-ml_proj-lorasick_2021-01-13-14-01-56.936892
98	7	1	2	99	stable	1	200	99	sv	purple	turquoise	turquoise	purple	right	left	0.7	0.30000000000000004	2	2	1.4	0.6000000000000001	0	1	0.30000000000000004	0.7	2	2	0.6000000000000001	1.4	invalid	0.7664717549996567	51200	0	0	2	53248	0	53248	0	53248	0	0.7	53248	turquoise	purple	0	2	ml	2.7.3	lorasick	sub-07_ses-01_task-ml_proj-lorasick_2021-01-13-14-01-56.936892
99	7	1	2	100	stable	1	200	100	sv	purple	turquoise	turquoise	purple	right	left	0.7	0.30000000000000004	6	6	4.199999999999998	1.8000000000000005	1	0	0.30000000000000004	0.7	6	6	1.8000000000000005	4.199999999999998	valid	0.41656892300306936	51200	0	0	2	53248	0	53248	0	53248	0	0.7	53248	turquoise	purple	0	0	ml	2.7.3	lorasick	sub-07_ses-01_task-ml_proj-lorasick_2021-01-13-14-01-56.936892
100	7	1	3	101	stable	1	200	101	sv	turquoise	purple	turquoise	purple	left	right	0.7	0.30000000000000004	2	10	1.4	3.0000000000000004	0	1	0.7	0.30000000000000004	2	10	1.4	3.0000000000000004	invalid	0.933101032002014	53248	0	1	2	53248	1	51200	0	53248	1	0.7	51200	turquoise	purple	0	10	ml	2.7.3	lorasick	sub-07_ses-01_task-ml_proj-lorasick_2021-01-13-14-01-56.936892
101	7	1	3	102	stable	1	200	102	sv	purple	turquoise	turquoise	purple	right	left	0.7	0.30000000000000004	2	10	1.4	3.0000000000000004	1	0	0.30000000000000004	0.7	10	2	3.0000000000000004	1.4	valid	0.533202701000846	51200	0	0	2	51200	1	53248	0	51200	1	0.7	53248	turquoise	purple	0	0	ml	2.7.3	lorasick	sub-07_ses-01_task-ml_proj-lorasick_2021-01-13-14-01-56.936892
102	7	1	3	103	stable	1	200	103	sv	purple	turquoise	turquoise	purple	right	left	0.7	0.30000000000000004	10	2	7.0	0.6000000000000001	0	1	0.30000000000000004	0.7	2	10	0.6000000000000001	7.0	invalid	0.733159171002626	53248	0	1	1	53248	1	53248	1	53248	1	0.7	53248	turquoise	purple	1	0	ml	2.7.3	lorasick	sub-07_ses-01_task-ml_proj-lorasick_2021-01-13-14-01-56.936892
103	7	1	3	104	stable	1	200	104	sv	turquoise	purple	turquoise	purple	left	right	0.7	0.30000000000000004	6	2	4.199999999999998	0.6000000000000001	0	1	0.7	0.30000000000000004	6	2	4.199999999999998	0.6000000000000001	invalid	0.9164383840034134	53248	0	1	2	51200	0	51200	0	51200	0	0.7	51200	turquoise	purple	1	2	ml	2.7.3	lorasick	sub-07_ses-01_task-ml_proj-lorasick_2021-01-13-14-01-56.936892
104	7	1	3	105	stable	1	200	105	sv	turquoise	purple	turquoise	purple	left	right	0.7	0.30000000000000004	2	6	1.4	1.8000000000000005	1	0	0.7	0.30000000000000004	2	6	1.4	1.8000000000000005	valid	0.6165239969996037	53248	0	1	2	53248	1	51200	0	53248	1	0.7	51200	turquoise	purple	0	0	ml	2.7.3	lorasick	sub-07_ses-01_task-ml_proj-lorasick_2021-01-13-14-01-56.936892
105	7	1	3	106	stable	1	200	106	sv	turquoise	purple	turquoise	purple	left	right	0.7	0.30000000000000004	2	6	1.4	1.8000000000000005	0	1	0.7	0.30000000000000004	2	6	1.4	1.8000000000000005	invalid	0.583187602001999	51200	0	0	1	53248	0	51200	1	53248	0	0.7	51200	turquoise	purple	0	0	ml	2.7.3	lorasick	sub-07_ses-01_task-ml_proj-lorasick_2021-01-13-14-01-56.936892
106	7	1	3	107	stable	1	200	107	sv	turquoise	purple	turquoise	purple	left	right	0.7	0.30000000000000004	10	2	7.0	0.6000000000000001	1	0	0.7	0.30000000000000004	10	2	7.0	0.6000000000000001	valid	0.5332073360004871	51200	0	0	1	51200	1	51200	1	51200	1	0.7	51200	turquoise	purple	1	10	ml	2.7.3	lorasick	sub-07_ses-01_task-ml_proj-lorasick_2021-01-13-14-01-56.936892
107	7	1	3	108	stable	1	200	108	sv	turquoise	purple	turquoise	purple	left	right	0.7	0.30000000000000004	6	4	4.199999999999998	1.2000000000000002	0	1	0.7	0.30000000000000004	6	4	4.199999999999998	1.2000000000000002	invalid	0.933090168997296	51200	0	0	1	51200	1	51200	1	51200	1	0.7	51200	turquoise	purple	1	0	ml	2.7.3	lorasick	sub-07_ses-01_task-ml_proj-lorasick_2021-01-13-14-01-56.936892
108	7	1	3	109	stable	1	200	109	sv	turquoise	purple	turquoise	purple	left	right	0.7	0.30000000000000004	2	4	1.4	1.2000000000000002	1	0	0.7	0.30000000000000004	2	4	1.4	1.2000000000000002	valid	0.4998912150003889	53248	0	1	2	51200	0	51200	0	53248	1	0.7	51200	turquoise	purple	0	0	ml	2.7.3	lorasick	sub-07_ses-01_task-ml_proj-lorasick_2021-01-13-14-01-56.936892
109	7	1	3	110	stable	1	200	110	sv	turquoise	purple	turquoise	purple	left	right	0.7	0.30000000000000004	4	2	2.8	0.6000000000000001	1	0	0.7	0.30000000000000004	4	2	2.8	0.6000000000000001	valid	0.5332026950018189	51200	0	0	1	51200	1	51200	1	51200	1	0.7	51200	turquoise	purple	1	4	ml	2.7.3	lorasick	sub-07_ses-01_task-ml_proj-lorasick_2021-01-13-14-01-56.936892
110	7	1	3	111	stable	1	200	111	sv	purple	turquoise	turquoise	purple	right	left	0.7	0.30000000000000004	2	10	1.4	3.0000000000000004	1	0	0.30000000000000004	0.7	10	2	3.0000000000000004	1.4	valid	0.5332167519991344	53248	0	1	1	51200	0	53248	1	51200	0	0.7	53248	turquoise	purple	0	2	ml	2.7.3	lorasick	sub-07_ses-01_task-ml_proj-lorasick_2021-01-13-14-01-56.936892
111	7	1	3	112	stable	1	200	112	sv	turquoise	purple	turquoise	purple	left	right	0.7	0.30000000000000004	10	2	7.0	0.6000000000000001	0	1	0.7	0.30000000000000004	10	2	7.0	0.6000000000000001	invalid	0.4332377220016497	51200	0	0	1	51200	1	51200	1	51200	1	0.7	51200	turquoise	purple	1	0	ml	2.7.3	lorasick	sub-07_ses-01_task-ml_proj-lorasick_2021-01-13-14-01-56.936892
112	7	1	3	113	stable	1	200	113	sv	purple	turquoise	turquoise	purple	right	left	0.7	0.30000000000000004	2	4	1.4	1.2000000000000002	1	0	0.30000000000000004	0.7	4	2	1.2000000000000002	1.4	valid	0.7331538470025407	53248	0	1	1	53248	1	53248	1	51200	0	0.7	53248	turquoise	purple	0	2	ml	2.7.3	lorasick	sub-07_ses-01_task-ml_proj-lorasick_2021-01-13-14-01-56.936892
113	7	1	3	114	stable	1	200	114	sv	purple	turquoise	turquoise	purple	right	left	0.7	0.30000000000000004	2	6	1.4	1.8000000000000005	0	1	0.30000000000000004	0.7	6	2	1.8000000000000005	1.4	invalid	0.6331865430001926	53248	0	1	1	51200	0	53248	1	51200	0	0.7	53248	turquoise	purple	0	0	ml	2.7.3	lorasick	sub-07_ses-01_task-ml_proj-lorasick_2021-01-13-14-01-56.936892
114	7	1	3	115	stable	1	200	115	sv	turquoise	purple	turquoise	purple	left	right	0.7	0.30000000000000004	2	2	1.4	0.6000000000000001	1	0	0.7	0.30000000000000004	2	2	1.4	0.6000000000000001	valid	0.7997941639987403	51200	0	0	1	51200	1	51200	1	53248	0	0.7	51200	turquoise	purple	1	2	ml	2.7.3	lorasick	sub-07_ses-01_task-ml_proj-lorasick_2021-01-13-14-01-56.936892
115	7	1	3	116	stable	1	200	116	sv	purple	turquoise	turquoise	purple	right	left	0.7	0.30000000000000004	4	6	2.8	1.8000000000000005	1	0	0.30000000000000004	0.7	6	4	1.8000000000000005	2.8	valid	0.6165238020003017	53248	0	1	1	53248	1	53248	1	51200	0	0.7	53248	turquoise	purple	0	4	ml	2.7.3	lorasick	sub-07_ses-01_task-ml_proj-lorasick_2021-01-13-14-01-56.936892
116	7	1	3	117	stable	1	200	117	sv	purple	turquoise	turquoise	purple	right	left	0.7	0.30000000000000004	4	2	2.8	0.6000000000000001	0	1	0.30000000000000004	0.7	2	4	0.6000000000000001	2.8	invalid	0.5332176010015246	53248	0	1	1	53248	1	53248	1	53248	1	0.7	53248	turquoise	purple	1	0	ml	2.7.3	lorasick	sub-07_ses-01_task-ml_proj-lorasick_2021-01-13-14-01-56.936892
117	7	1	3	118	stable	1	200	118	sv	purple	turquoise	turquoise	purple	right	left	0.7	0.30000000000000004	2	4	1.4	1.2000000000000002	1	0	0.30000000000000004	0.7	4	2	1.2000000000000002	1.4	valid	0.4332351830016705	51200	0	0	2	53248	0	53248	0	51200	1	0.7	53248	turquoise	purple	0	0	ml	2.7.3	lorasick	sub-07_ses-01_task-ml_proj-lorasick_2021-01-13-14-01-56.936892
118	7	1	3	119	stable	1	200	119	sv	purple	turquoise	turquoise	purple	right	left	0.7	0.30000000000000004	4	6	2.8	1.8000000000000005	1	0	0.30000000000000004	0.7	6	4	1.8000000000000005	2.8	valid	0.5498708590021124	53248	0	1	1	53248	1	53248	1	51200	0	0.7	53248	turquoise	purple	0	4	ml	2.7.3	lorasick	sub-07_ses-01_task-ml_proj-lorasick_2021-01-13-14-01-56.936892
119	7	1	3	120	stable	1	200	120	sv	purple	turquoise	turquoise	purple	right	left	0.7	0.30000000000000004	2	4	1.4	1.2000000000000002	0	1	0.30000000000000004	0.7	4	2	1.2000000000000002	1.4	invalid	0.4832286810014921	53248	0	1	1	53248	1	53248	1	51200	0	0.7	53248	turquoise	purple	0	0	ml	2.7.3	lorasick	sub-07_ses-01_task-ml_proj-lorasick_2021-01-13-14-01-56.936892
120	7	1	3	121	stable	1	200	121	sv	purple	turquoise	turquoise	purple	right	left	0.7	0.30000000000000004	10	2	7.0	0.6000000000000001	0	1	0.30000000000000004	0.7	2	10	0.6000000000000001	7.0	invalid	0.8831216850012424	53248	0	1	1	53248	1	53248	1	53248	1	0.7	53248	turquoise	purple	1	0	ml	2.7.3	lorasick	sub-07_ses-01_task-ml_proj-lorasick_2021-01-13-14-01-56.936892
121	7	1	3	122	stable	1	200	122	sv	turquoise	purple	turquoise	purple	left	right	0.7	0.30000000000000004	10	2	7.0	0.6000000000000001	1	0	0.7	0.30000000000000004	10	2	7.0	0.6000000000000001	valid	0.5498712260014145	53248	0	1	2	51200	0	51200	0	51200	0	0.7	51200	turquoise	purple	1	0	ml	2.7.3	lorasick	sub-07_ses-01_task-ml_proj-lorasick_2021-01-13-14-01-56.936892
122	7	1	3	123	stable	1	200	123	sv	turquoise	purple	turquoise	purple	left	right	0.7	0.30000000000000004	4	6	2.8	1.8000000000000005	0	1	0.7	0.30000000000000004	4	6	2.8	1.8000000000000005	invalid	0.7331565599997703	53248	0	1	2	51200	0	51200	0	53248	1	0.7	51200	turquoise	purple	0	6	ml	2.7.3	lorasick	sub-07_ses-01_task-ml_proj-lorasick_2021-01-13-14-01-56.936892
123	7	1	3	124	stable	1	200	124	sv	purple	turquoise	turquoise	purple	right	left	0.7	0.30000000000000004	4	6	2.8	1.8000000000000005	1	0	0.30000000000000004	0.7	6	4	1.8000000000000005	2.8	valid	0.349923370002216	51200	0	0	2	53248	0	53248	0	51200	1	0.7	53248	turquoise	purple	0	0	ml	2.7.3	lorasick	sub-07_ses-01_task-ml_proj-lorasick_2021-01-13-14-01-56.936892
124	7	1	3	125	stable	1	200	125	sv	purple	turquoise	turquoise	purple	right	left	0.7	0.30000000000000004	2	10	1.4	3.0000000000000004	1	0	0.30000000000000004	0.7	10	2	3.0000000000000004	1.4	valid	0.649849446999724	53248	0	1	1	51200	0	53248	1	51200	0	0.7	53248	turquoise	purple	0	2	ml	2.7.3	lorasick	sub-07_ses-01_task-ml_proj-lorasick_2021-01-13-14-01-56.936892
125	7	1	3	126	stable	1	200	126	sv	purple	turquoise	turquoise	purple	right	left	0.7	0.30000000000000004	4	6	2.8	1.8000000000000005	1	0	0.30000000000000004	0.7	6	4	1.8000000000000005	2.8	valid	0.6665032929995505	53248	0	1	1	53248	1	53248	1	51200	0	0.7	53248	turquoise	purple	0	4	ml	2.7.3	lorasick	sub-07_ses-01_task-ml_proj-lorasick_2021-01-13-14-01-56.936892
126	7	1	3	127	stable	1	200	127	sv	purple	turquoise	turquoise	purple	right	left	0.7	0.30000000000000004	2	10	1.4	3.0000000000000004	1	0	0.30000000000000004	0.7	10	2	3.0000000000000004	1.4	valid	0.7498079090000829	51200	0	0	2	51200	1	53248	0	51200	1	0.7	53248	turquoise	purple	0	0	ml	2.7.3	lorasick	sub-07_ses-01_task-ml_proj-lorasick_2021-01-13-14-01-56.936892
127	7	1	3	128	stable	1	200	128	sv	purple	turquoise	turquoise	purple	right	left	0.7	0.30000000000000004	10	2	7.0	0.6000000000000001	1	0	0.30000000000000004	0.7	2	10	0.6000000000000001	7.0	valid	0.41658117599945393	53248	0	1	1	53248	1	53248	1	53248	1	0.7	53248	turquoise	purple	1	10	ml	2.7.3	lorasick	sub-07_ses-01_task-ml_proj-lorasick_2021-01-13-14-01-56.936892
128	7	1	3	129	stable	1	200	129	sv	turquoise	purple	turquoise	purple	left	right	0.7	0.30000000000000004	6	4	4.199999999999998	1.2000000000000002	1	0	0.7	0.30000000000000004	6	4	4.199999999999998	1.2000000000000002	valid	0.5332025860006979	51200	0	0	1	51200	1	51200	1	51200	1	0.7	51200	turquoise	purple	1	6	ml	2.7.3	lorasick	sub-07_ses-01_task-ml_proj-lorasick_2021-01-13-14-01-56.936892
129	7	1	3	130	stable	1	200	130	sv	purple	turquoise	turquoise	purple	right	left	0.7	0.30000000000000004	2	4	1.4	1.2000000000000002	1	0	0.30000000000000004	0.7	4	2	1.2000000000000002	1.4	valid	0.3665969079993374	53248	0	1	1	53248	1	53248	1	51200	0	0.7	53248	turquoise	purple	0	2	ml	2.7.3	lorasick	sub-07_ses-01_task-ml_proj-lorasick_2021-01-13-14-01-56.936892
130	7	1	3	131	stable	1	200	131	sv	purple	turquoise	turquoise	purple	right	left	0.7	0.30000000000000004	4	2	2.8	0.6000000000000001	1	0	0.30000000000000004	0.7	2	4	0.6000000000000001	2.8	valid	0.3332752749993233	53248	0	1	1	53248	1	53248	1	53248	1	0.7	53248	turquoise	purple	1	4	ml	2.7.3	lorasick	sub-07_ses-01_task-ml_proj-lorasick_2021-01-13-14-01-56.936892
131	7	1	3	132	stable	1	200	132	sv	purple	turquoise	turquoise	purple	right	left	0.7	0.30000000000000004	2	6	1.4	1.8000000000000005	1	0	0.30000000000000004	0.7	6	2	1.8000000000000005	1.4	valid	0.39992197600076906	53248	0	1	1	51200	0	53248	1	51200	0	0.7	53248	turquoise	purple	0	2	ml	2.7.3	lorasick	sub-07_ses-01_task-ml_proj-lorasick_2021-01-13-14-01-56.936892
132	7	1	3	133	stable	1	200	133	sv	purple	turquoise	turquoise	purple	right	left	0.7	0.30000000000000004	6	2	4.199999999999998	0.6000000000000001	1	0	0.30000000000000004	0.7	2	6	0.6000000000000001	4.199999999999998	valid	0.5332161590013129	53248	0	1	1	53248	1	53248	1	53248	1	0.7	53248	turquoise	purple	1	6	ml	2.7.3	lorasick	sub-07_ses-01_task-ml_proj-lorasick_2021-01-13-14-01-56.936892
133	7	1	3	134	stable	1	200	134	sv	turquoise	purple	turquoise	purple	left	right	0.7	0.30000000000000004	4	6	2.8	1.8000000000000005	1	0	0.7	0.30000000000000004	4	6	2.8	1.8000000000000005	valid	0.3332603640010348	51200	0	0	1	51200	1	51200	1	53248	0	0.7	51200	turquoise	purple	0	4	ml	2.7.3	lorasick	sub-07_ses-01_task-ml_proj-lorasick_2021-01-13-14-01-56.936892
134	7	1	3	135	stable	1	200	135	sv	turquoise	purple	turquoise	purple	left	right	0.7	0.30000000000000004	6	2	4.199999999999998	0.6000000000000001	1	0	0.7	0.30000000000000004	6	2	4.199999999999998	0.6000000000000001	valid	0.6831602259990177	51200	0	0	1	51200	1	51200	1	51200	1	0.7	51200	turquoise	purple	1	6	ml	2.7.3	lorasick	sub-07_ses-01_task-ml_proj-lorasick_2021-01-13-14-01-56.936892
135	7	1	3	136	stable	1	200	136	sv	turquoise	purple	turquoise	purple	left	right	0.7	0.30000000000000004	4	6	2.8	1.8000000000000005	0	1	0.7	0.30000000000000004	4	6	2.8	1.8000000000000005	invalid	0.516543889996683	51200	0	0	1	51200	1	51200	1	53248	0	0.7	51200	turquoise	purple	0	0	ml	2.7.3	lorasick	sub-07_ses-01_task-ml_proj-lorasick_2021-01-13-14-01-56.936892
136	7	1	3	137	stable	1	200	137	sv	purple	turquoise	turquoise	purple	right	left	0.7	0.30000000000000004	6	2	4.199999999999998	0.6000000000000001	1	0	0.30000000000000004	0.7	2	6	0.6000000000000001	4.199999999999998	valid	0.4165833099978045	53248	0	1	1	53248	1	53248	1	53248	1	0.7	53248	turquoise	purple	1	6	ml	2.7.3	lorasick	sub-07_ses-01_task-ml_proj-lorasick_2021-01-13-14-01-56.936892
137	7	1	3	138	stable	1	200	138	sv	turquoise	purple	turquoise	purple	left	right	0.7	0.30000000000000004	10	2	7.0	0.6000000000000001	0	1	0.7	0.30000000000000004	10	2	7.0	0.6000000000000001	invalid	0.9164282269994146	51200	0	0	1	51200	1	51200	1	51200	1	0.7	51200	turquoise	purple	1	0	ml	2.7.3	lorasick	sub-07_ses-01_task-ml_proj-lorasick_2021-01-13-14-01-56.936892
138	7	1	3	139	stable	1	200	139	sv	turquoise	purple	turquoise	purple	left	right	0.7	0.30000000000000004	2	6	1.4	1.8000000000000005	1	0	0.7	0.30000000000000004	2	6	1.4	1.8000000000000005	valid	0.5832030040000973	53248	0	1	2	53248	1	51200	0	53248	1	0.7	51200	turquoise	purple	0	0	ml	2.7.3	lorasick	sub-07_ses-01_task-ml_proj-lorasick_2021-01-13-14-01-56.936892
139	7	1	3	140	stable	1	200	140	sv	turquoise	purple	turquoise	purple	left	right	0.7	0.30000000000000004	2	10	1.4	3.0000000000000004	1	0	0.7	0.30000000000000004	2	10	1.4	3.0000000000000004	valid	0.6998351549991639	53248	0	1	2	53248	1	51200	0	53248	1	0.7	51200	turquoise	purple	0	0	ml	2.7.3	lorasick	sub-07_ses-01_task-ml_proj-lorasick_2021-01-13-14-01-56.936892
140	7	1	3	141	stable	1	200	141	sv	turquoise	purple	turquoise	purple	left	right	0.7	0.30000000000000004	6	6	4.199999999999998	1.8000000000000005	1	0	0.7	0.30000000000000004	6	6	4.199999999999998	1.8000000000000005	valid	0.4998821890003455	51200	0	0	1	51200	1	51200	1	53248	0	0.7	51200	turquoise	purple	1	6	ml	2.7.3	lorasick	sub-07_ses-01_task-ml_proj-lorasick_2021-01-13-14-01-56.936892
141	7	1	3	142	stable	1	200	142	sv	purple	turquoise	turquoise	purple	right	left	0.7	0.30000000000000004	4	6	2.8	1.8000000000000005	1	0	0.30000000000000004	0.7	6	4	1.8000000000000005	2.8	valid	0.933100957001443	53248	0	1	1	53248	1	53248	1	51200	0	0.7	53248	turquoise	purple	0	4	ml	2.7.3	lorasick	sub-07_ses-01_task-ml_proj-lorasick_2021-01-13-14-01-56.936892
142	7	1	3	143	stable	1	200	143	sv	turquoise	purple	turquoise	purple	left	right	0.7	0.30000000000000004	6	4	4.199999999999998	1.2000000000000002	1	0	0.7	0.30000000000000004	6	4	4.199999999999998	1.2000000000000002	valid	0.5831923879995884	51200	0	0	1	51200	1	51200	1	51200	1	0.7	51200	turquoise	purple	1	6	ml	2.7.3	lorasick	sub-07_ses-01_task-ml_proj-lorasick_2021-01-13-14-01-56.936892
143	7	1	3	144	stable	1	200	144	sv	turquoise	purple	turquoise	purple	left	right	0.7	0.30000000000000004	6	4	4.199999999999998	1.2000000000000002	1	0	0.7	0.30000000000000004	6	4	4.199999999999998	1.2000000000000002	valid	0.6831563380001171	51200	0	0	1	51200	1	51200	1	51200	1	0.7	51200	turquoise	purple	1	6	ml	2.7.3	lorasick	sub-07_ses-01_task-ml_proj-lorasick_2021-01-13-14-01-56.936892
144	7	1	3	145	stable	1	200	145	sv	turquoise	purple	turquoise	purple	left	right	0.7	0.30000000000000004	6	4	4.199999999999998	1.2000000000000002	1	0	0.7	0.30000000000000004	6	4	4.199999999999998	1.2000000000000002	valid	0.6831582930026343	51200	0	0	1	51200	1	51200	1	51200	1	0.7	51200	turquoise	purple	1	6	ml	2.7.3	lorasick	sub-07_ses-01_task-ml_proj-lorasick_2021-01-13-14-01-56.936892
145	7	1	3	146	stable	1	200	146	sv	turquoise	purple	turquoise	purple	left	right	0.7	0.30000000000000004	10	2	7.0	0.6000000000000001	0	1	0.7	0.30000000000000004	10	2	7.0	0.6000000000000001	invalid	0.7664644699980272	51200	0	0	1	51200	1	51200	1	51200	1	0.7	51200	turquoise	purple	1	0	ml	2.7.3	lorasick	sub-07_ses-01_task-ml_proj-lorasick_2021-01-13-14-01-56.936892
146	7	1	3	147	stable	1	200	147	sv	turquoise	purple	turquoise	purple	left	right	0.7	0.30000000000000004	4	2	2.8	0.6000000000000001	0	1	0.7	0.30000000000000004	4	2	2.8	0.6000000000000001	invalid	0.4332425629982026	53248	0	1	2	51200	0	51200	0	51200	0	0.7	51200	turquoise	purple	1	2	ml	2.7.3	lorasick	sub-07_ses-01_task-ml_proj-lorasick_2021-01-13-14-01-56.936892
147	7	1	3	148	stable	1	200	148	sv	turquoise	purple	turquoise	purple	left	right	0.7	0.30000000000000004	6	4	4.199999999999998	1.2000000000000002	0	1	0.7	0.30000000000000004	6	4	4.199999999999998	1.2000000000000002	invalid	0.4332520550015033	53248	0	1	2	51200	0	51200	0	51200	0	0.7	51200	turquoise	purple	1	4	ml	2.7.3	lorasick	sub-07_ses-01_task-ml_proj-lorasick_2021-01-13-14-01-56.936892
148	7	1	3	149	stable	1	200	149	sv	turquoise	purple	turquoise	purple	left	right	0.7	0.30000000000000004	2	4	1.4	1.2000000000000002	1	0	0.7	0.30000000000000004	2	4	1.4	1.2000000000000002	valid	0.4165762819975498	53248	0	1	2	51200	0	51200	0	53248	1	0.7	51200	turquoise	purple	0	0	ml	2.7.3	lorasick	sub-07_ses-01_task-ml_proj-lorasick_2021-01-13-14-01-56.936892
149	7	1	3	150	stable	1	200	150	sv	purple	turquoise	turquoise	purple	right	left	0.7	0.30000000000000004	6	2	4.199999999999998	0.6000000000000001	0	1	0.30000000000000004	0.7	2	6	0.6000000000000001	4.199999999999998	invalid	0.4832276429988269	53248	0	1	1	53248	1	53248	1	53248	1	0.7	53248	turquoise	purple	1	0	ml	2.7.3	lorasick	sub-07_ses-01_task-ml_proj-lorasick_2021-01-13-14-01-56.936892
150	7	1	4	151	stable	1	200	151	sv	turquoise	purple	turquoise	purple	left	right	0.7	0.30000000000000004	2	10	1.4	3.0000000000000004	0	1	0.7	0.30000000000000004	2	10	1.4	3.0000000000000004	invalid	0.566529255000205	51200	0	0	1	53248	0	51200	1	53248	0	0.7	51200	turquoise	purple	0	0	ml	2.7.3	lorasick	sub-07_ses-01_task-ml_proj-lorasick_2021-01-13-14-01-56.936892
151	7	1	4	152	stable	1	200	152	sv	turquoise	purple	turquoise	purple	left	right	0.7	0.30000000000000004	4	6	2.8	1.8000000000000005	1	0	0.7	0.30000000000000004	4	6	2.8	1.8000000000000005	valid	0.4832270680017246	53248	0	1	2	51200	0	51200	0	53248	1	0.7	51200	turquoise	purple	0	0	ml	2.7.3	lorasick	sub-07_ses-01_task-ml_proj-lorasick_2021-01-13-14-01-56.936892
152	7	1	4	153	stable	1	200	153	sv	turquoise	purple	turquoise	purple	left	right	0.7	0.30000000000000004	10	2	7.0	0.6000000000000001	0	1	0.7	0.30000000000000004	10	2	7.0	0.6000000000000001	invalid	0.5165542869981437	53248	0	1	2	51200	0	51200	0	51200	0	0.7	51200	turquoise	purple	1	2	ml	2.7.3	lorasick	sub-07_ses-01_task-ml_proj-lorasick_2021-01-13-14-01-56.936892
153	7	1	4	154	stable	1	200	154	sv	purple	turquoise	turquoise	purple	right	left	0.7	0.30000000000000004	6	2	4.199999999999998	0.6000000000000001	1	0	0.30000000000000004	0.7	2	6	0.6000000000000001	4.199999999999998	valid	0.3999111230004928	51200	0	0	2	53248	0	53248	0	53248	0	0.7	53248	turquoise	purple	1	0	ml	2.7.3	lorasick	sub-07_ses-01_task-ml_proj-lorasick_2021-01-13-14-01-56.936892
154	7	1	4	155	stable	1	200	155	sv	purple	turquoise	turquoise	purple	right	left	0.7	0.30000000000000004	6	2	4.199999999999998	0.6000000000000001	1	0	0.30000000000000004	0.7	2	6	0.6000000000000001	4.199999999999998	valid	0.5332163040002342	53248	0	1	1	53248	1	53248	1	53248	1	0.7	53248	turquoise	purple	1	6	ml	2.7.3	lorasick	sub-07_ses-01_task-ml_proj-lorasick_2021-01-13-14-01-56.936892
155	7	1	4	156	stable	1	200	156	sv	purple	turquoise	turquoise	purple	right	left	0.7	0.30000000000000004	4	2	2.8	0.6000000000000001	1	0	0.30000000000000004	0.7	2	4	0.6000000000000001	2.8	valid	0.5665396999975201	53248	0	1	1	53248	1	53248	1	53248	1	0.7	53248	turquoise	purple	1	4	ml	2.7.3	lorasick	sub-07_ses-01_task-ml_proj-lorasick_2021-01-13-14-01-56.936892
156	7	1	4	157	stable	1	200	157	sv	turquoise	purple	turquoise	purple	left	right	0.7	0.30000000000000004	2	2	1.4	0.6000000000000001	1	0	0.7	0.30000000000000004	2	2	1.4	0.6000000000000001	valid	0.4998847089991614	51200	0	0	1	51200	1	51200	1	53248	0	0.7	51200	turquoise	purple	1	2	ml	2.7.3	lorasick	sub-07_ses-01_task-ml_proj-lorasick_2021-01-13-14-01-56.936892
157	7	1	4	158	stable	1	200	158	sv	turquoise	purple	turquoise	purple	left	right	0.7	0.30000000000000004	6	6	4.199999999999998	1.8000000000000005	1	0	0.7	0.30000000000000004	6	6	4.199999999999998	1.8000000000000005	valid	0.43323911399784265	51200	0	0	1	51200	1	51200	1	53248	0	0.7	51200	turquoise	purple	1	6	ml	2.7.3	lorasick	sub-07_ses-01_task-ml_proj-lorasick_2021-01-13-14-01-56.936892
158	7	1	4	159	stable	1	200	159	sv	purple	turquoise	turquoise	purple	right	left	0.7	0.30000000000000004	6	2	4.199999999999998	0.6000000000000001	1	0	0.30000000000000004	0.7	2	6	0.6000000000000001	4.199999999999998	valid	0.3332713320014591	53248	0	1	1	53248	1	53248	1	53248	1	0.7	53248	turquoise	purple	1	6	ml	2.7.3	lorasick	sub-07_ses-01_task-ml_proj-lorasick_2021-01-13-14-01-56.936892
159	7	1	4	160	stable	1	200	160	sv	turquoise	purple	turquoise	purple	left	right	0.7	0.30000000000000004	2	2	1.4	0.6000000000000001	1	0	0.7	0.30000000000000004	2	2	1.4	0.6000000000000001	valid	0.41657277799822623	51200	0	0	1	51200	1	51200	1	53248	0	0.7	51200	turquoise	purple	1	2	ml	2.7.3	lorasick	sub-07_ses-01_task-ml_proj-lorasick_2021-01-13-14-01-56.936892
160	7	1	4	161	stable	1	200	161	sv	turquoise	purple	turquoise	purple	left	right	0.7	0.30000000000000004	6	4	4.199999999999998	1.2000000000000002	1	0	0.7	0.30000000000000004	6	4	4.199999999999998	1.2000000000000002	valid	0.5165335170022445	51200	0	0	1	51200	1	51200	1	51200	1	0.7	51200	turquoise	purple	1	6	ml	2.7.3	lorasick	sub-07_ses-01_task-ml_proj-lorasick_2021-01-13-14-01-56.936892
161	7	1	4	162	stable	1	200	162	sv	purple	turquoise	turquoise	purple	right	left	0.7	0.30000000000000004	6	4	4.199999999999998	1.2000000000000002	1	0	0.30000000000000004	0.7	4	6	1.2000000000000002	4.199999999999998	valid	0.8331275390009978	53248	0	1	1	53248	1	53248	1	53248	1	0.7	53248	turquoise	purple	1	6	ml	2.7.3	lorasick	sub-07_ses-01_task-ml_proj-lorasick_2021-01-13-14-01-56.936892
162	7	1	4	163	stable	1	200	163	sv	turquoise	purple	turquoise	purple	left	right	0.7	0.30000000000000004	6	4	4.199999999999998	1.2000000000000002	1	0	0.7	0.30000000000000004	6	4	4.199999999999998	1.2000000000000002	valid	0.6165072330004477	51200	0	0	1	51200	1	51200	1	51200	1	0.7	51200	turquoise	purple	1	6	ml	2.7.3	lorasick	sub-07_ses-01_task-ml_proj-lorasick_2021-01-13-14-01-56.936892
163	7	1	4	164	stable	1	200	164	sv	turquoise	purple	turquoise	purple	left	right	0.7	0.30000000000000004	6	2	4.199999999999998	0.6000000000000001	1	0	0.7	0.30000000000000004	6	2	4.199999999999998	0.6000000000000001	valid	0.5831830130009621	51200	0	0	1	51200	1	51200	1	51200	1	0.7	51200	turquoise	purple	1	6	ml	2.7.3	lorasick	sub-07_ses-01_task-ml_proj-lorasick_2021-01-13-14-01-56.936892
164	7	1	4	165	stable	1	200	165	sv	purple	turquoise	turquoise	purple	right	left	0.7	0.30000000000000004	2	4	1.4	1.2000000000000002	0	1	0.30000000000000004	0.7	4	2	1.2000000000000002	1.4	invalid	0.4165837020009349	53248	0	1	1	53248	1	53248	1	51200	0	0.7	53248	turquoise	purple	0	0	ml	2.7.3	lorasick	sub-07_ses-01_task-ml_proj-lorasick_2021-01-13-14-01-56.936892
165	7	1	4	166	stable	1	200	166	sv	purple	turquoise	turquoise	purple	right	left	0.7	0.30000000000000004	6	4	4.199999999999998	1.2000000000000002	1	0	0.30000000000000004	0.7	4	6	1.2000000000000002	4.199999999999998	valid	0.7164855419978267	51200	0	0	2	53248	0	53248	0	53248	0	0.7	53248	turquoise	purple	1	0	ml	2.7.3	lorasick	sub-07_ses-01_task-ml_proj-lorasick_2021-01-13-14-01-56.936892
166	7	1	4	167	stable	1	200	167	sv	turquoise	purple	turquoise	purple	left	right	0.7	0.30000000000000004	6	4	4.199999999999998	1.2000000000000002	1	0	0.7	0.30000000000000004	6	4	4.199999999999998	1.2000000000000002	valid	0.6498383979997016	51200	0	0	1	51200	1	51200	1	51200	1	0.7	51200	turquoise	purple	1	6	ml	2.7.3	lorasick	sub-07_ses-01_task-ml_proj-lorasick_2021-01-13-14-01-56.936892
167	7	1	4	168	stable	1	200	168	sv	turquoise	purple	turquoise	purple	left	right	0.7	0.30000000000000004	4	6	2.8	1.8000000000000005	1	0	0.7	0.30000000000000004	4	6	2.8	1.8000000000000005	valid	0.6165270130004501	51200	0	0	1	51200	1	51200	1	53248	0	0.7	51200	turquoise	purple	0	4	ml	2.7.3	lorasick	sub-07_ses-01_task-ml_proj-lorasick_2021-01-13-14-01-56.936892
168	7	1	4	169	stable	1	200	169	sv	purple	turquoise	turquoise	purple	right	left	0.7	0.30000000000000004	6	6	4.199999999999998	1.8000000000000005	0	1	0.30000000000000004	0.7	6	6	1.8000000000000005	4.199999999999998	invalid	0.5165539440022258	53248	0	1	1	53248	1	53248	1	53248	1	0.7	53248	turquoise	purple	0	0	ml	2.7.3	lorasick	sub-07_ses-01_task-ml_proj-lorasick_2021-01-13-14-01-56.936892
169	7	1	4	170	stable	1	200	170	sv	turquoise	purple	turquoise	purple	left	right	0.7	0.30000000000000004	2	6	1.4	1.8000000000000005	0	1	0.7	0.30000000000000004	2	6	1.4	1.8000000000000005	invalid	0.333261791998666	51200	0	0	1	53248	0	51200	1	53248	0	0.7	51200	turquoise	purple	0	0	ml	2.7.3	lorasick	sub-07_ses-01_task-ml_proj-lorasick_2021-01-13-14-01-56.936892
170	7	1	4	171	stable	1	200	171	sv	turquoise	purple	turquoise	purple	left	right	0.7	0.30000000000000004	2	4	1.4	1.2000000000000002	1	0	0.7	0.30000000000000004	2	4	1.4	1.2000000000000002	valid	0.4499105020004208	53248	0	1	2	51200	0	51200	0	53248	1	0.7	51200	turquoise	purple	0	0	ml	2.7.3	lorasick	sub-07_ses-01_task-ml_proj-lorasick_2021-01-13-14-01-56.936892
171	7	1	4	172	stable	1	200	172	sv	purple	turquoise	turquoise	purple	right	left	0.7	0.30000000000000004	2	6	1.4	1.8000000000000005	1	0	0.30000000000000004	0.7	6	2	1.8000000000000005	1.4	valid	0.3332622019988776	51200	0	0	2	51200	1	53248	0	51200	1	0.7	53248	turquoise	purple	0	0	ml	2.7.3	lorasick	sub-07_ses-01_task-ml_proj-lorasick_2021-01-13-14-01-56.936892
172	7	1	4	173	stable	1	200	173	sv	turquoise	purple	turquoise	purple	left	right	0.7	0.30000000000000004	4	6	2.8	1.8000000000000005	0	1	0.7	0.30000000000000004	4	6	2.8	1.8000000000000005	invalid	0.6998344089988677	53248	0	1	2	51200	0	51200	0	53248	1	0.7	51200	turquoise	purple	0	6	ml	2.7.3	lorasick	sub-07_ses-01_task-ml_proj-lorasick_2021-01-13-14-01-56.936892
173	7	1	4	174	stable	1	200	174	sv	purple	turquoise	turquoise	purple	right	left	0.7	0.30000000000000004	2	2	1.4	0.6000000000000001	0	1	0.30000000000000004	0.7	2	2	0.6000000000000001	1.4	invalid	0.5998549690011714	53248	0	1	1	53248	1	53248	1	53248	1	0.7	53248	turquoise	purple	0	0	ml	2.7.3	lorasick	sub-07_ses-01_task-ml_proj-lorasick_2021-01-13-14-01-56.936892
174	7	1	4	175	stable	1	200	175	sv	purple	turquoise	turquoise	purple	right	left	0.7	0.30000000000000004	4	6	2.8	1.8000000000000005	1	0	0.30000000000000004	0.7	6	4	1.8000000000000005	2.8	valid	0.3665895430021919	51200	0	0	2	53248	0	53248	0	51200	1	0.7	53248	turquoise	purple	0	0	ml	2.7.3	lorasick	sub-07_ses-01_task-ml_proj-lorasick_2021-01-13-14-01-56.936892
175	7	1	4	176	stable	1	200	176	sv	purple	turquoise	turquoise	purple	right	left	0.7	0.30000000000000004	10	2	7.0	0.6000000000000001	0	1	0.30000000000000004	0.7	2	10	0.6000000000000001	7.0	invalid	0.4332419079983083	53248	0	1	1	53248	1	53248	1	53248	1	0.7	53248	turquoise	purple	1	0	ml	2.7.3	lorasick	sub-07_ses-01_task-ml_proj-lorasick_2021-01-13-14-01-56.936892
176	7	1	4	177	stable	1	200	177	sv	turquoise	purple	turquoise	purple	left	right	0.7	0.30000000000000004	2	2	1.4	0.6000000000000001	1	0	0.7	0.30000000000000004	2	2	1.4	0.6000000000000001	valid	0.7831495909995283	53248	0	1	2	51200	0	51200	0	53248	1	0.7	51200	turquoise	purple	1	0	ml	2.7.3	lorasick	sub-07_ses-01_task-ml_proj-lorasick_2021-01-13-14-01-56.936892
177	7	1	4	178	stable	1	200	178	sv	purple	turquoise	turquoise	purple	right	left	0.7	0.30000000000000004	4	6	2.8	1.8000000000000005	1	0	0.30000000000000004	0.7	6	4	1.8000000000000005	2.8	valid	0.4832232690023375	53248	0	1	1	53248	1	53248	1	51200	0	0.7	53248	turquoise	purple	0	4	ml	2.7.3	lorasick	sub-07_ses-01_task-ml_proj-lorasick_2021-01-13-14-01-56.936892
178	7	1	4	179	stable	1	200	179	sv	turquoise	purple	turquoise	purple	left	right	0.7	0.30000000000000004	2	10	1.4	3.0000000000000004	0	1	0.7	0.30000000000000004	2	10	1.4	3.0000000000000004	invalid	0.3332649410003796	51200	0	0	1	53248	0	51200	1	53248	0	0.7	51200	turquoise	purple	0	0	ml	2.7.3	lorasick	sub-07_ses-01_task-ml_proj-lorasick_2021-01-13-14-01-56.936892
179	7	1	4	180	stable	1	200	180	sv	turquoise	purple	turquoise	purple	left	right	0.7	0.30000000000000004	6	2	4.199999999999998	0.6000000000000001	1	0	0.7	0.30000000000000004	6	2	4.199999999999998	0.6000000000000001	valid	0.4998820870023337	51200	0	0	1	51200	1	51200	1	51200	1	0.7	51200	turquoise	purple	1	6	ml	2.7.3	lorasick	sub-07_ses-01_task-ml_proj-lorasick_2021-01-13-14-01-56.936892
180	7	1	4	181	stable	1	200	181	sv	turquoise	purple	turquoise	purple	left	right	0.7	0.30000000000000004	4	6	2.8	1.8000000000000005	1	0	0.7	0.30000000000000004	4	6	2.8	1.8000000000000005	valid	0.5831999179972627	53248	0	1	2	51200	0	51200	0	53248	1	0.7	51200	turquoise	purple	0	0	ml	2.7.3	lorasick	sub-07_ses-01_task-ml_proj-lorasick_2021-01-13-14-01-56.936892
181	7	1	4	182	stable	1	200	182	sv	turquoise	purple	turquoise	purple	left	right	0.7	0.30000000000000004	2	4	1.4	1.2000000000000002	1	0	0.7	0.30000000000000004	2	4	1.4	1.2000000000000002	valid	0.5998598149999452	51200	0	0	1	51200	1	51200	1	53248	0	0.7	51200	turquoise	purple	0	2	ml	2.7.3	lorasick	sub-07_ses-01_task-ml_proj-lorasick_2021-01-13-14-01-56.936892
182	7	1	4	183	stable	1	200	183	sv	turquoise	purple	turquoise	purple	left	right	0.7	0.30000000000000004	4	6	2.8	1.8000000000000005	1	0	0.7	0.30000000000000004	4	6	2.8	1.8000000000000005	valid	0.5498767200006114	51200	0	0	1	51200	1	51200	1	53248	0	0.7	51200	turquoise	purple	0	4	ml	2.7.3	lorasick	sub-07_ses-01_task-ml_proj-lorasick_2021-01-13-14-01-56.936892
183	7	1	4	184	stable	1	200	184	sv	purple	turquoise	turquoise	purple	right	left	0.7	0.30000000000000004	2	10	1.4	3.0000000000000004	1	0	0.30000000000000004	0.7	10	2	3.0000000000000004	1.4	valid	0.4165827100005117	53248	0	1	1	51200	0	53248	1	51200	0	0.7	53248	turquoise	purple	0	2	ml	2.7.3	lorasick	sub-07_ses-01_task-ml_proj-lorasick_2021-01-13-14-01-56.936892
184	7	1	4	185	stable	1	200	185	sv	purple	turquoise	turquoise	purple	right	left	0.7	0.30000000000000004	2	2	1.4	0.6000000000000001	1	0	0.30000000000000004	0.7	2	2	0.6000000000000001	1.4	valid	0.6165238710018457	53248	0	1	1	53248	1	53248	1	53248	1	0.7	53248	turquoise	purple	0	2	ml	2.7.3	lorasick	sub-07_ses-01_task-ml_proj-lorasick_2021-01-13-14-01-56.936892
185	7	1	4	186	stable	1	200	186	sv	purple	turquoise	turquoise	purple	right	left	0.7	0.30000000000000004	2	6	1.4	1.8000000000000005	1	0	0.30000000000000004	0.7	6	2	1.8000000000000005	1.4	valid	0.6831724519979616	53248	0	1	1	51200	0	53248	1	51200	0	0.7	53248	turquoise	purple	0	2	ml	2.7.3	lorasick	sub-07_ses-01_task-ml_proj-lorasick_2021-01-13-14-01-56.936892
186	7	1	4	187	stable	1	200	187	sv	purple	turquoise	turquoise	purple	right	left	0.7	0.30000000000000004	6	2	4.199999999999998	0.6000000000000001	1	0	0.30000000000000004	0.7	2	6	0.6000000000000001	4.199999999999998	valid	0.6831730350022553	53248	0	1	1	53248	1	53248	1	53248	1	0.7	53248	turquoise	purple	1	6	ml	2.7.3	lorasick	sub-07_ses-01_task-ml_proj-lorasick_2021-01-13-14-01-56.936892
187	7	1	4	188	stable	1	200	188	sv	turquoise	purple	turquoise	purple	left	right	0.7	0.30000000000000004	4	2	2.8	0.6000000000000001	1	0	0.7	0.30000000000000004	4	2	2.8	0.6000000000000001	valid	0.5831960689974949	51200	0	0	1	51200	1	51200	1	51200	1	0.7	51200	turquoise	purple	1	4	ml	2.7.3	lorasick	sub-07_ses-01_task-ml_proj-lorasick_2021-01-13-14-01-56.936892
188	7	1	4	189	stable	1	200	189	sv	purple	turquoise	turquoise	purple	right	left	0.7	0.30000000000000004	6	6	4.199999999999998	1.8000000000000005	0	1	0.30000000000000004	0.7	6	6	1.8000000000000005	4.199999999999998	invalid	0.4332430450012907	53248	0	1	1	53248	1	53248	1	53248	1	0.7	53248	turquoise	purple	0	0	ml	2.7.3	lorasick	sub-07_ses-01_task-ml_proj-lorasick_2021-01-13-14-01-56.936892
189	7	1	4	190	stable	1	200	190	sv	turquoise	purple	turquoise	purple	left	right	0.7	0.30000000000000004	2	2	1.4	0.6000000000000001	1	0	0.7	0.30000000000000004	2	2	1.4	0.6000000000000001	valid	0.4332498690018838	53248	0	1	2	51200	0	51200	0	53248	1	0.7	51200	turquoise	purple	1	0	ml	2.7.3	lorasick	sub-07_ses-01_task-ml_proj-lorasick_2021-01-13-14-01-56.936892
190	7	1	4	191	stable	1	200	191	sv	purple	turquoise	turquoise	purple	right	left	0.7	0.30000000000000004	10	2	7.0	0.6000000000000001	1	0	0.30000000000000004	0.7	2	10	0.6000000000000001	7.0	valid	0.4499021120027464	51200	0	0	2	53248	0	53248	0	53248	0	0.7	53248	turquoise	purple	1	0	ml	2.7.3	lorasick	sub-07_ses-01_task-ml_proj-lorasick_2021-01-13-14-01-56.936892
191	7	1	4	192	stable	1	200	192	sv	purple	turquoise	turquoise	purple	right	left	0.7	0.30000000000000004	4	2	2.8	0.6000000000000001	0	1	0.30000000000000004	0.7	2	4	0.6000000000000001	2.8	invalid	0.4665534369996749	51200	0	0	2	53248	0	53248	0	53248	0	0.7	53248	turquoise	purple	1	2	ml	2.7.3	lorasick	sub-07_ses-01_task-ml_proj-lorasick_2021-01-13-14-01-56.936892
192	7	1	4	193	stable	1	200	193	sv	turquoise	purple	turquoise	purple	left	right	0.7	0.30000000000000004	4	6	2.8	1.8000000000000005	1	0	0.7	0.30000000000000004	4	6	2.8	1.8000000000000005	valid	0.5165497069974663	53248	0	1	2	51200	0	51200	0	53248	1	0.7	51200	turquoise	purple	0	0	ml	2.7.3	lorasick	sub-07_ses-01_task-ml_proj-lorasick_2021-01-13-14-01-56.936892
193	7	1	4	194	stable	1	200	194	sv	purple	turquoise	turquoise	purple	right	left	0.7	0.30000000000000004	6	2	4.199999999999998	0.6000000000000001	1	0	0.30000000000000004	0.7	2	6	0.6000000000000001	4.199999999999998	valid	0.5665484249984729	53248	0	1	1	53248	1	53248	1	53248	1	0.7	53248	turquoise	purple	1	6	ml	2.7.3	lorasick	sub-07_ses-01_task-ml_proj-lorasick_2021-01-13-14-01-56.936892
194	7	1	4	195	stable	1	200	195	sv	turquoise	purple	turquoise	purple	left	right	0.7	0.30000000000000004	6	6	4.199999999999998	1.8000000000000005	1	0	0.7	0.30000000000000004	6	6	4.199999999999998	1.8000000000000005	valid	0.43324229000063497	51200	0	0	1	51200	1	51200	1	53248	0	0.7	51200	turquoise	purple	1	6	ml	2.7.3	lorasick	sub-07_ses-01_task-ml_proj-lorasick_2021-01-13-14-01-56.936892
195	7	1	4	196	stable	1	200	196	sv	purple	turquoise	turquoise	purple	right	left	0.7	0.30000000000000004	2	10	1.4	3.0000000000000004	1	0	0.30000000000000004	0.7	10	2	3.0000000000000004	1.4	valid	0.5165494779976143	53248	0	1	1	51200	0	53248	1	51200	0	0.7	53248	turquoise	purple	0	2	ml	2.7.3	lorasick	sub-07_ses-01_task-ml_proj-lorasick_2021-01-13-14-01-56.936892
196	7	1	4	197	stable	1	200	197	sv	purple	turquoise	turquoise	purple	right	left	0.7	0.30000000000000004	4	2	2.8	0.6000000000000001	1	0	0.30000000000000004	0.7	2	4	0.6000000000000001	2.8	valid	0.6331752379992395	51200	0	0	2	53248	0	53248	0	53248	0	0.7	53248	turquoise	purple	1	0	ml	2.7.3	lorasick	sub-07_ses-01_task-ml_proj-lorasick_2021-01-13-14-01-56.936892
197	7	1	4	198	stable	1	200	198	sv	purple	turquoise	turquoise	purple	right	left	0.7	0.30000000000000004	2	4	1.4	1.2000000000000002	1	0	0.30000000000000004	0.7	4	2	1.2000000000000002	1.4	valid	0.4998739820002811	53248	0	1	1	53248	1	53248	1	51200	0	0.7	53248	turquoise	purple	0	2	ml	2.7.3	lorasick	sub-07_ses-01_task-ml_proj-lorasick_2021-01-13-14-01-56.936892
198	7	1	4	199	stable	1	200	199	sv	turquoise	purple	turquoise	purple	left	right	0.7	0.30000000000000004	4	2	2.8	0.6000000000000001	0	1	0.7	0.30000000000000004	4	2	2.8	0.6000000000000001	invalid	0.483212574999925	51200	0	0	1	51200	1	51200	1	51200	1	0.7	51200	turquoise	purple	1	0	ml	2.7.3	lorasick	sub-07_ses-01_task-ml_proj-lorasick_2021-01-13-14-01-56.936892
199	7	1	4	200	stable	1	200	200	sv	purple	turquoise	turquoise	purple	right	left	0.7	0.30000000000000004	2	6	1.4	1.8000000000000005	0	1	0.30000000000000004	0.7	6	2	1.8000000000000005	1.4	invalid	0.4665657879995706	53248	0	1	1	51200	0	53248	1	51200	0	0.7	53248	turquoise	purple	0	0	ml	2.7.3	lorasick	sub-07_ses-01_task-ml_proj-lorasick_2021-01-13-14-01-56.936892
200	7	1	5	201	volatile	2	20	1	sv	turquoise	purple	turquoise	purple	left	right	0.30000000000000004	0.7	10	2	3.0000000000000004	1.4	1	0	0.30000000000000004	0.7	10	2	3.0000000000000004	1.4	invalid	0.7997956830004114	51200	0	0	1	51200	1	53248	0	51200	1	0.7	53248	purple	turquoise	0	10	ml	2.7.3	lorasick	sub-07_ses-01_task-ml_proj-lorasick_2021-01-13-14-01-56.936892
201	7	1	5	202	volatile	2	20	2	sv	turquoise	purple	turquoise	purple	left	right	0.30000000000000004	0.7	2	2	0.6000000000000001	1.4	1	0	0.30000000000000004	0.7	2	2	0.6000000000000001	1.4	invalid	0.6165206679979747	51200	0	0	1	53248	0	53248	0	53248	0	0.7	53248	purple	turquoise	0	2	ml	2.7.3	lorasick	sub-07_ses-01_task-ml_proj-lorasick_2021-01-13-14-01-56.936892
202	7	1	5	203	volatile	2	20	3	sv	turquoise	purple	turquoise	purple	left	right	0.30000000000000004	0.7	4	2	1.2000000000000002	1.4	0	1	0.30000000000000004	0.7	4	2	1.2000000000000002	1.4	valid	0.5332116179997684	51200	0	0	1	53248	0	53248	0	51200	1	0.7	53248	purple	turquoise	0	0	ml	2.7.3	lorasick	sub-07_ses-01_task-ml_proj-lorasick_2021-01-13-14-01-56.936892
203	7	1	5	204	volatile	2	20	4	sv	purple	turquoise	turquoise	purple	right	left	0.30000000000000004	0.7	2	10	0.6000000000000001	7.0	1	0	0.7	0.30000000000000004	10	2	7.0	0.6000000000000001	invalid	0.5998527919982735	51200	0	0	2	51200	1	51200	1	51200	1	0.7	51200	purple	turquoise	1	0	ml	2.7.3	lorasick	sub-07_ses-01_task-ml_proj-lorasick_2021-01-13-14-01-56.936892
204	7	1	5	205	volatile	2	20	5	sv	purple	turquoise	turquoise	purple	right	left	0.30000000000000004	0.7	2	4	0.6000000000000001	2.8	0	1	0.7	0.30000000000000004	4	2	2.8	0.6000000000000001	valid	0.7164966370000911	53248	0	1	1	51200	0	51200	0	51200	0	0.7	51200	purple	turquoise	1	0	ml	2.7.3	lorasick	sub-07_ses-01_task-ml_proj-lorasick_2021-01-13-14-01-56.936892
205	7	1	5	206	volatile	2	20	6	sv	purple	turquoise	turquoise	purple	right	left	0.30000000000000004	0.7	2	6	0.6000000000000001	4.199999999999998	1	0	0.7	0.30000000000000004	6	2	4.199999999999998	0.6000000000000001	invalid	0.5665296700026374	51200	0	0	2	51200	1	51200	1	51200	1	0.7	51200	purple	turquoise	1	0	ml	2.7.3	lorasick	sub-07_ses-01_task-ml_proj-lorasick_2021-01-13-14-01-56.936892
206	7	1	5	207	volatile	2	20	7	sv	purple	turquoise	turquoise	purple	right	left	0.30000000000000004	0.7	4	6	1.2000000000000002	4.199999999999998	0	1	0.7	0.30000000000000004	6	4	4.199999999999998	1.2000000000000002	valid	0.6331876199983526	53248	0	1	1	51200	0	51200	0	51200	0	0.7	51200	purple	turquoise	1	0	ml	2.7.3	lorasick	sub-07_ses-01_task-ml_proj-lorasick_2021-01-13-14-01-56.936892
207	7	1	5	208	volatile	2	20	8	sv	turquoise	purple	turquoise	purple	left	right	0.30000000000000004	0.7	2	10	0.6000000000000001	7.0	0	1	0.30000000000000004	0.7	2	10	0.6000000000000001	7.0	valid	0.8497916519991122	53248	0	1	2	53248	1	53248	1	53248	1	0.7	53248	purple	turquoise	1	10	ml	2.7.3	lorasick	sub-07_ses-01_task-ml_proj-lorasick_2021-01-13-14-01-56.936892
208	7	1	5	209	volatile	2	20	9	sv	purple	turquoise	turquoise	purple	right	left	0.30000000000000004	0.7	6	2	1.8000000000000005	1.4	0	1	0.7	0.30000000000000004	2	6	1.4	1.8000000000000005	valid	0.4665605129994219	51200	0	0	2	53248	0	51200	1	53248	0	0.7	51200	purple	turquoise	0	2	ml	2.7.3	lorasick	sub-07_ses-01_task-ml_proj-lorasick_2021-01-13-14-01-56.936892
209	7	1	5	210	volatile	2	20	10	sv	purple	turquoise	turquoise	purple	right	left	0.30000000000000004	0.7	2	2	0.6000000000000001	1.4	1	0	0.7	0.30000000000000004	2	2	1.4	0.6000000000000001	invalid	0.6165130049994332	51200	0	0	2	51200	1	51200	1	53248	0	0.7	51200	purple	turquoise	1	0	ml	2.7.3	lorasick	sub-07_ses-01_task-ml_proj-lorasick_2021-01-13-14-01-56.936892
210	7	1	5	211	volatile	2	20	11	sv	turquoise	purple	turquoise	purple	left	right	0.30000000000000004	0.7	6	4	1.8000000000000005	2.8	0	1	0.30000000000000004	0.7	6	4	1.8000000000000005	2.8	valid	0.3499339840018365	53248	0	1	2	53248	1	53248	1	51200	0	0.7	53248	purple	turquoise	0	4	ml	2.7.3	lorasick	sub-07_ses-01_task-ml_proj-lorasick_2021-01-13-14-01-56.936892
211	7	1	5	212	volatile	2	20	12	sv	turquoise	purple	turquoise	purple	left	right	0.30000000000000004	0.7	6	6	1.8000000000000005	4.199999999999998	0	1	0.30000000000000004	0.7	6	6	1.8000000000000005	4.199999999999998	valid	0.4998921410006005	53248	0	1	2	53248	1	53248	1	53248	1	0.7	53248	purple	turquoise	0	6	ml	2.7.3	lorasick	sub-07_ses-01_task-ml_proj-lorasick_2021-01-13-14-01-56.936892
212	7	1	5	213	volatile	2	20	13	sv	turquoise	purple	turquoise	purple	left	right	0.30000000000000004	0.7	6	2	1.8000000000000005	1.4	1	0	0.30000000000000004	0.7	6	2	1.8000000000000005	1.4	invalid	0.4998885320019326	53248	0	1	2	51200	0	53248	1	51200	0	0.7	53248	purple	turquoise	0	0	ml	2.7.3	lorasick	sub-07_ses-01_task-ml_proj-lorasick_2021-01-13-14-01-56.936892
213	7	1	5	214	volatile	2	20	14	sv	purple	turquoise	turquoise	purple	right	left	0.30000000000000004	0.7	10	2	3.0000000000000004	1.4	0	1	0.7	0.30000000000000004	2	10	1.4	3.0000000000000004	valid	0.6665013409983658	51200	0	0	2	53248	0	51200	1	53248	0	0.7	51200	purple	turquoise	0	2	ml	2.7.3	lorasick	sub-07_ses-01_task-ml_proj-lorasick_2021-01-13-14-01-56.936892
214	7	1	5	215	volatile	2	20	15	sv	turquoise	purple	turquoise	purple	left	right	0.30000000000000004	0.7	4	6	1.2000000000000002	4.199999999999998	0	1	0.30000000000000004	0.7	4	6	1.2000000000000002	4.199999999999998	valid	0.3832580980015337	53248	0	1	2	53248	1	53248	1	53248	1	0.7	53248	purple	turquoise	1	6	ml	2.7.3	lorasick	sub-07_ses-01_task-ml_proj-lorasick_2021-01-13-14-01-56.936892
215	7	1	5	216	volatile	2	20	16	sv	turquoise	purple	turquoise	purple	left	right	0.30000000000000004	0.7	2	4	0.6000000000000001	2.8	0	1	0.30000000000000004	0.7	2	4	0.6000000000000001	2.8	valid	0.4665680770012841	53248	0	1	2	53248	1	53248	1	53248	1	0.7	53248	purple	turquoise	1	4	ml	2.7.3	lorasick	sub-07_ses-01_task-ml_proj-lorasick_2021-01-13-14-01-56.936892
216	7	1	5	217	volatile	2	20	17	sv	purple	turquoise	turquoise	purple	right	left	0.30000000000000004	0.7	4	2	1.2000000000000002	1.4	0	1	0.7	0.30000000000000004	2	4	1.4	1.2000000000000002	valid	0.7331476819999807	51200	0	0	2	51200	1	51200	1	53248	0	0.7	51200	purple	turquoise	0	2	ml	2.7.3	lorasick	sub-07_ses-01_task-ml_proj-lorasick_2021-01-13-14-01-56.936892
217	7	1	5	218	volatile	2	20	18	sv	turquoise	purple	turquoise	purple	left	right	0.30000000000000004	0.7	2	6	0.6000000000000001	4.199999999999998	0	1	0.30000000000000004	0.7	2	6	0.6000000000000001	4.199999999999998	valid	0.3999216939992039	53248	0	1	2	53248	1	53248	1	53248	1	0.7	53248	purple	turquoise	1	6	ml	2.7.3	lorasick	sub-07_ses-01_task-ml_proj-lorasick_2021-01-13-14-01-56.936892
218	7	1	5	219	volatile	2	20	19	sv	purple	turquoise	turquoise	purple	right	left	0.30000000000000004	0.7	6	6	1.8000000000000005	4.199999999999998	0	1	0.7	0.30000000000000004	6	6	4.199999999999998	1.8000000000000005	valid	0.2999416469974676	51200	0	0	2	51200	1	51200	1	53248	0	0.7	51200	purple	turquoise	1	6	ml	2.7.3	lorasick	sub-07_ses-01_task-ml_proj-lorasick_2021-01-13-14-01-56.936892
219	7	1	5	220	volatile	2	20	20	sv	purple	turquoise	turquoise	purple	right	left	0.30000000000000004	0.7	6	4	1.8000000000000005	2.8	0	1	0.7	0.30000000000000004	4	6	2.8	1.8000000000000005	valid	0.549867435998749	51200	0	0	2	51200	1	51200	1	53248	0	0.7	51200	purple	turquoise	0	4	ml	2.7.3	lorasick	sub-07_ses-01_task-ml_proj-lorasick_2021-01-13-14-01-56.936892
220	7	1	5	221	volatile	3	40	1	sv	purple	turquoise	turquoise	purple	right	left	0.7	0.30000000000000004	4	2	2.8	0.6000000000000001	1	0	0.30000000000000004	0.7	2	4	0.6000000000000001	2.8	valid	0.5165449369997077	51200	0	0	2	53248	0	53248	0	53248	0	0.7	53248	turquoise	purple	1	0	ml	2.7.3	lorasick	sub-07_ses-01_task-ml_proj-lorasick_2021-01-13-14-01-56.936892
221	7	1	5	222	volatile	3	40	2	sv	purple	turquoise	turquoise	purple	right	left	0.7	0.30000000000000004	2	2	1.4	0.6000000000000001	1	0	0.30000000000000004	0.7	2	2	0.6000000000000001	1.4	valid	0.4832204840022314	51200	0	0	2	53248	0	53248	0	53248	0	0.7	53248	turquoise	purple	0	0	ml	2.7.3	lorasick	sub-07_ses-01_task-ml_proj-lorasick_2021-01-13-14-01-56.936892
222	7	1	5	223	volatile	3	40	3	sv	turquoise	purple	turquoise	purple	left	right	0.7	0.30000000000000004	2	4	1.4	1.2000000000000002	0	1	0.7	0.30000000000000004	2	4	1.4	1.2000000000000002	invalid	0.6331876889998966	53248	0	1	2	51200	0	51200	0	53248	1	0.7	51200	turquoise	purple	0	4	ml	2.7.3	lorasick	sub-07_ses-01_task-ml_proj-lorasick_2021-01-13-14-01-56.936892
223	7	1	5	224	volatile	3	40	4	sv	turquoise	purple	turquoise	purple	left	right	0.7	0.30000000000000004	6	2	4.199999999999998	0.6000000000000001	0	1	0.7	0.30000000000000004	6	2	4.199999999999998	0.6000000000000001	invalid	1.0663865050009915	51200	0	0	1	51200	1	51200	1	51200	1	0.7	51200	turquoise	purple	1	0	ml	2.7.3	lorasick	sub-07_ses-01_task-ml_proj-lorasick_2021-01-13-14-01-56.936892
224	7	1	5	225	volatile	3	40	5	sv	turquoise	purple	turquoise	purple	left	right	0.7	0.30000000000000004	2	10	1.4	3.0000000000000004	0	1	0.7	0.30000000000000004	2	10	1.4	3.0000000000000004	invalid	1.332984826000029	53248	0	1	2	53248	1	51200	0	53248	1	0.7	51200	turquoise	purple	0	10	ml	2.7.3	lorasick	sub-07_ses-01_task-ml_proj-lorasick_2021-01-13-14-01-56.936892
225	7	1	5	226	volatile	3	40	6	sv	turquoise	purple	turquoise	purple	left	right	0.7	0.30000000000000004	6	6	4.199999999999998	1.8000000000000005	1	0	0.7	0.30000000000000004	6	6	4.199999999999998	1.8000000000000005	valid	0.5165448499974445	51200	0	0	1	51200	1	51200	1	53248	0	0.7	51200	turquoise	purple	1	6	ml	2.7.3	lorasick	sub-07_ses-01_task-ml_proj-lorasick_2021-01-13-14-01-56.936892
226	7	1	5	227	volatile	3	40	7	sv	turquoise	purple	turquoise	purple	left	right	0.7	0.30000000000000004	2	10	1.4	3.0000000000000004	1	0	0.7	0.30000000000000004	2	10	1.4	3.0000000000000004	valid	0.4832230689971766	51200	0	0	1	53248	0	51200	1	53248	0	0.7	51200	turquoise	purple	0	2	ml	2.7.3	lorasick	sub-07_ses-01_task-ml_proj-lorasick_2021-01-13-14-01-56.936892
227	7	1	5	228	volatile	3	40	8	sv	purple	turquoise	turquoise	purple	right	left	0.7	0.30000000000000004	2	4	1.4	1.2000000000000002	1	0	0.30000000000000004	0.7	4	2	1.2000000000000002	1.4	valid	0.5498706960024721	53248	0	1	1	53248	1	53248	1	51200	0	0.7	53248	turquoise	purple	0	2	ml	2.7.3	lorasick	sub-07_ses-01_task-ml_proj-lorasick_2021-01-13-14-01-56.936892
228	7	1	5	229	volatile	3	40	9	sv	purple	turquoise	turquoise	purple	right	left	0.7	0.30000000000000004	2	10	1.4	3.0000000000000004	0	1	0.30000000000000004	0.7	10	2	3.0000000000000004	1.4	invalid	0.466568174000713	53248	0	1	1	51200	0	53248	1	51200	0	0.7	53248	turquoise	purple	0	0	ml	2.7.3	lorasick	sub-07_ses-01_task-ml_proj-lorasick_2021-01-13-14-01-56.936892
229	7	1	5	230	volatile	3	40	10	sv	turquoise	purple	turquoise	purple	left	right	0.7	0.30000000000000004	6	6	4.199999999999998	1.8000000000000005	1	0	0.7	0.30000000000000004	6	6	4.199999999999998	1.8000000000000005	valid	0.7331471580000652	51200	0	0	1	51200	1	51200	1	53248	0	0.7	51200	turquoise	purple	1	6	ml	2.7.3	lorasick	sub-07_ses-01_task-ml_proj-lorasick_2021-01-13-14-01-56.936892
230	7	1	5	231	volatile	3	40	11	sv	purple	turquoise	turquoise	purple	right	left	0.7	0.30000000000000004	2	6	1.4	1.8000000000000005	1	0	0.30000000000000004	0.7	6	2	1.8000000000000005	1.4	valid	0.4165835700005118	53248	0	1	1	51200	0	53248	1	51200	0	0.7	53248	turquoise	purple	0	2	ml	2.7.3	lorasick	sub-07_ses-01_task-ml_proj-lorasick_2021-01-13-14-01-56.936892
231	7	1	5	232	volatile	3	40	12	sv	purple	turquoise	turquoise	purple	right	left	0.7	0.30000000000000004	2	4	1.4	1.2000000000000002	1	0	0.30000000000000004	0.7	4	2	1.2000000000000002	1.4	valid	0.4332397159996617	53248	0	1	1	53248	1	53248	1	51200	0	0.7	53248	turquoise	purple	0	2	ml	2.7.3	lorasick	sub-07_ses-01_task-ml_proj-lorasick_2021-01-13-14-01-56.936892
232	7	1	5	233	volatile	3	40	13	sv	purple	turquoise	turquoise	purple	right	left	0.7	0.30000000000000004	4	2	2.8	0.6000000000000001	0	1	0.30000000000000004	0.7	2	4	0.6000000000000001	2.8	invalid	0.6665124169994671	53248	0	1	1	53248	1	53248	1	53248	1	0.7	53248	turquoise	purple	1	0	ml	2.7.3	lorasick	sub-07_ses-01_task-ml_proj-lorasick_2021-01-13-14-01-56.936892
233	7	1	5	234	volatile	3	40	14	sv	turquoise	purple	turquoise	purple	left	right	0.7	0.30000000000000004	2	10	1.4	3.0000000000000004	1	0	0.7	0.30000000000000004	2	10	1.4	3.0000000000000004	valid	0.5332087280003179	51200	0	0	1	53248	0	51200	1	53248	0	0.7	51200	turquoise	purple	0	2	ml	2.7.3	lorasick	sub-07_ses-01_task-ml_proj-lorasick_2021-01-13-14-01-56.936892
234	7	1	5	235	volatile	3	40	15	sv	purple	turquoise	turquoise	purple	right	left	0.7	0.30000000000000004	4	2	2.8	0.6000000000000001	0	1	0.30000000000000004	0.7	2	4	0.6000000000000001	2.8	invalid	0.4665687300002901	53248	0	1	1	53248	1	53248	1	53248	1	0.7	53248	turquoise	purple	1	0	ml	2.7.3	lorasick	sub-07_ses-01_task-ml_proj-lorasick_2021-01-13-14-01-56.936892
235	7	1	5	236	volatile	3	40	16	sv	turquoise	purple	turquoise	purple	left	right	0.7	0.30000000000000004	6	4	4.199999999999998	1.2000000000000002	1	0	0.7	0.30000000000000004	6	4	4.199999999999998	1.2000000000000002	valid	0.6165225990007457	53248	0	1	2	51200	0	51200	0	51200	0	0.7	51200	turquoise	purple	1	0	ml	2.7.3	lorasick	sub-07_ses-01_task-ml_proj-lorasick_2021-01-13-14-01-56.936892
236	7	1	5	237	volatile	3	40	17	sv	purple	turquoise	turquoise	purple	right	left	0.7	0.30000000000000004	6	2	4.199999999999998	0.6000000000000001	1	0	0.30000000000000004	0.7	2	6	0.6000000000000001	4.199999999999998	valid	0.4332463479986473	53248	0	1	1	53248	1	53248	1	53248	1	0.7	53248	turquoise	purple	1	6	ml	2.7.3	lorasick	sub-07_ses-01_task-ml_proj-lorasick_2021-01-13-14-01-56.936892
237	7	1	5	238	volatile	3	40	18	sv	purple	turquoise	turquoise	purple	right	left	0.7	0.30000000000000004	2	6	1.4	1.8000000000000005	1	0	0.30000000000000004	0.7	6	2	1.8000000000000005	1.4	valid	0.6498477360000834	53248	0	1	1	51200	0	53248	1	51200	0	0.7	53248	turquoise	purple	0	2	ml	2.7.3	lorasick	sub-07_ses-01_task-ml_proj-lorasick_2021-01-13-14-01-56.936892
238	7	1	5	239	volatile	3	40	19	sv	purple	turquoise	turquoise	purple	right	left	0.7	0.30000000000000004	2	10	1.4	3.0000000000000004	0	1	0.30000000000000004	0.7	10	2	3.0000000000000004	1.4	invalid	0.6831659349991241	53248	0	1	1	51200	0	53248	1	51200	0	0.7	53248	turquoise	purple	0	0	ml	2.7.3	lorasick	sub-07_ses-01_task-ml_proj-lorasick_2021-01-13-14-01-56.936892
239	7	1	5	240	volatile	3	40	20	sv	purple	turquoise	turquoise	purple	right	left	0.7	0.30000000000000004	2	4	1.4	1.2000000000000002	1	0	0.30000000000000004	0.7	4	2	1.2000000000000002	1.4	valid	0.4832292510000116	53248	0	1	1	53248	1	53248	1	51200	0	0.7	53248	turquoise	purple	0	2	ml	2.7.3	lorasick	sub-07_ses-01_task-ml_proj-lorasick_2021-01-13-14-01-56.936892
240	7	1	5	241	volatile	3	40	21	sv	purple	turquoise	turquoise	purple	right	left	0.7	0.30000000000000004	4	6	2.8	1.8000000000000005	0	1	0.30000000000000004	0.7	6	4	1.8000000000000005	2.8	invalid	0.4332453360002546	53248	0	1	1	53248	1	53248	1	51200	0	0.7	53248	turquoise	purple	0	0	ml	2.7.3	lorasick	sub-07_ses-01_task-ml_proj-lorasick_2021-01-13-14-01-56.936892
241	7	1	5	242	volatile	3	40	22	sv	turquoise	purple	turquoise	purple	left	right	0.7	0.30000000000000004	4	6	2.8	1.8000000000000005	1	0	0.7	0.30000000000000004	4	6	2.8	1.8000000000000005	valid	0.4498953649999749	51200	0	0	1	51200	1	51200	1	53248	0	0.7	51200	turquoise	purple	0	4	ml	2.7.3	lorasick	sub-07_ses-01_task-ml_proj-lorasick_2021-01-13-14-01-56.936892
242	7	1	5	243	volatile	3	40	23	sv	turquoise	purple	turquoise	purple	left	right	0.7	0.30000000000000004	10	2	7.0	0.6000000000000001	0	1	0.7	0.30000000000000004	10	2	7.0	0.6000000000000001	invalid	0.5998529989992676	51200	0	0	1	51200	1	51200	1	51200	1	0.7	51200	turquoise	purple	1	0	ml	2.7.3	lorasick	sub-07_ses-01_task-ml_proj-lorasick_2021-01-13-14-01-56.936892
243	7	1	5	244	volatile	3	40	24	sv	turquoise	purple	turquoise	purple	left	right	0.7	0.30000000000000004	6	4	4.199999999999998	1.2000000000000002	0	1	0.7	0.30000000000000004	6	4	4.199999999999998	1.2000000000000002	invalid	0.3832567150020623	53248	0	1	2	51200	0	51200	0	51200	0	0.7	51200	turquoise	purple	1	4	ml	2.7.3	lorasick	sub-07_ses-01_task-ml_proj-lorasick_2021-01-13-14-01-56.936892
244	7	1	5	245	volatile	3	40	25	sv	purple	turquoise	turquoise	purple	right	left	0.7	0.30000000000000004	4	6	2.8	1.8000000000000005	1	0	0.30000000000000004	0.7	6	4	1.8000000000000005	2.8	valid	0.3999086769981659	51200	0	0	2	53248	0	53248	0	51200	1	0.7	53248	turquoise	purple	0	0	ml	2.7.3	lorasick	sub-07_ses-01_task-ml_proj-lorasick_2021-01-13-14-01-56.936892
245	7	1	5	246	volatile	3	40	26	sv	purple	turquoise	turquoise	purple	right	left	0.7	0.30000000000000004	2	4	1.4	1.2000000000000002	1	0	0.30000000000000004	0.7	4	2	1.2000000000000002	1.4	valid	0.4165694280018215	51200	0	0	2	53248	0	53248	0	51200	1	0.7	53248	turquoise	purple	0	0	ml	2.7.3	lorasick	sub-07_ses-01_task-ml_proj-lorasick_2021-01-13-14-01-56.936892
246	7	1	5	247	volatile	3	40	27	sv	turquoise	purple	turquoise	purple	left	right	0.7	0.30000000000000004	2	10	1.4	3.0000000000000004	0	1	0.7	0.30000000000000004	2	10	1.4	3.0000000000000004	invalid	0.3499258760020893	51200	0	0	1	53248	0	51200	1	53248	0	0.7	51200	turquoise	purple	0	0	ml	2.7.3	lorasick	sub-07_ses-01_task-ml_proj-lorasick_2021-01-13-14-01-56.936892
247	7	1	5	248	volatile	3	40	28	sv	purple	turquoise	turquoise	purple	right	left	0.7	0.30000000000000004	6	2	4.199999999999998	0.6000000000000001	0	1	0.30000000000000004	0.7	2	6	0.6000000000000001	4.199999999999998	invalid	1.5329272199996922	53248	0	1	1	53248	1	53248	1	53248	1	0.7	53248	turquoise	purple	1	0	ml	2.7.3	lorasick	sub-07_ses-01_task-ml_proj-lorasick_2021-01-13-14-01-56.936892
248	7	1	5	249	volatile	3	40	29	sv	turquoise	purple	turquoise	purple	left	right	0.7	0.30000000000000004	2	2	1.4	0.6000000000000001	1	0	0.7	0.30000000000000004	2	2	1.4	0.6000000000000001	valid	0.3832474730006652	51200	0	0	1	51200	1	51200	1	53248	0	0.7	51200	turquoise	purple	1	2	ml	2.7.3	lorasick	sub-07_ses-01_task-ml_proj-lorasick_2021-01-13-14-01-56.936892
249	7	1	5	250	volatile	3	40	30	sv	purple	turquoise	turquoise	purple	right	left	0.7	0.30000000000000004	6	4	4.199999999999998	1.2000000000000002	1	0	0.30000000000000004	0.7	4	6	1.2000000000000002	4.199999999999998	valid	0.5665380030004599	53248	0	1	1	53248	1	53248	1	53248	1	0.7	53248	turquoise	purple	1	6	ml	2.7.3	lorasick	sub-07_ses-01_task-ml_proj-lorasick_2021-01-13-14-01-56.936892
250	7	1	6	251	volatile	3	40	31	sv	turquoise	purple	turquoise	purple	left	right	0.7	0.30000000000000004	10	2	7.0	0.6000000000000001	1	0	0.7	0.30000000000000004	10	2	7.0	0.6000000000000001	valid	0.5165445790007652	51200	0	0	1	51200	1	51200	1	51200	1	0.7	51200	turquoise	purple	1	10	ml	2.7.3	lorasick	sub-07_ses-01_task-ml_proj-lorasick_2021-01-13-14-01-56.936892
251	7	1	6	252	volatile	3	40	32	sv	turquoise	purple	turquoise	purple	left	right	0.7	0.30000000000000004	2	6	1.4	1.8000000000000005	1	0	0.7	0.30000000000000004	2	6	1.4	1.8000000000000005	valid	0.5998442620002606	51200	0	0	1	53248	0	51200	1	53248	0	0.7	51200	turquoise	purple	0	2	ml	2.7.3	lorasick	sub-07_ses-01_task-ml_proj-lorasick_2021-01-13-14-01-56.936892
252	7	1	6	253	volatile	3	40	33	sv	purple	turquoise	turquoise	purple	right	left	0.7	0.30000000000000004	6	4	4.199999999999998	1.2000000000000002	1	0	0.30000000000000004	0.7	4	6	1.2000000000000002	4.199999999999998	valid	0.5665379409983871	53248	0	1	1	53248	1	53248	1	53248	1	0.7	53248	turquoise	purple	1	6	ml	2.7.3	lorasick	sub-07_ses-01_task-ml_proj-lorasick_2021-01-13-14-01-56.936892
253	7	1	6	254	volatile	3	40	34	sv	turquoise	purple	turquoise	purple	left	right	0.7	0.30000000000000004	2	6	1.4	1.8000000000000005	1	0	0.7	0.30000000000000004	2	6	1.4	1.8000000000000005	valid	0.3832540800030984	51200	0	0	1	53248	0	51200	1	53248	0	0.7	51200	turquoise	purple	0	2	ml	2.7.3	lorasick	sub-07_ses-01_task-ml_proj-lorasick_2021-01-13-14-01-56.936892
254	7	1	6	255	volatile	3	40	35	sv	purple	turquoise	turquoise	purple	right	left	0.7	0.30000000000000004	6	4	4.199999999999998	1.2000000000000002	1	0	0.30000000000000004	0.7	4	6	1.2000000000000002	4.199999999999998	valid	0.5832017889988492	53248	0	1	1	53248	1	53248	1	53248	1	0.7	53248	turquoise	purple	1	6	ml	2.7.3	lorasick	sub-07_ses-01_task-ml_proj-lorasick_2021-01-13-14-01-56.936892
255	7	1	6	256	volatile	3	40	36	sv	turquoise	purple	turquoise	purple	left	right	0.7	0.30000000000000004	6	6	4.199999999999998	1.8000000000000005	1	0	0.7	0.30000000000000004	6	6	4.199999999999998	1.8000000000000005	valid	0.4665663689993379	51200	0	0	1	51200	1	51200	1	53248	0	0.7	51200	turquoise	purple	1	6	ml	2.7.3	lorasick	sub-07_ses-01_task-ml_proj-lorasick_2021-01-13-14-01-56.936892
256	7	1	6	257	volatile	3	40	37	sv	turquoise	purple	turquoise	purple	left	right	0.7	0.30000000000000004	6	2	4.199999999999998	0.6000000000000001	1	0	0.7	0.30000000000000004	6	2	4.199999999999998	0.6000000000000001	valid	0.8664374229992973	51200	0	0	1	51200	1	51200	1	51200	1	0.7	51200	turquoise	purple	1	6	ml	2.7.3	lorasick	sub-07_ses-01_task-ml_proj-lorasick_2021-01-13-14-01-56.936892
257	7	1	6	258	volatile	3	40	38	sv	turquoise	purple	turquoise	purple	left	right	0.7	0.30000000000000004	6	6	4.199999999999998	1.8000000000000005	1	0	0.7	0.30000000000000004	6	6	4.199999999999998	1.8000000000000005	valid	0.7831338739997591	51200	0	0	1	51200	1	51200	1	53248	0	0.7	51200	turquoise	purple	1	6	ml	2.7.3	lorasick	sub-07_ses-01_task-ml_proj-lorasick_2021-01-13-14-01-56.936892
258	7	1	6	259	volatile	3	40	39	sv	purple	turquoise	turquoise	purple	right	left	0.7	0.30000000000000004	2	2	1.4	0.6000000000000001	1	0	0.30000000000000004	0.7	2	2	0.6000000000000001	1.4	valid	0.7664822570004617	53248	0	1	1	53248	1	53248	1	53248	1	0.7	53248	turquoise	purple	0	2	ml	2.7.3	lorasick	sub-07_ses-01_task-ml_proj-lorasick_2021-01-13-14-01-56.936892
259	7	1	6	260	volatile	3	40	40	sv	turquoise	purple	turquoise	purple	left	right	0.7	0.30000000000000004	2	2	1.4	0.6000000000000001	1	0	0.7	0.30000000000000004	2	2	1.4	0.6000000000000001	valid	0.833115394001652	51200	0	0	1	51200	1	51200	1	53248	0	0.7	51200	turquoise	purple	1	2	ml	2.7.3	lorasick	sub-07_ses-01_task-ml_proj-lorasick_2021-01-13-14-01-56.936892
260	7	1	6	261	volatile	4	40	1	sv	purple	turquoise	turquoise	purple	right	left	0.30000000000000004	0.7	2	6	0.6000000000000001	4.199999999999998	0	1	0.7	0.30000000000000004	6	2	4.199999999999998	0.6000000000000001	valid	1.1330307079988415	51200	0	0	2	51200	1	51200	1	51200	1	0.7	51200	purple	turquoise	1	6	ml	2.7.3	lorasick	sub-07_ses-01_task-ml_proj-lorasick_2021-01-13-14-01-56.936892
261	7	1	6	262	volatile	4	40	2	sv	purple	turquoise	turquoise	purple	right	left	0.30000000000000004	0.7	10	2	3.0000000000000004	1.4	0	1	0.7	0.30000000000000004	2	10	1.4	3.0000000000000004	valid	0.8497918409993872	53248	0	1	1	53248	1	51200	0	53248	1	0.7	51200	purple	turquoise	0	0	ml	2.7.3	lorasick	sub-07_ses-01_task-ml_proj-lorasick_2021-01-13-14-01-56.936892
262	7	1	6	263	volatile	4	40	3	sv	purple	turquoise	turquoise	purple	right	left	0.30000000000000004	0.7	4	2	1.2000000000000002	1.4	0	1	0.7	0.30000000000000004	2	4	1.4	1.2000000000000002	valid	0.5998636069998611	53248	0	1	1	51200	0	51200	0	53248	1	0.7	51200	purple	turquoise	0	0	ml	2.7.3	lorasick	sub-07_ses-01_task-ml_proj-lorasick_2021-01-13-14-01-56.936892
263	7	1	6	264	volatile	4	40	4	sv	turquoise	purple	turquoise	purple	left	right	0.30000000000000004	0.7	6	6	1.8000000000000005	4.199999999999998	1	0	0.30000000000000004	0.7	6	6	1.8000000000000005	4.199999999999998	invalid	0.6831719949987018	53248	0	1	2	53248	1	53248	1	53248	1	0.7	53248	purple	turquoise	0	0	ml	2.7.3	lorasick	sub-07_ses-01_task-ml_proj-lorasick_2021-01-13-14-01-56.936892
264	7	1	6	265	volatile	4	40	5	sv	purple	turquoise	turquoise	purple	right	left	0.30000000000000004	0.7	2	2	0.6000000000000001	1.4	1	0	0.7	0.30000000000000004	2	2	1.4	0.6000000000000001	invalid	0.6331897669988393	53248	0	1	1	51200	0	51200	0	53248	1	0.7	51200	purple	turquoise	1	2	ml	2.7.3	lorasick	sub-07_ses-01_task-ml_proj-lorasick_2021-01-13-14-01-56.936892
265	7	1	6	266	volatile	4	40	6	sv	turquoise	purple	turquoise	purple	left	right	0.30000000000000004	0.7	2	6	0.6000000000000001	4.199999999999998	0	1	0.30000000000000004	0.7	2	6	0.6000000000000001	4.199999999999998	valid	0.98307504100012	51200	0	0	1	53248	0	53248	0	53248	0	0.7	53248	purple	turquoise	1	0	ml	2.7.3	lorasick	sub-07_ses-01_task-ml_proj-lorasick_2021-01-13-14-01-56.936892
266	7	1	6	267	volatile	4	40	7	sv	purple	turquoise	turquoise	purple	right	left	0.30000000000000004	0.7	2	6	0.6000000000000001	4.199999999999998	0	1	0.7	0.30000000000000004	6	2	4.199999999999998	0.6000000000000001	valid	0.7331594289971691	53248	0	1	1	51200	0	51200	0	51200	0	0.7	51200	purple	turquoise	1	0	ml	2.7.3	lorasick	sub-07_ses-01_task-ml_proj-lorasick_2021-01-13-14-01-56.936892
267	7	1	6	268	volatile	4	40	8	sv	purple	turquoise	turquoise	purple	right	left	0.30000000000000004	0.7	2	2	0.6000000000000001	1.4	0	1	0.7	0.30000000000000004	2	2	1.4	0.6000000000000001	valid	0.6831626589992084	51200	0	0	2	51200	1	51200	1	53248	0	0.7	51200	purple	turquoise	1	2	ml	2.7.3	lorasick	sub-07_ses-01_task-ml_proj-lorasick_2021-01-13-14-01-56.936892
268	7	1	6	269	volatile	4	40	9	sv	turquoise	purple	turquoise	purple	left	right	0.30000000000000004	0.7	6	4	1.8000000000000005	2.8	0	1	0.30000000000000004	0.7	6	4	1.8000000000000005	2.8	valid	0.4165826290009136	53248	0	1	2	53248	1	53248	1	51200	0	0.7	53248	purple	turquoise	0	4	ml	2.7.3	lorasick	sub-07_ses-01_task-ml_proj-lorasick_2021-01-13-14-01-56.936892
269	7	1	6	270	volatile	4	40	10	sv	turquoise	purple	turquoise	purple	left	right	0.30000000000000004	0.7	6	2	1.8000000000000005	1.4	0	1	0.30000000000000004	0.7	6	2	1.8000000000000005	1.4	valid	1.14969345800273	51200	0	0	1	51200	1	53248	0	51200	1	0.7	53248	purple	turquoise	0	0	ml	2.7.3	lorasick	sub-07_ses-01_task-ml_proj-lorasick_2021-01-13-14-01-56.936892
270	7	1	6	271	volatile	4	40	11	sv	purple	turquoise	turquoise	purple	right	left	0.30000000000000004	0.7	2	10	0.6000000000000001	7.0	0	1	0.7	0.30000000000000004	10	2	7.0	0.6000000000000001	valid	0.7831347570026992	51200	0	0	2	51200	1	51200	1	51200	1	0.7	51200	purple	turquoise	1	10	ml	2.7.3	lorasick	sub-07_ses-01_task-ml_proj-lorasick_2021-01-13-14-01-56.936892
271	7	1	6	272	volatile	4	40	12	sv	turquoise	purple	turquoise	purple	left	right	0.30000000000000004	0.7	6	6	1.8000000000000005	4.199999999999998	0	1	0.30000000000000004	0.7	6	6	1.8000000000000005	4.199999999999998	valid	0.449904779001372	53248	0	1	2	53248	1	53248	1	53248	1	0.7	53248	purple	turquoise	0	6	ml	2.7.3	lorasick	sub-07_ses-01_task-ml_proj-lorasick_2021-01-13-14-01-56.936892
