Unnamed: 0	sub_id	ses_id	block_no	trial_no	phase_type	phase_no	phase_length	trialInPhase_no	phase_type_order	color_left	color_right	color1	color2	position1	position2	prob1	prob2	mag1	mag2	ev1	ev2	outcome1	outcome2	prob_left	prob_right	mag_left	mag_right	ev_left	ev_right	reward_validity	resp_time	resp_key	timeout	choice_side	choice	ev_corr_resp	ev_correct	prob_corr_resp	prob_correct	mag_corr_resp	mag_correct	high_prob	high_prob_side	high_prob_color	low_prob_color	no_brain	reward	name	version	proj_id	logFileID
0	11	1	1	1	stable	1	200	1	sv	brown	green	brown	green	left	right	0.7	0.30000000000000004	6	2	4.199999999999998	0.6000000000000001	1	0	0.7	0.30000000000000004	6	2	4.199999999999998	0.6000000000000001	valid	1.0663845659983051	51200	0	0	1	51200	1	51200	1	51200	1	0.7	51200	brown	green	1	6	ml	2.7.3	lorasick	sub-11_ses-01_task-ml_proj-lorasick_2021-02-23-14-11-26.323975
1	11	1	1	2	stable	1	200	2	sv	brown	green	brown	green	left	right	0.7	0.30000000000000004	6	2	4.199999999999998	0.6000000000000001	0	1	0.7	0.30000000000000004	6	2	4.199999999999998	0.6000000000000001	invalid	0.7164868559993921	51200	0	0	1	51200	1	51200	1	51200	1	0.7	51200	brown	green	1	0	ml	2.7.3	lorasick	sub-11_ses-01_task-ml_proj-lorasick_2021-02-23-14-11-26.323975
2	11	1	1	3	stable	1	200	3	sv	green	brown	brown	green	right	left	0.7	0.30000000000000004	2	10	1.4	3.0000000000000004	1	0	0.30000000000000004	0.7	10	2	3.0000000000000004	1.4	valid	1.6328872160011088	51200	0	0	2	51200	1	53248	0	51200	1	0.7	53248	brown	green	0	0	ml	2.7.3	lorasick	sub-11_ses-01_task-ml_proj-lorasick_2021-02-23-14-11-26.323975
3	11	1	1	4	stable	1	200	4	sv	green	brown	brown	green	right	left	0.7	0.30000000000000004	4	2	2.8	0.6000000000000001	0	1	0.30000000000000004	0.7	2	4	0.6000000000000001	2.8	invalid	0.9164412259997334	53248	0	1	1	53248	1	53248	1	53248	1	0.7	53248	brown	green	1	0	ml	2.7.3	lorasick	sub-11_ses-01_task-ml_proj-lorasick_2021-02-23-14-11-26.323975
4	11	1	1	5	stable	1	200	5	sv	green	brown	brown	green	right	left	0.7	0.30000000000000004	6	2	4.199999999999998	0.6000000000000001	0	1	0.30000000000000004	0.7	2	6	0.6000000000000001	4.199999999999998	invalid	0.7998123649995249	53248	0	1	1	53248	1	53248	1	53248	1	0.7	53248	brown	green	1	0	ml	2.7.3	lorasick	sub-11_ses-01_task-ml_proj-lorasick_2021-02-23-14-11-26.323975
5	11	1	1	6	stable	1	200	6	sv	green	brown	brown	green	right	left	0.7	0.30000000000000004	4	2	2.8	0.6000000000000001	1	0	0.30000000000000004	0.7	2	4	0.6000000000000001	2.8	valid	1.3829615680006102	51200	0	0	2	53248	0	53248	0	53248	0	0.7	53248	brown	green	1	0	ml	2.7.3	lorasick	sub-11_ses-01_task-ml_proj-lorasick_2021-02-23-14-11-26.323975
6	11	1	1	7	stable	1	200	7	sv	green	brown	brown	green	right	left	0.7	0.30000000000000004	6	4	4.199999999999998	1.2000000000000002	0	1	0.30000000000000004	0.7	4	6	1.2000000000000002	4.199999999999998	invalid	0.6498494109982857	53248	0	1	1	53248	1	53248	1	53248	1	0.7	53248	brown	green	1	0	ml	2.7.3	lorasick	sub-11_ses-01_task-ml_proj-lorasick_2021-02-23-14-11-26.323975
7	11	1	1	8	stable	1	200	8	sv	green	brown	brown	green	right	left	0.7	0.30000000000000004	4	2	2.8	0.6000000000000001	0	1	0.30000000000000004	0.7	2	4	0.6000000000000001	2.8	invalid	0.9997471210008372	53248	0	1	1	53248	1	53248	1	53248	1	0.7	53248	brown	green	1	0	ml	2.7.3	lorasick	sub-11_ses-01_task-ml_proj-lorasick_2021-02-23-14-11-26.323975
8	11	1	1	9	stable	1	200	9	sv	brown	green	brown	green	left	right	0.7	0.30000000000000004	10	2	7.0	0.6000000000000001	1	0	0.7	0.30000000000000004	10	2	7.0	0.6000000000000001	valid	1.366296988002432	51200	0	0	1	51200	1	51200	1	51200	1	0.7	51200	brown	green	1	10	ml	2.7.3	lorasick	sub-11_ses-01_task-ml_proj-lorasick_2021-02-23-14-11-26.323975
9	11	1	1	10	stable	1	200	10	sv	green	brown	brown	green	right	left	0.7	0.30000000000000004	4	6	2.8	1.8000000000000005	1	0	0.30000000000000004	0.7	6	4	1.8000000000000005	2.8	valid	0.7664905300007376	53248	0	1	1	53248	1	53248	1	51200	0	0.7	53248	brown	green	0	4	ml	2.7.3	lorasick	sub-11_ses-01_task-ml_proj-lorasick_2021-02-23-14-11-26.323975
10	11	1	1	11	stable	1	200	11	sv	green	brown	brown	green	right	left	0.7	0.30000000000000004	6	2	4.199999999999998	0.6000000000000001	0	1	0.30000000000000004	0.7	2	6	0.6000000000000001	4.199999999999998	invalid	0.716498991001572	53248	0	1	1	53248	1	53248	1	53248	1	0.7	53248	brown	green	1	0	ml	2.7.3	lorasick	sub-11_ses-01_task-ml_proj-lorasick_2021-02-23-14-11-26.323975
11	11	1	1	12	stable	1	200	12	sv	brown	green	brown	green	left	right	0.7	0.30000000000000004	4	2	2.8	0.6000000000000001	1	0	0.7	0.30000000000000004	4	2	2.8	0.6000000000000001	valid	1.6995279239999943	51200	0	0	1	51200	1	51200	1	51200	1	0.7	51200	brown	green	1	4	ml	2.7.3	lorasick	sub-11_ses-01_task-ml_proj-lorasick_2021-02-23-14-11-26.323975
12	11	1	1	13	stable	1	200	13	sv	green	brown	brown	green	right	left	0.7	0.30000000000000004	10	2	7.0	0.6000000000000001	1	0	0.30000000000000004	0.7	2	10	0.6000000000000001	7.0	valid	0.6831751380013884	53248	0	1	1	53248	1	53248	1	53248	1	0.7	53248	brown	green	1	10	ml	2.7.3	lorasick	sub-11_ses-01_task-ml_proj-lorasick_2021-02-23-14-11-26.323975
13	11	1	1	14	stable	1	200	14	sv	green	brown	brown	green	right	left	0.7	0.30000000000000004	2	2	1.4	0.6000000000000001	1	0	0.30000000000000004	0.7	2	2	0.6000000000000001	1.4	valid	0.7498166339973977	53248	0	1	1	53248	1	53248	1	53248	1	0.7	53248	brown	green	0	2	ml	2.7.3	lorasick	sub-11_ses-01_task-ml_proj-lorasick_2021-02-23-14-11-26.323975
14	11	1	1	15	stable	1	200	15	sv	brown	green	brown	green	left	right	0.7	0.30000000000000004	2	10	1.4	3.0000000000000004	1	0	0.7	0.30000000000000004	2	10	1.4	3.0000000000000004	valid	1.4162937340006465	53248	0	1	2	53248	1	51200	0	53248	1	0.7	51200	brown	green	0	0	ml	2.7.3	lorasick	sub-11_ses-01_task-ml_proj-lorasick_2021-02-23-14-11-26.323975
15	11	1	1	16	stable	1	200	16	sv	brown	green	brown	green	left	right	0.7	0.30000000000000004	4	6	2.8	1.8000000000000005	0	1	0.7	0.30000000000000004	4	6	2.8	1.8000000000000005	invalid	0.999738933998742	51200	0	0	1	51200	1	51200	1	53248	0	0.7	51200	brown	green	0	0	ml	2.7.3	lorasick	sub-11_ses-01_task-ml_proj-lorasick_2021-02-23-14-11-26.323975
16	11	1	1	17	stable	1	200	17	sv	green	brown	brown	green	right	left	0.7	0.30000000000000004	2	4	1.4	1.2000000000000002	1	0	0.30000000000000004	0.7	4	2	1.2000000000000002	1.4	valid	1.166359298000316	51200	0	0	2	53248	0	53248	0	51200	1	0.7	53248	brown	green	0	0	ml	2.7.3	lorasick	sub-11_ses-01_task-ml_proj-lorasick_2021-02-23-14-11-26.323975
17	11	1	1	18	stable	1	200	18	sv	green	brown	brown	green	right	left	0.7	0.30000000000000004	10	2	7.0	0.6000000000000001	1	0	0.30000000000000004	0.7	2	10	0.6000000000000001	7.0	valid	0.6664996930012421	53248	0	1	1	53248	1	53248	1	53248	1	0.7	53248	brown	green	1	10	ml	2.7.3	lorasick	sub-11_ses-01_task-ml_proj-lorasick_2021-02-23-14-11-26.323975
18	11	1	1	19	stable	1	200	19	sv	brown	green	brown	green	left	right	0.7	0.30000000000000004	2	6	1.4	1.8000000000000005	1	0	0.7	0.30000000000000004	2	6	1.4	1.8000000000000005	valid	1.2663487819991133	53248	0	1	2	53248	1	51200	0	53248	1	0.7	51200	brown	green	0	0	ml	2.7.3	lorasick	sub-11_ses-01_task-ml_proj-lorasick_2021-02-23-14-11-26.323975
19	11	1	1	20	stable	1	200	20	sv	brown	green	brown	green	left	right	0.7	0.30000000000000004	6	4	4.199999999999998	1.2000000000000002	0	1	0.7	0.30000000000000004	6	4	4.199999999999998	1.2000000000000002	invalid	0.6331838839978445	51200	0	0	1	51200	1	51200	1	51200	1	0.7	51200	brown	green	1	0	ml	2.7.3	lorasick	sub-11_ses-01_task-ml_proj-lorasick_2021-02-23-14-11-26.323975
20	11	1	1	21	stable	1	200	21	sv	green	brown	brown	green	right	left	0.7	0.30000000000000004	10	2	7.0	0.6000000000000001	1	0	0.30000000000000004	0.7	2	10	0.6000000000000001	7.0	valid	0.5498821430010139	53248	0	1	1	53248	1	53248	1	53248	1	0.7	53248	brown	green	1	10	ml	2.7.3	lorasick	sub-11_ses-01_task-ml_proj-lorasick_2021-02-23-14-11-26.323975
21	11	1	1	22	stable	1	200	22	sv	green	brown	brown	green	right	left	0.7	0.30000000000000004	6	2	4.199999999999998	0.6000000000000001	0	1	0.30000000000000004	0.7	2	6	0.6000000000000001	4.199999999999998	invalid	0.5832023429975379	53248	0	1	1	53248	1	53248	1	53248	1	0.7	53248	brown	green	1	0	ml	2.7.3	lorasick	sub-11_ses-01_task-ml_proj-lorasick_2021-02-23-14-11-26.323975
22	11	1	1	23	stable	1	200	23	sv	brown	green	brown	green	left	right	0.7	0.30000000000000004	6	2	4.199999999999998	0.6000000000000001	1	0	0.7	0.30000000000000004	6	2	4.199999999999998	0.6000000000000001	valid	0.6165169930027332	51200	0	0	1	51200	1	51200	1	51200	1	0.7	51200	brown	green	1	6	ml	2.7.3	lorasick	sub-11_ses-01_task-ml_proj-lorasick_2021-02-23-14-11-26.323975
23	11	1	1	24	stable	1	200	24	sv	brown	green	brown	green	left	right	0.7	0.30000000000000004	4	2	2.8	0.6000000000000001	1	0	0.7	0.30000000000000004	4	2	2.8	0.6000000000000001	valid	0.6165138020005543	51200	0	0	1	51200	1	51200	1	51200	1	0.7	51200	brown	green	1	4	ml	2.7.3	lorasick	sub-11_ses-01_task-ml_proj-lorasick_2021-02-23-14-11-26.323975
24	11	1	1	25	stable	1	200	25	sv	green	brown	brown	green	right	left	0.7	0.30000000000000004	4	6	2.8	1.8000000000000005	1	0	0.30000000000000004	0.7	6	4	1.8000000000000005	2.8	valid	0.8997677150000527	51200	0	0	2	53248	0	53248	0	51200	1	0.7	53248	brown	green	0	0	ml	2.7.3	lorasick	sub-11_ses-01_task-ml_proj-lorasick_2021-02-23-14-11-26.323975
25	11	1	1	26	stable	1	200	26	sv	brown	green	brown	green	left	right	0.7	0.30000000000000004	6	4	4.199999999999998	1.2000000000000002	0	1	0.7	0.30000000000000004	6	4	4.199999999999998	1.2000000000000002	invalid	0.5998545490001561	51200	0	0	1	51200	1	51200	1	51200	1	0.7	51200	brown	green	1	0	ml	2.7.3	lorasick	sub-11_ses-01_task-ml_proj-lorasick_2021-02-23-14-11-26.323975
26	11	1	1	27	stable	1	200	27	sv	brown	green	brown	green	left	right	0.7	0.30000000000000004	4	2	2.8	0.6000000000000001	0	1	0.7	0.30000000000000004	4	2	2.8	0.6000000000000001	invalid	1.1830267190016457	53248	0	1	2	51200	0	51200	0	51200	0	0.7	51200	brown	green	1	2	ml	2.7.3	lorasick	sub-11_ses-01_task-ml_proj-lorasick_2021-02-23-14-11-26.323975
27	11	1	1	28	stable	1	200	28	sv	brown	green	brown	green	left	right	0.7	0.30000000000000004	6	4	4.199999999999998	1.2000000000000002	1	0	0.7	0.30000000000000004	6	4	4.199999999999998	1.2000000000000002	valid	0.7498260840002331	53248	0	1	2	51200	0	51200	0	51200	0	0.7	51200	brown	green	1	0	ml	2.7.3	lorasick	sub-11_ses-01_task-ml_proj-lorasick_2021-02-23-14-11-26.323975
28	11	1	1	29	stable	1	200	29	sv	green	brown	brown	green	right	left	0.7	0.30000000000000004	2	10	1.4	3.0000000000000004	0	1	0.30000000000000004	0.7	10	2	3.0000000000000004	1.4	invalid	0.6331772189987532	51200	0	0	2	51200	1	53248	0	51200	1	0.7	53248	brown	green	0	10	ml	2.7.3	lorasick	sub-11_ses-01_task-ml_proj-lorasick_2021-02-23-14-11-26.323975
29	11	1	1	30	stable	1	200	30	sv	green	brown	brown	green	right	left	0.7	0.30000000000000004	2	10	1.4	3.0000000000000004	1	0	0.30000000000000004	0.7	10	2	3.0000000000000004	1.4	valid	0.4832212069995876	51200	0	0	2	51200	1	53248	0	51200	1	0.7	53248	brown	green	0	0	ml	2.7.3	lorasick	sub-11_ses-01_task-ml_proj-lorasick_2021-02-23-14-11-26.323975
30	11	1	1	31	stable	1	200	31	sv	brown	green	brown	green	left	right	0.7	0.30000000000000004	10	2	7.0	0.6000000000000001	1	0	0.7	0.30000000000000004	10	2	7.0	0.6000000000000001	valid	0.6831621389974316	51200	0	0	1	51200	1	51200	1	51200	1	0.7	51200	brown	green	1	10	ml	2.7.3	lorasick	sub-11_ses-01_task-ml_proj-lorasick_2021-02-23-14-11-26.323975
31	11	1	1	32	stable	1	200	32	sv	green	brown	brown	green	right	left	0.7	0.30000000000000004	6	4	4.199999999999998	1.2000000000000002	1	0	0.30000000000000004	0.7	4	6	1.2000000000000002	4.199999999999998	valid	0.666510074002872	53248	0	1	1	53248	1	53248	1	53248	1	0.7	53248	brown	green	1	6	ml	2.7.3	lorasick	sub-11_ses-01_task-ml_proj-lorasick_2021-02-23-14-11-26.323975
32	11	1	1	33	stable	1	200	33	sv	brown	green	brown	green	left	right	0.7	0.30000000000000004	4	6	2.8	1.8000000000000005	1	0	0.7	0.30000000000000004	4	6	2.8	1.8000000000000005	valid	0.7997981279986561	51200	0	0	1	51200	1	51200	1	53248	0	0.7	51200	brown	green	0	4	ml	2.7.3	lorasick	sub-11_ses-01_task-ml_proj-lorasick_2021-02-23-14-11-26.323975
33	11	1	1	34	stable	1	200	34	sv	brown	green	brown	green	left	right	0.7	0.30000000000000004	2	6	1.4	1.8000000000000005	1	0	0.7	0.30000000000000004	2	6	1.4	1.8000000000000005	valid	0.9164252499977009	53248	0	1	2	53248	1	51200	0	53248	1	0.7	51200	brown	green	0	0	ml	2.7.3	lorasick	sub-11_ses-01_task-ml_proj-lorasick_2021-02-23-14-11-26.323975
34	11	1	1	35	stable	1	200	35	sv	brown	green	brown	green	left	right	0.7	0.30000000000000004	2	4	1.4	1.2000000000000002	1	0	0.7	0.30000000000000004	2	4	1.4	1.2000000000000002	valid	1.0497268010003609	51200	0	0	1	51200	1	51200	1	53248	0	0.7	51200	brown	green	0	2	ml	2.7.3	lorasick	sub-11_ses-01_task-ml_proj-lorasick_2021-02-23-14-11-26.323975
35	11	1	1	36	stable	1	200	36	sv	green	brown	brown	green	right	left	0.7	0.30000000000000004	2	2	1.4	0.6000000000000001	1	0	0.30000000000000004	0.7	2	2	0.6000000000000001	1.4	valid	0.9664237010001672	53248	0	1	1	53248	1	53248	1	53248	1	0.7	53248	brown	green	0	2	ml	2.7.3	lorasick	sub-11_ses-01_task-ml_proj-lorasick_2021-02-23-14-11-26.323975
36	11	1	1	37	stable	1	200	37	sv	brown	green	brown	green	left	right	0.7	0.30000000000000004	4	2	2.8	0.6000000000000001	1	0	0.7	0.30000000000000004	4	2	2.8	0.6000000000000001	valid	0.6831640609998431	51200	0	0	1	51200	1	51200	1	51200	1	0.7	51200	brown	green	1	4	ml	2.7.3	lorasick	sub-11_ses-01_task-ml_proj-lorasick_2021-02-23-14-11-26.323975
37	11	1	1	38	stable	1	200	38	sv	brown	green	brown	green	left	right	0.7	0.30000000000000004	2	4	1.4	1.2000000000000002	1	0	0.7	0.30000000000000004	2	4	1.4	1.2000000000000002	valid	1.5495776790012314	51200	0	0	1	51200	1	51200	1	53248	0	0.7	51200	brown	green	0	2	ml	2.7.3	lorasick	sub-11_ses-01_task-ml_proj-lorasick_2021-02-23-14-11-26.323975
38	11	1	1	39	stable	1	200	39	sv	brown	green	brown	green	left	right	0.7	0.30000000000000004	6	4	4.199999999999998	1.2000000000000002	1	0	0.7	0.30000000000000004	6	4	4.199999999999998	1.2000000000000002	valid	0.5665286109979206	51200	0	0	1	51200	1	51200	1	51200	1	0.7	51200	brown	green	1	6	ml	2.7.3	lorasick	sub-11_ses-01_task-ml_proj-lorasick_2021-02-23-14-11-26.323975
39	11	1	1	40	stable	1	200	40	sv	brown	green	brown	green	left	right	0.7	0.30000000000000004	2	6	1.4	1.8000000000000005	1	0	0.7	0.30000000000000004	2	6	1.4	1.8000000000000005	valid	0.6498422889999347	53248	0	1	2	53248	1	51200	0	53248	1	0.7	51200	brown	green	0	0	ml	2.7.3	lorasick	sub-11_ses-01_task-ml_proj-lorasick_2021-02-23-14-11-26.323975
40	11	1	1	41	stable	1	200	41	sv	green	brown	brown	green	right	left	0.7	0.30000000000000004	6	6	4.199999999999998	1.8000000000000005	1	0	0.30000000000000004	0.7	6	6	1.8000000000000005	4.199999999999998	valid	0.8331283000006806	53248	0	1	1	53248	1	53248	1	53248	1	0.7	53248	brown	green	0	6	ml	2.7.3	lorasick	sub-11_ses-01_task-ml_proj-lorasick_2021-02-23-14-11-26.323975
41	11	1	1	42	stable	1	200	42	sv	brown	green	brown	green	left	right	0.7	0.30000000000000004	2	4	1.4	1.2000000000000002	1	0	0.7	0.30000000000000004	2	4	1.4	1.2000000000000002	valid	0.9497448680012894	51200	0	0	1	51200	1	51200	1	53248	0	0.7	51200	brown	green	0	2	ml	2.7.3	lorasick	sub-11_ses-01_task-ml_proj-lorasick_2021-02-23-14-11-26.323975
42	11	1	1	43	stable	1	200	43	sv	green	brown	brown	green	right	left	0.7	0.30000000000000004	10	2	7.0	0.6000000000000001	0	1	0.30000000000000004	0.7	2	10	0.6000000000000001	7.0	invalid	0.46656691899988795	53248	0	1	1	53248	1	53248	1	53248	1	0.7	53248	brown	green	1	0	ml	2.7.3	lorasick	sub-11_ses-01_task-ml_proj-lorasick_2021-02-23-14-11-26.323975
43	11	1	1	44	stable	1	200	44	sv	brown	green	brown	green	left	right	0.7	0.30000000000000004	6	2	4.199999999999998	0.6000000000000001	0	1	0.7	0.30000000000000004	6	2	4.199999999999998	0.6000000000000001	invalid	0.8997649949997141	51200	0	0	1	51200	1	51200	1	51200	1	0.7	51200	brown	green	1	0	ml	2.7.3	lorasick	sub-11_ses-01_task-ml_proj-lorasick_2021-02-23-14-11-26.323975
44	11	1	1	45	stable	1	200	45	sv	brown	green	brown	green	left	right	0.7	0.30000000000000004	6	6	4.199999999999998	1.8000000000000005	0	1	0.7	0.30000000000000004	6	6	4.199999999999998	1.8000000000000005	invalid	0.533212841997738	53248	0	1	2	51200	0	51200	0	53248	1	0.7	51200	brown	green	1	6	ml	2.7.3	lorasick	sub-11_ses-01_task-ml_proj-lorasick_2021-02-23-14-11-26.323975
45	11	1	1	46	stable	1	200	46	sv	green	brown	brown	green	right	left	0.7	0.30000000000000004	2	4	1.4	1.2000000000000002	1	0	0.30000000000000004	0.7	4	2	1.2000000000000002	1.4	valid	0.5498686659993837	51200	0	0	2	53248	0	53248	0	51200	1	0.7	53248	brown	green	0	0	ml	2.7.3	lorasick	sub-11_ses-01_task-ml_proj-lorasick_2021-02-23-14-11-26.323975
46	11	1	1	47	stable	1	200	47	sv	brown	green	brown	green	left	right	0.7	0.30000000000000004	6	4	4.199999999999998	1.2000000000000002	1	0	0.7	0.30000000000000004	6	4	4.199999999999998	1.2000000000000002	valid	0.6331875319992832	53248	0	1	2	51200	0	51200	0	51200	0	0.7	51200	brown	green	1	0	ml	2.7.3	lorasick	sub-11_ses-01_task-ml_proj-lorasick_2021-02-23-14-11-26.323975
47	11	1	1	48	stable	1	200	48	sv	green	brown	brown	green	right	left	0.7	0.30000000000000004	2	6	1.4	1.8000000000000005	1	0	0.30000000000000004	0.7	6	2	1.8000000000000005	1.4	valid	0.6331821339990711	51200	0	0	2	51200	1	53248	0	51200	1	0.7	53248	brown	green	0	0	ml	2.7.3	lorasick	sub-11_ses-01_task-ml_proj-lorasick_2021-02-23-14-11-26.323975
48	11	1	1	49	stable	1	200	49	sv	brown	green	brown	green	left	right	0.7	0.30000000000000004	2	4	1.4	1.2000000000000002	1	0	0.7	0.30000000000000004	2	4	1.4	1.2000000000000002	valid	0.9331065929982288	53248	0	1	2	51200	0	51200	0	53248	1	0.7	51200	brown	green	0	0	ml	2.7.3	lorasick	sub-11_ses-01_task-ml_proj-lorasick_2021-02-23-14-11-26.323975
49	11	1	1	50	stable	1	200	50	sv	brown	green	brown	green	left	right	0.7	0.30000000000000004	6	2	4.199999999999998	0.6000000000000001	1	0	0.7	0.30000000000000004	6	2	4.199999999999998	0.6000000000000001	valid	0.5498644580002292	51200	0	0	1	51200	1	51200	1	51200	1	0.7	51200	brown	green	1	6	ml	2.7.3	lorasick	sub-11_ses-01_task-ml_proj-lorasick_2021-02-23-14-11-26.323975
50	11	1	2	51	stable	1	200	51	sv	green	brown	brown	green	right	left	0.7	0.30000000000000004	6	6	4.199999999999998	1.8000000000000005	1	0	0.30000000000000004	0.7	6	6	1.8000000000000005	4.199999999999998	valid	0.566539568000735	53248	0	1	1	53248	1	53248	1	53248	1	0.7	53248	brown	green	0	6	ml	2.7.3	lorasick	sub-11_ses-01_task-ml_proj-lorasick_2021-02-23-14-11-26.323975
51	11	1	2	52	stable	1	200	52	sv	green	brown	brown	green	right	left	0.7	0.30000000000000004	6	4	4.199999999999998	1.2000000000000002	0	1	0.30000000000000004	0.7	4	6	1.2000000000000002	4.199999999999998	invalid	0.5165605219990539	53248	0	1	1	53248	1	53248	1	53248	1	0.7	53248	brown	green	1	0	ml	2.7.3	lorasick	sub-11_ses-01_task-ml_proj-lorasick_2021-02-23-14-11-26.323975
52	11	1	2	53	stable	1	200	53	sv	brown	green	brown	green	left	right	0.7	0.30000000000000004	4	2	2.8	0.6000000000000001	1	0	0.7	0.30000000000000004	4	2	2.8	0.6000000000000001	valid	0.5831912409994402	51200	0	0	1	51200	1	51200	1	51200	1	0.7	51200	brown	green	1	4	ml	2.7.3	lorasick	sub-11_ses-01_task-ml_proj-lorasick_2021-02-23-14-11-26.323975
53	11	1	2	54	stable	1	200	54	sv	green	brown	brown	green	right	left	0.7	0.30000000000000004	2	10	1.4	3.0000000000000004	0	1	0.30000000000000004	0.7	10	2	3.0000000000000004	1.4	invalid	0.8831027979977081	51200	0	0	2	51200	1	53248	0	51200	1	0.7	53248	brown	green	0	10	ml	2.7.3	lorasick	sub-11_ses-01_task-ml_proj-lorasick_2021-02-23-14-11-26.323975
54	11	1	2	55	stable	1	200	55	sv	brown	green	brown	green	left	right	0.7	0.30000000000000004	4	2	2.8	0.6000000000000001	0	1	0.7	0.30000000000000004	4	2	2.8	0.6000000000000001	invalid	0.7498075000003155	51200	0	0	1	51200	1	51200	1	51200	1	0.7	51200	brown	green	1	0	ml	2.7.3	lorasick	sub-11_ses-01_task-ml_proj-lorasick_2021-02-23-14-11-26.323975
55	11	1	2	56	stable	1	200	56	sv	brown	green	brown	green	left	right	0.7	0.30000000000000004	6	2	4.199999999999998	0.6000000000000001	0	1	0.7	0.30000000000000004	6	2	4.199999999999998	0.6000000000000001	invalid	0.7664698870030406	51200	0	0	1	51200	1	51200	1	51200	1	0.7	51200	brown	green	1	0	ml	2.7.3	lorasick	sub-11_ses-01_task-ml_proj-lorasick_2021-02-23-14-11-26.323975
56	11	1	2	57	stable	1	200	57	sv	brown	green	brown	green	left	right	0.7	0.30000000000000004	4	2	2.8	0.6000000000000001	1	0	0.7	0.30000000000000004	4	2	2.8	0.6000000000000001	valid	0.6165244750009151	53248	0	1	2	51200	0	51200	0	51200	0	0.7	51200	brown	green	1	0	ml	2.7.3	lorasick	sub-11_ses-01_task-ml_proj-lorasick_2021-02-23-14-11-26.323975
57	11	1	2	58	stable	1	200	58	sv	green	brown	brown	green	right	left	0.7	0.30000000000000004	2	2	1.4	0.6000000000000001	1	0	0.30000000000000004	0.7	2	2	0.6000000000000001	1.4	valid	1.2163495469976624	51200	0	0	2	53248	0	53248	0	53248	0	0.7	53248	brown	green	0	0	ml	2.7.3	lorasick	sub-11_ses-01_task-ml_proj-lorasick_2021-02-23-14-11-26.323975
58	11	1	2	59	stable	1	200	59	sv	green	brown	brown	green	right	left	0.7	0.30000000000000004	2	6	1.4	1.8000000000000005	1	0	0.30000000000000004	0.7	6	2	1.8000000000000005	1.4	valid	0.5665268209995702	51200	0	0	2	51200	1	53248	0	51200	1	0.7	53248	brown	green	0	0	ml	2.7.3	lorasick	sub-11_ses-01_task-ml_proj-lorasick_2021-02-23-14-11-26.323975
59	11	1	2	60	stable	1	200	60	sv	green	brown	brown	green	right	left	0.7	0.30000000000000004	2	6	1.4	1.8000000000000005	0	1	0.30000000000000004	0.7	6	2	1.8000000000000005	1.4	invalid	0.6998415699999896	53248	0	1	1	51200	0	53248	1	51200	0	0.7	53248	brown	green	0	0	ml	2.7.3	lorasick	sub-11_ses-01_task-ml_proj-lorasick_2021-02-23-14-11-26.323975
60	11	1	2	61	stable	1	200	61	sv	green	brown	brown	green	right	left	0.7	0.30000000000000004	4	6	2.8	1.8000000000000005	1	0	0.30000000000000004	0.7	6	4	1.8000000000000005	2.8	valid	0.5998524790011288	51200	0	0	2	53248	0	53248	0	51200	1	0.7	53248	brown	green	0	0	ml	2.7.3	lorasick	sub-11_ses-01_task-ml_proj-lorasick_2021-02-23-14-11-26.323975
61	11	1	2	62	stable	1	200	62	sv	green	brown	brown	green	right	left	0.7	0.30000000000000004	4	6	2.8	1.8000000000000005	1	0	0.30000000000000004	0.7	6	4	1.8000000000000005	2.8	valid	0.7664689570010523	51200	0	0	2	53248	0	53248	0	51200	1	0.7	53248	brown	green	0	0	ml	2.7.3	lorasick	sub-11_ses-01_task-ml_proj-lorasick_2021-02-23-14-11-26.323975
62	11	1	2	63	stable	1	200	63	sv	brown	green	brown	green	left	right	0.7	0.30000000000000004	10	2	7.0	0.6000000000000001	0	1	0.7	0.30000000000000004	10	2	7.0	0.6000000000000001	invalid	0.566520047999802	51200	0	0	1	51200	1	51200	1	51200	1	0.7	51200	brown	green	1	0	ml	2.7.3	lorasick	sub-11_ses-01_task-ml_proj-lorasick_2021-02-23-14-11-26.323975
63	11	1	2	64	stable	1	200	64	sv	green	brown	brown	green	right	left	0.7	0.30000000000000004	10	2	7.0	0.6000000000000001	1	0	0.30000000000000004	0.7	2	10	0.6000000000000001	7.0	valid	0.5665387760018348	53248	0	1	1	53248	1	53248	1	53248	1	0.7	53248	brown	green	1	10	ml	2.7.3	lorasick	sub-11_ses-01_task-ml_proj-lorasick_2021-02-23-14-11-26.323975
64	11	1	2	65	stable	1	200	65	sv	brown	green	brown	green	left	right	0.7	0.30000000000000004	4	2	2.8	0.6000000000000001	1	0	0.7	0.30000000000000004	4	2	2.8	0.6000000000000001	valid	0.599853821000579	51200	0	0	1	51200	1	51200	1	51200	1	0.7	51200	brown	green	1	4	ml	2.7.3	lorasick	sub-11_ses-01_task-ml_proj-lorasick_2021-02-23-14-11-26.323975
65	11	1	2	66	stable	1	200	66	sv	green	brown	brown	green	right	left	0.7	0.30000000000000004	2	6	1.4	1.8000000000000005	1	0	0.30000000000000004	0.7	6	2	1.8000000000000005	1.4	valid	1.2663234290012042	51200	0	0	2	51200	1	53248	0	51200	1	0.7	53248	brown	green	0	0	ml	2.7.3	lorasick	sub-11_ses-01_task-ml_proj-lorasick_2021-02-23-14-11-26.323975
66	11	1	2	67	stable	1	200	67	sv	green	brown	brown	green	right	left	0.7	0.30000000000000004	2	10	1.4	3.0000000000000004	1	0	0.30000000000000004	0.7	10	2	3.0000000000000004	1.4	valid	1.6328857660009817	51200	0	0	2	51200	1	53248	0	51200	1	0.7	53248	brown	green	0	0	ml	2.7.3	lorasick	sub-11_ses-01_task-ml_proj-lorasick_2021-02-23-14-11-26.323975
67	11	1	2	68	stable	1	200	68	sv	green	brown	brown	green	right	left	0.7	0.30000000000000004	10	2	7.0	0.6000000000000001	1	0	0.30000000000000004	0.7	2	10	0.6000000000000001	7.0	valid	0.6665187510006945	53248	0	1	1	53248	1	53248	1	53248	1	0.7	53248	brown	green	1	10	ml	2.7.3	lorasick	sub-11_ses-01_task-ml_proj-lorasick_2021-02-23-14-11-26.323975
68	11	1	2	69	stable	1	200	69	sv	brown	green	brown	green	left	right	0.7	0.30000000000000004	2	4	1.4	1.2000000000000002	1	0	0.7	0.30000000000000004	2	4	1.4	1.2000000000000002	valid	0.7998004620021675	51200	0	0	1	51200	1	51200	1	53248	0	0.7	51200	brown	green	0	2	ml	2.7.3	lorasick	sub-11_ses-01_task-ml_proj-lorasick_2021-02-23-14-11-26.323975
69	11	1	2	70	stable	1	200	70	sv	brown	green	brown	green	left	right	0.7	0.30000000000000004	2	2	1.4	0.6000000000000001	1	0	0.7	0.30000000000000004	2	2	1.4	0.6000000000000001	valid	0.6331767599986051	51200	0	0	1	51200	1	51200	1	53248	0	0.7	51200	brown	green	1	2	ml	2.7.3	lorasick	sub-11_ses-01_task-ml_proj-lorasick_2021-02-23-14-11-26.323975
70	11	1	2	71	stable	1	200	71	sv	green	brown	brown	green	right	left	0.7	0.30000000000000004	2	4	1.4	1.2000000000000002	0	1	0.30000000000000004	0.7	4	2	1.2000000000000002	1.4	invalid	0.8331219179999607	53248	0	1	1	53248	1	53248	1	51200	0	0.7	53248	brown	green	0	0	ml	2.7.3	lorasick	sub-11_ses-01_task-ml_proj-lorasick_2021-02-23-14-11-26.323975
71	11	1	2	72	stable	1	200	72	sv	green	brown	brown	green	right	left	0.7	0.30000000000000004	6	2	4.199999999999998	0.6000000000000001	1	0	0.30000000000000004	0.7	2	6	0.6000000000000001	4.199999999999998	valid	0.6665068440015602	53248	0	1	1	53248	1	53248	1	53248	1	0.7	53248	brown	green	1	6	ml	2.7.3	lorasick	sub-11_ses-01_task-ml_proj-lorasick_2021-02-23-14-11-26.323975
72	11	1	2	73	stable	1	200	73	sv	green	brown	brown	green	right	left	0.7	0.30000000000000004	2	2	1.4	0.6000000000000001	1	0	0.30000000000000004	0.7	2	2	0.6000000000000001	1.4	valid	0.5332154470015666	53248	0	1	1	53248	1	53248	1	53248	1	0.7	53248	brown	green	0	2	ml	2.7.3	lorasick	sub-11_ses-01_task-ml_proj-lorasick_2021-02-23-14-11-26.323975
73	11	1	2	74	stable	1	200	74	sv	green	brown	brown	green	right	left	0.7	0.30000000000000004	6	4	4.199999999999998	1.2000000000000002	1	0	0.30000000000000004	0.7	4	6	1.2000000000000002	4.199999999999998	valid	0.5831981470000756	53248	0	1	1	53248	1	53248	1	53248	1	0.7	53248	brown	green	1	6	ml	2.7.3	lorasick	sub-11_ses-01_task-ml_proj-lorasick_2021-02-23-14-11-26.323975
74	11	1	2	75	stable	1	200	75	sv	brown	green	brown	green	left	right	0.7	0.30000000000000004	10	2	7.0	0.6000000000000001	1	0	0.7	0.30000000000000004	10	2	7.0	0.6000000000000001	valid	0.5831901499986998	51200	0	0	1	51200	1	51200	1	51200	1	0.7	51200	brown	green	1	10	ml	2.7.3	lorasick	sub-11_ses-01_task-ml_proj-lorasick_2021-02-23-14-11-26.323975
75	11	1	2	76	stable	1	200	76	sv	green	brown	brown	green	right	left	0.7	0.30000000000000004	6	4	4.199999999999998	1.2000000000000002	0	1	0.30000000000000004	0.7	4	6	1.2000000000000002	4.199999999999998	invalid	0.5332154649986478	53248	0	1	1	53248	1	53248	1	53248	1	0.7	53248	brown	green	1	0	ml	2.7.3	lorasick	sub-11_ses-01_task-ml_proj-lorasick_2021-02-23-14-11-26.323975
76	11	1	2	77	stable	1	200	77	sv	brown	green	brown	green	left	right	0.7	0.30000000000000004	2	4	1.4	1.2000000000000002	1	0	0.7	0.30000000000000004	2	4	1.4	1.2000000000000002	valid	1.0163995460025037	51200	0	0	1	51200	1	51200	1	53248	0	0.7	51200	brown	green	0	2	ml	2.7.3	lorasick	sub-11_ses-01_task-ml_proj-lorasick_2021-02-23-14-11-26.323975
77	11	1	2	78	stable	1	200	78	sv	green	brown	brown	green	right	left	0.7	0.30000000000000004	10	2	7.0	0.6000000000000001	1	0	0.30000000000000004	0.7	2	10	0.6000000000000001	7.0	valid	0.5165530539998144	53248	0	1	1	53248	1	53248	1	53248	1	0.7	53248	brown	green	1	10	ml	2.7.3	lorasick	sub-11_ses-01_task-ml_proj-lorasick_2021-02-23-14-11-26.323975
78	11	1	2	79	stable	1	200	79	sv	green	brown	brown	green	right	left	0.7	0.30000000000000004	2	10	1.4	3.0000000000000004	1	0	0.30000000000000004	0.7	10	2	3.0000000000000004	1.4	valid	1.316311044000031	51200	0	0	2	51200	1	53248	0	51200	1	0.7	53248	brown	green	0	0	ml	2.7.3	lorasick	sub-11_ses-01_task-ml_proj-lorasick_2021-02-23-14-11-26.323975
79	11	1	2	80	stable	1	200	80	sv	brown	green	brown	green	left	right	0.7	0.30000000000000004	4	2	2.8	0.6000000000000001	0	1	0.7	0.30000000000000004	4	2	2.8	0.6000000000000001	invalid	0.8164563130012539	51200	0	0	1	51200	1	51200	1	51200	1	0.7	51200	brown	green	1	0	ml	2.7.3	lorasick	sub-11_ses-01_task-ml_proj-lorasick_2021-02-23-14-11-26.323975
80	11	1	2	81	stable	1	200	81	sv	green	brown	brown	green	right	left	0.7	0.30000000000000004	2	10	1.4	3.0000000000000004	1	0	0.30000000000000004	0.7	10	2	3.0000000000000004	1.4	valid	0.7331483460002346	51200	0	0	2	51200	1	53248	0	51200	1	0.7	53248	brown	green	0	0	ml	2.7.3	lorasick	sub-11_ses-01_task-ml_proj-lorasick_2021-02-23-14-11-26.323975
81	11	1	2	82	stable	1	200	82	sv	brown	green	brown	green	left	right	0.7	0.30000000000000004	2	2	1.4	0.6000000000000001	1	0	0.7	0.30000000000000004	2	2	1.4	0.6000000000000001	valid	0.8664392629980284	51200	0	0	1	51200	1	51200	1	53248	0	0.7	51200	brown	green	1	2	ml	2.7.3	lorasick	sub-11_ses-01_task-ml_proj-lorasick_2021-02-23-14-11-26.323975
82	11	1	2	83	stable	1	200	83	sv	brown	green	brown	green	left	right	0.7	0.30000000000000004	4	6	2.8	1.8000000000000005	1	0	0.7	0.30000000000000004	4	6	2.8	1.8000000000000005	valid	0.5831895750015974	51200	0	0	1	51200	1	51200	1	53248	0	0.7	51200	brown	green	0	4	ml	2.7.3	lorasick	sub-11_ses-01_task-ml_proj-lorasick_2021-02-23-14-11-26.323975
83	11	1	2	84	stable	1	200	84	sv	green	brown	brown	green	right	left	0.7	0.30000000000000004	6	2	4.199999999999998	0.6000000000000001	0	1	0.30000000000000004	0.7	2	6	0.6000000000000001	4.199999999999998	invalid	0.5998637939992477	53248	0	1	1	53248	1	53248	1	53248	1	0.7	53248	brown	green	1	0	ml	2.7.3	lorasick	sub-11_ses-01_task-ml_proj-lorasick_2021-02-23-14-11-26.323975
84	11	1	2	85	stable	1	200	85	sv	green	brown	brown	green	right	left	0.7	0.30000000000000004	10	2	7.0	0.6000000000000001	1	0	0.30000000000000004	0.7	2	10	0.6000000000000001	7.0	valid	0.5831989530015562	53248	0	1	1	53248	1	53248	1	53248	1	0.7	53248	brown	green	1	10	ml	2.7.3	lorasick	sub-11_ses-01_task-ml_proj-lorasick_2021-02-23-14-11-26.323975
85	11	1	2	86	stable	1	200	86	sv	green	brown	brown	green	right	left	0.7	0.30000000000000004	6	4	4.199999999999998	1.2000000000000002	1	0	0.30000000000000004	0.7	4	6	1.2000000000000002	4.199999999999998	valid	0.5498831960030657	53248	0	1	1	53248	1	53248	1	53248	1	0.7	53248	brown	green	1	6	ml	2.7.3	lorasick	sub-11_ses-01_task-ml_proj-lorasick_2021-02-23-14-11-26.323975
86	11	1	2	87	stable	1	200	87	sv	brown	green	brown	green	left	right	0.7	0.30000000000000004	2	4	1.4	1.2000000000000002	0	1	0.7	0.30000000000000004	2	4	1.4	1.2000000000000002	invalid	1.6662243800019496	53248	0	1	2	51200	0	51200	0	53248	1	0.7	51200	brown	green	0	4	ml	2.7.3	lorasick	sub-11_ses-01_task-ml_proj-lorasick_2021-02-23-14-11-26.323975
87	11	1	2	88	stable	1	200	88	sv	brown	green	brown	green	left	right	0.7	0.30000000000000004	2	10	1.4	3.0000000000000004	1	0	0.7	0.30000000000000004	2	10	1.4	3.0000000000000004	valid	0.5665389779969701	53248	0	1	2	53248	1	51200	0	53248	1	0.7	51200	brown	green	0	0	ml	2.7.3	lorasick	sub-11_ses-01_task-ml_proj-lorasick_2021-02-23-14-11-26.323975
88	11	1	2	89	stable	1	200	89	sv	green	brown	brown	green	right	left	0.7	0.30000000000000004	2	10	1.4	3.0000000000000004	1	0	0.30000000000000004	0.7	10	2	3.0000000000000004	1.4	valid	0.5498676800016256	51200	0	0	2	51200	1	53248	0	51200	1	0.7	53248	brown	green	0	0	ml	2.7.3	lorasick	sub-11_ses-01_task-ml_proj-lorasick_2021-02-23-14-11-26.323975
89	11	1	2	90	stable	1	200	90	sv	green	brown	brown	green	right	left	0.7	0.30000000000000004	4	6	2.8	1.8000000000000005	1	0	0.30000000000000004	0.7	6	4	1.8000000000000005	2.8	valid	0.8331169880002562	53248	0	1	1	53248	1	53248	1	51200	0	0.7	53248	brown	green	0	4	ml	2.7.3	lorasick	sub-11_ses-01_task-ml_proj-lorasick_2021-02-23-14-11-26.323975
90	11	1	2	91	stable	1	200	91	sv	green	brown	brown	green	right	left	0.7	0.30000000000000004	6	2	4.199999999999998	0.6000000000000001	1	0	0.30000000000000004	0.7	2	6	0.6000000000000001	4.199999999999998	valid	0.5498773489998712	53248	0	1	1	53248	1	53248	1	53248	1	0.7	53248	brown	green	1	6	ml	2.7.3	lorasick	sub-11_ses-01_task-ml_proj-lorasick_2021-02-23-14-11-26.323975
91	11	1	2	92	stable	1	200	92	sv	green	brown	brown	green	right	left	0.7	0.30000000000000004	10	2	7.0	0.6000000000000001	1	0	0.30000000000000004	0.7	2	10	0.6000000000000001	7.0	valid	0.5498805369970796	53248	0	1	1	53248	1	53248	1	53248	1	0.7	53248	brown	green	1	10	ml	2.7.3	lorasick	sub-11_ses-01_task-ml_proj-lorasick_2021-02-23-14-11-26.323975
92	11	1	2	93	stable	1	200	93	sv	green	brown	brown	green	right	left	0.7	0.30000000000000004	4	6	2.8	1.8000000000000005	0	1	0.30000000000000004	0.7	6	4	1.8000000000000005	2.8	invalid	1.5329271899972812	53248	0	1	1	53248	1	53248	1	51200	0	0.7	53248	brown	green	0	0	ml	2.7.3	lorasick	sub-11_ses-01_task-ml_proj-lorasick_2021-02-23-14-11-26.323975
93	11	1	2	94	stable	1	200	94	sv	green	brown	brown	green	right	left	0.7	0.30000000000000004	2	2	1.4	0.6000000000000001	1	0	0.30000000000000004	0.7	2	2	0.6000000000000001	1.4	valid	1.582905489998666	51200	0	0	2	53248	0	53248	0	53248	0	0.7	53248	brown	green	0	0	ml	2.7.3	lorasick	sub-11_ses-01_task-ml_proj-lorasick_2021-02-23-14-11-26.323975
94	11	1	2	95	stable	1	200	95	sv	green	brown	brown	green	right	left	0.7	0.30000000000000004	4	2	2.8	0.6000000000000001	1	0	0.30000000000000004	0.7	2	4	0.6000000000000001	2.8	valid	0.7831418219975603	53248	0	1	1	53248	1	53248	1	53248	1	0.7	53248	brown	green	1	4	ml	2.7.3	lorasick	sub-11_ses-01_task-ml_proj-lorasick_2021-02-23-14-11-26.323975
95	11	1	2	96	stable	1	200	96	sv	brown	green	brown	green	left	right	0.7	0.30000000000000004	4	6	2.8	1.8000000000000005	1	0	0.7	0.30000000000000004	4	6	2.8	1.8000000000000005	valid	0.999734573000751	51200	0	0	1	51200	1	51200	1	53248	0	0.7	51200	brown	green	0	4	ml	2.7.3	lorasick	sub-11_ses-01_task-ml_proj-lorasick_2021-02-23-14-11-26.323975
96	11	1	2	97	stable	1	200	97	sv	brown	green	brown	green	left	right	0.7	0.30000000000000004	6	6	4.199999999999998	1.8000000000000005	1	0	0.7	0.30000000000000004	6	6	4.199999999999998	1.8000000000000005	valid	0.6331787899980554	51200	0	0	1	51200	1	51200	1	53248	0	0.7	51200	brown	green	1	6	ml	2.7.3	lorasick	sub-11_ses-01_task-ml_proj-lorasick_2021-02-23-14-11-26.323975
97	11	1	2	98	stable	1	200	98	sv	brown	green	brown	green	left	right	0.7	0.30000000000000004	2	2	1.4	0.6000000000000001	1	0	0.7	0.30000000000000004	2	2	1.4	0.6000000000000001	valid	0.7831294469979184	51200	0	0	1	51200	1	51200	1	53248	0	0.7	51200	brown	green	1	2	ml	2.7.3	lorasick	sub-11_ses-01_task-ml_proj-lorasick_2021-02-23-14-11-26.323975
98	11	1	2	99	stable	1	200	99	sv	green	brown	brown	green	right	left	0.7	0.30000000000000004	6	6	4.199999999999998	1.8000000000000005	0	1	0.30000000000000004	0.7	6	6	1.8000000000000005	4.199999999999998	invalid	0.5665373270021519	53248	0	1	1	53248	1	53248	1	53248	1	0.7	53248	brown	green	0	0	ml	2.7.3	lorasick	sub-11_ses-01_task-ml_proj-lorasick_2021-02-23-14-11-26.323975
99	11	1	2	100	stable	1	200	100	sv	brown	green	brown	green	left	right	0.7	0.30000000000000004	10	2	7.0	0.6000000000000001	1	0	0.7	0.30000000000000004	10	2	7.0	0.6000000000000001	valid	0.5831896809977479	51200	0	0	1	51200	1	51200	1	51200	1	0.7	51200	brown	green	1	10	ml	2.7.3	lorasick	sub-11_ses-01_task-ml_proj-lorasick_2021-02-23-14-11-26.323975
100	11	1	3	101	stable	1	200	101	sv	brown	green	brown	green	left	right	0.7	0.30000000000000004	4	6	2.8	1.8000000000000005	1	0	0.7	0.30000000000000004	4	6	2.8	1.8000000000000005	valid	1.0663949919980948	53248	0	1	2	51200	0	51200	0	53248	1	0.7	51200	brown	green	0	0	ml	2.7.3	lorasick	sub-11_ses-01_task-ml_proj-lorasick_2021-02-23-14-11-26.323975
101	11	1	3	102	stable	1	200	102	sv	green	brown	brown	green	right	left	0.7	0.30000000000000004	4	6	2.8	1.8000000000000005	0	1	0.30000000000000004	0.7	6	4	1.8000000000000005	2.8	invalid	0.6498447399972065	51200	0	0	2	53248	0	53248	0	51200	1	0.7	53248	brown	green	0	6	ml	2.7.3	lorasick	sub-11_ses-01_task-ml_proj-lorasick_2021-02-23-14-11-26.323975
102	11	1	3	103	stable	1	200	103	sv	green	brown	brown	green	right	left	0.7	0.30000000000000004	2	6	1.4	1.8000000000000005	1	0	0.30000000000000004	0.7	6	2	1.8000000000000005	1.4	valid	0.5665291679979418	51200	0	0	2	51200	1	53248	0	51200	1	0.7	53248	brown	green	0	0	ml	2.7.3	lorasick	sub-11_ses-01_task-ml_proj-lorasick_2021-02-23-14-11-26.323975
103	11	1	3	104	stable	1	200	104	sv	green	brown	brown	green	right	left	0.7	0.30000000000000004	6	4	4.199999999999998	1.2000000000000002	1	0	0.30000000000000004	0.7	4	6	1.2000000000000002	4.199999999999998	valid	0.6665097139994032	53248	0	1	1	53248	1	53248	1	53248	1	0.7	53248	brown	green	1	6	ml	2.7.3	lorasick	sub-11_ses-01_task-ml_proj-lorasick_2021-02-23-14-11-26.323975
104	11	1	3	105	stable	1	200	105	sv	green	brown	brown	green	right	left	0.7	0.30000000000000004	4	2	2.8	0.6000000000000001	0	1	0.30000000000000004	0.7	2	4	0.6000000000000001	2.8	invalid	0.7664810869973735	53248	0	1	1	53248	1	53248	1	53248	1	0.7	53248	brown	green	1	0	ml	2.7.3	lorasick	sub-11_ses-01_task-ml_proj-lorasick_2021-02-23-14-11-26.323975
105	11	1	3	106	stable	1	200	106	sv	brown	green	brown	green	left	right	0.7	0.30000000000000004	4	6	2.8	1.8000000000000005	1	0	0.7	0.30000000000000004	4	6	2.8	1.8000000000000005	valid	1.0997086630013655	51200	0	0	1	51200	1	51200	1	53248	0	0.7	51200	brown	green	0	4	ml	2.7.3	lorasick	sub-11_ses-01_task-ml_proj-lorasick_2021-02-23-14-11-26.323975
106	11	1	3	107	stable	1	200	107	sv	green	brown	brown	green	right	left	0.7	0.30000000000000004	6	6	4.199999999999998	1.8000000000000005	1	0	0.30000000000000004	0.7	6	6	1.8000000000000005	4.199999999999998	valid	0.5998646810003265	53248	0	1	1	53248	1	53248	1	53248	1	0.7	53248	brown	green	0	6	ml	2.7.3	lorasick	sub-11_ses-01_task-ml_proj-lorasick_2021-02-23-14-11-26.323975
107	11	1	3	108	stable	1	200	108	sv	brown	green	brown	green	left	right	0.7	0.30000000000000004	2	6	1.4	1.8000000000000005	0	1	0.7	0.30000000000000004	2	6	1.4	1.8000000000000005	invalid	0.9331021479993068	53248	0	1	2	53248	1	51200	0	53248	1	0.7	51200	brown	green	0	6	ml	2.7.3	lorasick	sub-11_ses-01_task-ml_proj-lorasick_2021-02-23-14-11-26.323975
108	11	1	3	109	stable	1	200	109	sv	green	brown	brown	green	right	left	0.7	0.30000000000000004	6	2	4.199999999999998	0.6000000000000001	1	0	0.30000000000000004	0.7	2	6	0.6000000000000001	4.199999999999998	valid	0.799807713003247	53248	0	1	1	53248	1	53248	1	53248	1	0.7	53248	brown	green	1	6	ml	2.7.3	lorasick	sub-11_ses-01_task-ml_proj-lorasick_2021-02-23-14-11-26.323975
109	11	1	3	110	stable	1	200	110	sv	green	brown	brown	green	right	left	0.7	0.30000000000000004	6	6	4.199999999999998	1.8000000000000005	1	0	0.30000000000000004	0.7	6	6	1.8000000000000005	4.199999999999998	valid	1.0497395200000028	53248	0	1	1	53248	1	53248	1	53248	1	0.7	53248	brown	green	0	6	ml	2.7.3	lorasick	sub-11_ses-01_task-ml_proj-lorasick_2021-02-23-14-11-26.323975
110	11	1	3	111	stable	1	200	111	sv	brown	green	brown	green	left	right	0.7	0.30000000000000004	2	6	1.4	1.8000000000000005	1	0	0.7	0.30000000000000004	2	6	1.4	1.8000000000000005	valid	0.7498271990007197	53248	0	1	2	53248	1	51200	0	53248	1	0.7	51200	brown	green	0	0	ml	2.7.3	lorasick	sub-11_ses-01_task-ml_proj-lorasick_2021-02-23-14-11-26.323975
111	11	1	3	112	stable	1	200	112	sv	brown	green	brown	green	left	right	0.7	0.30000000000000004	4	2	2.8	0.6000000000000001	1	0	0.7	0.30000000000000004	4	2	2.8	0.6000000000000001	valid	0.6664998399974138	51200	0	0	1	51200	1	51200	1	51200	1	0.7	51200	brown	green	1	4	ml	2.7.3	lorasick	sub-11_ses-01_task-ml_proj-lorasick_2021-02-23-14-11-26.323975
112	11	1	3	113	stable	1	200	113	sv	green	brown	brown	green	right	left	0.7	0.30000000000000004	6	6	4.199999999999998	1.8000000000000005	0	1	0.30000000000000004	0.7	6	6	1.8000000000000005	4.199999999999998	invalid	0.8664518160003354	53248	0	1	1	53248	1	53248	1	53248	1	0.7	53248	brown	green	0	0	ml	2.7.3	lorasick	sub-11_ses-01_task-ml_proj-lorasick_2021-02-23-14-11-26.323975
113	11	1	3	114	stable	1	200	114	sv	green	brown	brown	green	right	left	0.7	0.30000000000000004	4	6	2.8	1.8000000000000005	1	0	0.30000000000000004	0.7	6	4	1.8000000000000005	2.8	valid	1.1663597040023888	51200	0	0	2	53248	0	53248	0	51200	1	0.7	53248	brown	green	0	0	ml	2.7.3	lorasick	sub-11_ses-01_task-ml_proj-lorasick_2021-02-23-14-11-26.323975
114	11	1	3	115	stable	1	200	115	sv	brown	green	brown	green	left	right	0.7	0.30000000000000004	6	4	4.199999999999998	1.2000000000000002	0	1	0.7	0.30000000000000004	6	4	4.199999999999998	1.2000000000000002	invalid	0.7664701660032733	51200	0	0	1	51200	1	51200	1	51200	1	0.7	51200	brown	green	1	0	ml	2.7.3	lorasick	sub-11_ses-01_task-ml_proj-lorasick_2021-02-23-14-11-26.323975
115	11	1	3	116	stable	1	200	116	sv	brown	green	brown	green	left	right	0.7	0.30000000000000004	4	2	2.8	0.6000000000000001	0	1	0.7	0.30000000000000004	4	2	2.8	0.6000000000000001	invalid	1.4496042630016746	51200	0	0	1	51200	1	51200	1	51200	1	0.7	51200	brown	green	1	0	ml	2.7.3	lorasick	sub-11_ses-01_task-ml_proj-lorasick_2021-02-23-14-11-26.323975
116	11	1	3	117	stable	1	200	117	sv	brown	green	brown	green	left	right	0.7	0.30000000000000004	6	4	4.199999999999998	1.2000000000000002	1	0	0.7	0.30000000000000004	6	4	4.199999999999998	1.2000000000000002	valid	0.5665390350004599	53248	0	1	2	51200	0	51200	0	51200	0	0.7	51200	brown	green	1	0	ml	2.7.3	lorasick	sub-11_ses-01_task-ml_proj-lorasick_2021-02-23-14-11-26.323975
117	11	1	3	118	stable	1	200	118	sv	brown	green	brown	green	left	right	0.7	0.30000000000000004	4	6	2.8	1.8000000000000005	0	1	0.7	0.30000000000000004	4	6	2.8	1.8000000000000005	invalid	0.5831993199972203	53248	0	1	2	51200	0	51200	0	53248	1	0.7	51200	brown	green	0	6	ml	2.7.3	lorasick	sub-11_ses-01_task-ml_proj-lorasick_2021-02-23-14-11-26.323975
118	11	1	3	119	stable	1	200	119	sv	brown	green	brown	green	left	right	0.7	0.30000000000000004	6	6	4.199999999999998	1.8000000000000005	1	0	0.7	0.30000000000000004	6	6	4.199999999999998	1.8000000000000005	valid	0.4832313150000118	53248	0	1	2	51200	0	51200	0	53248	1	0.7	51200	brown	green	1	0	ml	2.7.3	lorasick	sub-11_ses-01_task-ml_proj-lorasick_2021-02-23-14-11-26.323975
119	11	1	3	120	stable	1	200	120	sv	green	brown	brown	green	right	left	0.7	0.30000000000000004	6	4	4.199999999999998	1.2000000000000002	1	0	0.30000000000000004	0.7	4	6	1.2000000000000002	4.199999999999998	valid	0.7331537630016101	53248	0	1	1	53248	1	53248	1	53248	1	0.7	53248	brown	green	1	6	ml	2.7.3	lorasick	sub-11_ses-01_task-ml_proj-lorasick_2021-02-23-14-11-26.323975
120	11	1	3	121	stable	1	200	121	sv	green	brown	brown	green	right	left	0.7	0.30000000000000004	2	6	1.4	1.8000000000000005	0	1	0.30000000000000004	0.7	6	2	1.8000000000000005	1.4	invalid	0.7997948310003267	51200	0	0	2	51200	1	53248	0	51200	1	0.7	53248	brown	green	0	6	ml	2.7.3	lorasick	sub-11_ses-01_task-ml_proj-lorasick_2021-02-23-14-11-26.323975
121	11	1	3	122	stable	1	200	122	sv	green	brown	brown	green	right	left	0.7	0.30000000000000004	4	2	2.8	0.6000000000000001	1	0	0.30000000000000004	0.7	2	4	0.6000000000000001	2.8	valid	0.6831706779994421	53248	0	1	1	53248	1	53248	1	53248	1	0.7	53248	brown	green	1	4	ml	2.7.3	lorasick	sub-11_ses-01_task-ml_proj-lorasick_2021-02-23-14-11-26.323975
122	11	1	3	123	stable	1	200	123	sv	brown	green	brown	green	left	right	0.7	0.30000000000000004	6	2	4.199999999999998	0.6000000000000001	1	0	0.7	0.30000000000000004	6	2	4.199999999999998	0.6000000000000001	valid	0.599850863996835	51200	0	0	1	51200	1	51200	1	51200	1	0.7	51200	brown	green	1	6	ml	2.7.3	lorasick	sub-11_ses-01_task-ml_proj-lorasick_2021-02-23-14-11-26.323975
123	11	1	3	124	stable	1	200	124	sv	green	brown	brown	green	right	left	0.7	0.30000000000000004	2	4	1.4	1.2000000000000002	0	1	0.30000000000000004	0.7	4	2	1.2000000000000002	1.4	invalid	0.7664715099999739	51200	0	0	2	53248	0	53248	0	51200	1	0.7	53248	brown	green	0	4	ml	2.7.3	lorasick	sub-11_ses-01_task-ml_proj-lorasick_2021-02-23-14-11-26.323975
124	11	1	3	125	stable	1	200	125	sv	brown	green	brown	green	left	right	0.7	0.30000000000000004	2	2	1.4	0.6000000000000001	0	1	0.7	0.30000000000000004	2	2	1.4	0.6000000000000001	invalid	1.44959771700087	51200	0	0	1	51200	1	51200	1	53248	0	0.7	51200	brown	green	1	0	ml	2.7.3	lorasick	sub-11_ses-01_task-ml_proj-lorasick_2021-02-23-14-11-26.323975
125	11	1	3	126	stable	1	200	126	sv	green	brown	brown	green	right	left	0.7	0.30000000000000004	2	10	1.4	3.0000000000000004	1	0	0.30000000000000004	0.7	10	2	3.0000000000000004	1.4	valid	0.4998804449969612	51200	0	0	2	51200	1	53248	0	51200	1	0.7	53248	brown	green	0	0	ml	2.7.3	lorasick	sub-11_ses-01_task-ml_proj-lorasick_2021-02-23-14-11-26.323975
126	11	1	3	127	stable	1	200	127	sv	brown	green	brown	green	left	right	0.7	0.30000000000000004	2	4	1.4	1.2000000000000002	1	0	0.7	0.30000000000000004	2	4	1.4	1.2000000000000002	valid	0.7164960170011909	53248	0	1	2	51200	0	51200	0	53248	1	0.7	51200	brown	green	0	0	ml	2.7.3	lorasick	sub-11_ses-01_task-ml_proj-lorasick_2021-02-23-14-11-26.323975
127	11	1	3	128	stable	1	200	128	sv	brown	green	brown	green	left	right	0.7	0.30000000000000004	6	6	4.199999999999998	1.8000000000000005	1	0	0.7	0.30000000000000004	6	6	4.199999999999998	1.8000000000000005	valid	1.1996774489998645	51200	0	0	1	51200	1	51200	1	53248	0	0.7	51200	brown	green	1	6	ml	2.7.3	lorasick	sub-11_ses-01_task-ml_proj-lorasick_2021-02-23-14-11-26.323975
128	11	1	3	129	stable	1	200	129	sv	green	brown	brown	green	right	left	0.7	0.30000000000000004	2	10	1.4	3.0000000000000004	0	1	0.30000000000000004	0.7	10	2	3.0000000000000004	1.4	invalid	0.6831601940029941	51200	0	0	2	51200	1	53248	0	51200	1	0.7	53248	brown	green	0	10	ml	2.7.3	lorasick	sub-11_ses-01_task-ml_proj-lorasick_2021-02-23-14-11-26.323975
129	11	1	3	130	stable	1	200	130	sv	green	brown	brown	green	right	left	0.7	0.30000000000000004	4	2	2.8	0.6000000000000001	1	0	0.30000000000000004	0.7	2	4	0.6000000000000001	2.8	valid	0.5831989199978125	53248	0	1	1	53248	1	53248	1	53248	1	0.7	53248	brown	green	1	4	ml	2.7.3	lorasick	sub-11_ses-01_task-ml_proj-lorasick_2021-02-23-14-11-26.323975
130	11	1	3	131	stable	1	200	131	sv	brown	green	brown	green	left	right	0.7	0.30000000000000004	2	10	1.4	3.0000000000000004	1	0	0.7	0.30000000000000004	2	10	1.4	3.0000000000000004	valid	0.5165558030021202	53248	0	1	2	53248	1	51200	0	53248	1	0.7	51200	brown	green	0	0	ml	2.7.3	lorasick	sub-11_ses-01_task-ml_proj-lorasick_2021-02-23-14-11-26.323975
131	11	1	3	132	stable	1	200	132	sv	brown	green	brown	green	left	right	0.7	0.30000000000000004	2	6	1.4	1.8000000000000005	0	1	0.7	0.30000000000000004	2	6	1.4	1.8000000000000005	invalid	0.7164966989985259	53248	0	1	2	53248	1	51200	0	53248	1	0.7	51200	brown	green	0	6	ml	2.7.3	lorasick	sub-11_ses-01_task-ml_proj-lorasick_2021-02-23-14-11-26.323975
132	11	1	3	133	stable	1	200	133	sv	green	brown	brown	green	right	left	0.7	0.30000000000000004	2	6	1.4	1.8000000000000005	0	1	0.30000000000000004	0.7	6	2	1.8000000000000005	1.4	invalid	0.6331738730004872	51200	0	0	2	51200	1	53248	0	51200	1	0.7	53248	brown	green	0	6	ml	2.7.3	lorasick	sub-11_ses-01_task-ml_proj-lorasick_2021-02-23-14-11-26.323975
133	11	1	3	134	stable	1	200	134	sv	brown	green	brown	green	left	right	0.7	0.30000000000000004	2	2	1.4	0.6000000000000001	0	1	0.7	0.30000000000000004	2	2	1.4	0.6000000000000001	invalid	0.8997621210000943	51200	0	0	1	51200	1	51200	1	53248	0	0.7	51200	brown	green	1	0	ml	2.7.3	lorasick	sub-11_ses-01_task-ml_proj-lorasick_2021-02-23-14-11-26.323975
134	11	1	3	135	stable	1	200	135	sv	green	brown	brown	green	right	left	0.7	0.30000000000000004	2	2	1.4	0.6000000000000001	1	0	0.30000000000000004	0.7	2	2	0.6000000000000001	1.4	valid	1.0663931130002309	53248	0	1	1	53248	1	53248	1	53248	1	0.7	53248	brown	green	0	2	ml	2.7.3	lorasick	sub-11_ses-01_task-ml_proj-lorasick_2021-02-23-14-11-26.323975
135	11	1	3	136	stable	1	200	136	sv	green	brown	brown	green	right	left	0.7	0.30000000000000004	6	6	4.199999999999998	1.8000000000000005	0	1	0.30000000000000004	0.7	6	6	1.8000000000000005	4.199999999999998	invalid	0.6665096510005242	53248	0	1	1	53248	1	53248	1	53248	1	0.7	53248	brown	green	0	0	ml	2.7.3	lorasick	sub-11_ses-01_task-ml_proj-lorasick_2021-02-23-14-11-26.323975
136	11	1	3	137	stable	1	200	137	sv	brown	green	brown	green	left	right	0.7	0.30000000000000004	6	6	4.199999999999998	1.8000000000000005	1	0	0.7	0.30000000000000004	6	6	4.199999999999998	1.8000000000000005	valid	0.6498477900022408	53248	0	1	2	51200	0	51200	0	53248	1	0.7	51200	brown	green	1	0	ml	2.7.3	lorasick	sub-11_ses-01_task-ml_proj-lorasick_2021-02-23-14-11-26.323975
137	11	1	3	138	stable	1	200	138	sv	brown	green	brown	green	left	right	0.7	0.30000000000000004	4	2	2.8	0.6000000000000001	1	0	0.7	0.30000000000000004	4	2	2.8	0.6000000000000001	valid	0.7664728969975841	51200	0	0	1	51200	1	51200	1	51200	1	0.7	51200	brown	green	1	4	ml	2.7.3	lorasick	sub-11_ses-01_task-ml_proj-lorasick_2021-02-23-14-11-26.323975
138	11	1	3	139	stable	1	200	139	sv	brown	green	brown	green	left	right	0.7	0.30000000000000004	4	2	2.8	0.6000000000000001	1	0	0.7	0.30000000000000004	4	2	2.8	0.6000000000000001	valid	0.566528527000628	51200	0	0	1	51200	1	51200	1	51200	1	0.7	51200	brown	green	1	4	ml	2.7.3	lorasick	sub-11_ses-01_task-ml_proj-lorasick_2021-02-23-14-11-26.323975
139	11	1	3	140	stable	1	200	140	sv	green	brown	brown	green	right	left	0.7	0.30000000000000004	6	4	4.199999999999998	1.2000000000000002	0	1	0.30000000000000004	0.7	4	6	1.2000000000000002	4.199999999999998	invalid	0.5998640519974288	53248	0	1	1	53248	1	53248	1	53248	1	0.7	53248	brown	green	1	0	ml	2.7.3	lorasick	sub-11_ses-01_task-ml_proj-lorasick_2021-02-23-14-11-26.323975
140	11	1	3	141	stable	1	200	141	sv	brown	green	brown	green	left	right	0.7	0.30000000000000004	2	2	1.4	0.6000000000000001	1	0	0.7	0.30000000000000004	2	2	1.4	0.6000000000000001	valid	0.9830849239988312	53248	0	1	2	51200	0	51200	0	53248	1	0.7	51200	brown	green	1	0	ml	2.7.3	lorasick	sub-11_ses-01_task-ml_proj-lorasick_2021-02-23-14-11-26.323975
141	11	1	3	142	stable	1	200	142	sv	brown	green	brown	green	left	right	0.7	0.30000000000000004	4	6	2.8	1.8000000000000005	0	1	0.7	0.30000000000000004	4	6	2.8	1.8000000000000005	invalid	0.7664702260008198	51200	0	0	1	51200	1	51200	1	53248	0	0.7	51200	brown	green	0	0	ml	2.7.3	lorasick	sub-11_ses-01_task-ml_proj-lorasick_2021-02-23-14-11-26.323975
142	11	1	3	143	stable	1	200	143	sv	brown	green	brown	green	left	right	0.7	0.30000000000000004	6	4	4.199999999999998	1.2000000000000002	1	0	0.7	0.30000000000000004	6	4	4.199999999999998	1.2000000000000002	valid	0.583174423998571	51200	0	0	1	51200	1	51200	1	51200	1	0.7	51200	brown	green	1	6	ml	2.7.3	lorasick	sub-11_ses-01_task-ml_proj-lorasick_2021-02-23-14-11-26.323975
143	11	1	3	144	stable	1	200	144	sv	brown	green	brown	green	left	right	0.7	0.30000000000000004	6	2	4.199999999999998	0.6000000000000001	0	1	0.7	0.30000000000000004	6	2	4.199999999999998	0.6000000000000001	invalid	0.4832215739988897	51200	0	0	1	51200	1	51200	1	51200	1	0.7	51200	brown	green	1	0	ml	2.7.3	lorasick	sub-11_ses-01_task-ml_proj-lorasick_2021-02-23-14-11-26.323975
144	11	1	3	145	stable	1	200	145	sv	brown	green	brown	green	left	right	0.7	0.30000000000000004	2	4	1.4	1.2000000000000002	1	0	0.7	0.30000000000000004	2	4	1.4	1.2000000000000002	valid	0.633188579002308	53248	0	1	2	51200	0	51200	0	53248	1	0.7	51200	brown	green	0	0	ml	2.7.3	lorasick	sub-11_ses-01_task-ml_proj-lorasick_2021-02-23-14-11-26.323975
145	11	1	3	146	stable	1	200	146	sv	brown	green	brown	green	left	right	0.7	0.30000000000000004	6	6	4.199999999999998	1.8000000000000005	1	0	0.7	0.30000000000000004	6	6	4.199999999999998	1.8000000000000005	valid	0.883102443000098	51200	0	0	1	51200	1	51200	1	53248	0	0.7	51200	brown	green	1	6	ml	2.7.3	lorasick	sub-11_ses-01_task-ml_proj-lorasick_2021-02-23-14-11-26.323975
146	11	1	3	147	stable	1	200	147	sv	brown	green	brown	green	left	right	0.7	0.30000000000000004	2	10	1.4	3.0000000000000004	1	0	0.7	0.30000000000000004	2	10	1.4	3.0000000000000004	valid	0.6831741270034399	53248	0	1	2	53248	1	51200	0	53248	1	0.7	51200	brown	green	0	0	ml	2.7.3	lorasick	sub-11_ses-01_task-ml_proj-lorasick_2021-02-23-14-11-26.323975
147	11	1	3	148	stable	1	200	148	sv	brown	green	brown	green	left	right	0.7	0.30000000000000004	2	4	1.4	1.2000000000000002	0	1	0.7	0.30000000000000004	2	4	1.4	1.2000000000000002	invalid	0.5998620219979784	53248	0	1	2	51200	0	51200	0	53248	1	0.7	51200	brown	green	0	4	ml	2.7.3	lorasick	sub-11_ses-01_task-ml_proj-lorasick_2021-02-23-14-11-26.323975
148	11	1	3	149	stable	1	200	149	sv	brown	green	brown	green	left	right	0.7	0.30000000000000004	6	4	4.199999999999998	1.2000000000000002	1	0	0.7	0.30000000000000004	6	4	4.199999999999998	1.2000000000000002	valid	0.6498362439997436	51200	0	0	1	51200	1	51200	1	51200	1	0.7	51200	brown	green	1	6	ml	2.7.3	lorasick	sub-11_ses-01_task-ml_proj-lorasick_2021-02-23-14-11-26.323975
149	11	1	3	150	stable	1	200	150	sv	brown	green	brown	green	left	right	0.7	0.30000000000000004	4	6	2.8	1.8000000000000005	1	0	0.7	0.30000000000000004	4	6	2.8	1.8000000000000005	valid	0.833126605997677	53248	0	1	2	51200	0	51200	0	53248	1	0.7	51200	brown	green	0	0	ml	2.7.3	lorasick	sub-11_ses-01_task-ml_proj-lorasick_2021-02-23-14-11-26.323975
150	11	1	4	151	stable	1	200	151	sv	green	brown	brown	green	right	left	0.7	0.30000000000000004	2	6	1.4	1.8000000000000005	1	0	0.30000000000000004	0.7	6	2	1.8000000000000005	1.4	valid	0.9497519780015864	51200	0	0	2	51200	1	53248	0	51200	1	0.7	53248	brown	green	0	0	ml	2.7.3	lorasick	sub-11_ses-01_task-ml_proj-lorasick_2021-02-23-14-11-26.323975
151	11	1	4	152	stable	1	200	152	sv	green	brown	brown	green	right	left	0.7	0.30000000000000004	2	2	1.4	0.6000000000000001	1	0	0.30000000000000004	0.7	2	2	0.6000000000000001	1.4	valid	0.6831638900002872	53248	0	1	1	53248	1	53248	1	53248	1	0.7	53248	brown	green	0	2	ml	2.7.3	lorasick	sub-11_ses-01_task-ml_proj-lorasick_2021-02-23-14-11-26.323975
152	11	1	4	153	stable	1	200	153	sv	brown	green	brown	green	left	right	0.7	0.30000000000000004	6	6	4.199999999999998	1.8000000000000005	1	0	0.7	0.30000000000000004	6	6	4.199999999999998	1.8000000000000005	valid	0.5998507410004095	51200	0	0	1	51200	1	51200	1	53248	0	0.7	51200	brown	green	1	6	ml	2.7.3	lorasick	sub-11_ses-01_task-ml_proj-lorasick_2021-02-23-14-11-26.323975
153	11	1	4	154	stable	1	200	154	sv	green	brown	brown	green	right	left	0.7	0.30000000000000004	4	6	2.8	1.8000000000000005	0	1	0.30000000000000004	0.7	6	4	1.8000000000000005	2.8	invalid	0.8497909059988159	53248	0	1	1	53248	1	53248	1	51200	0	0.7	53248	brown	green	0	0	ml	2.7.3	lorasick	sub-11_ses-01_task-ml_proj-lorasick_2021-02-23-14-11-26.323975
154	11	1	4	155	stable	1	200	155	sv	green	brown	brown	green	right	left	0.7	0.30000000000000004	6	6	4.199999999999998	1.8000000000000005	1	0	0.30000000000000004	0.7	6	6	1.8000000000000005	4.199999999999998	valid	0.5498782249997021	53248	0	1	1	53248	1	53248	1	53248	1	0.7	53248	brown	green	0	6	ml	2.7.3	lorasick	sub-11_ses-01_task-ml_proj-lorasick_2021-02-23-14-11-26.323975
155	11	1	4	156	stable	1	200	156	sv	brown	green	brown	green	left	right	0.7	0.30000000000000004	6	4	4.199999999999998	1.2000000000000002	1	0	0.7	0.30000000000000004	6	4	4.199999999999998	1.2000000000000002	valid	0.5998511020006845	51200	0	0	1	51200	1	51200	1	51200	1	0.7	51200	brown	green	1	6	ml	2.7.3	lorasick	sub-11_ses-01_task-ml_proj-lorasick_2021-02-23-14-11-26.323975
156	11	1	4	157	stable	1	200	157	sv	brown	green	brown	green	left	right	0.7	0.30000000000000004	2	10	1.4	3.0000000000000004	0	1	0.7	0.30000000000000004	2	10	1.4	3.0000000000000004	invalid	0.7831437589993584	53248	0	1	2	53248	1	51200	0	53248	1	0.7	51200	brown	green	0	10	ml	2.7.3	lorasick	sub-11_ses-01_task-ml_proj-lorasick_2021-02-23-14-11-26.323975
157	11	1	4	158	stable	1	200	158	sv	brown	green	brown	green	left	right	0.7	0.30000000000000004	4	6	2.8	1.8000000000000005	1	0	0.7	0.30000000000000004	4	6	2.8	1.8000000000000005	valid	0.6331886959997064	53248	0	1	2	51200	0	51200	0	53248	1	0.7	51200	brown	green	0	0	ml	2.7.3	lorasick	sub-11_ses-01_task-ml_proj-lorasick_2021-02-23-14-11-26.323975
158	11	1	4	159	stable	1	200	159	sv	green	brown	brown	green	right	left	0.7	0.30000000000000004	2	4	1.4	1.2000000000000002	1	0	0.30000000000000004	0.7	4	2	1.2000000000000002	1.4	valid	0.6998236960025679	51200	0	0	2	53248	0	53248	0	51200	1	0.7	53248	brown	green	0	0	ml	2.7.3	lorasick	sub-11_ses-01_task-ml_proj-lorasick_2021-02-23-14-11-26.323975
159	11	1	4	160	stable	1	200	160	sv	green	brown	brown	green	right	left	0.7	0.30000000000000004	6	2	4.199999999999998	0.6000000000000001	1	0	0.30000000000000004	0.7	2	6	0.6000000000000001	4.199999999999998	valid	0.43324456099799136	53248	0	1	1	53248	1	53248	1	53248	1	0.7	53248	brown	green	1	6	ml	2.7.3	lorasick	sub-11_ses-01_task-ml_proj-lorasick_2021-02-23-14-11-26.323975
160	11	1	4	161	stable	1	200	161	sv	green	brown	brown	green	right	left	0.7	0.30000000000000004	6	6	4.199999999999998	1.8000000000000005	1	0	0.30000000000000004	0.7	6	6	1.8000000000000005	4.199999999999998	valid	0.6998291460004111	53248	0	1	1	53248	1	53248	1	53248	1	0.7	53248	brown	green	0	6	ml	2.7.3	lorasick	sub-11_ses-01_task-ml_proj-lorasick_2021-02-23-14-11-26.323975
161	11	1	4	162	stable	1	200	162	sv	brown	green	brown	green	left	right	0.7	0.30000000000000004	2	2	1.4	0.6000000000000001	0	1	0.7	0.30000000000000004	2	2	1.4	0.6000000000000001	invalid	0.8831041550001828	51200	0	0	1	51200	1	51200	1	53248	0	0.7	51200	brown	green	1	0	ml	2.7.3	lorasick	sub-11_ses-01_task-ml_proj-lorasick_2021-02-23-14-11-26.323975
162	11	1	4	163	stable	1	200	163	sv	green	brown	brown	green	right	left	0.7	0.30000000000000004	6	2	4.199999999999998	0.6000000000000001	1	0	0.30000000000000004	0.7	2	6	0.6000000000000001	4.199999999999998	valid	0.9331062240016764	53248	0	1	1	53248	1	53248	1	53248	1	0.7	53248	brown	green	1	6	ml	2.7.3	lorasick	sub-11_ses-01_task-ml_proj-lorasick_2021-02-23-14-11-26.323975
163	11	1	4	164	stable	1	200	164	sv	brown	green	brown	green	left	right	0.7	0.30000000000000004	2	2	1.4	0.6000000000000001	1	0	0.7	0.30000000000000004	2	2	1.4	0.6000000000000001	valid	0.6831628699983412	51200	0	0	1	51200	1	51200	1	53248	0	0.7	51200	brown	green	1	2	ml	2.7.3	lorasick	sub-11_ses-01_task-ml_proj-lorasick_2021-02-23-14-11-26.323975
164	11	1	4	165	stable	1	200	165	sv	brown	green	brown	green	left	right	0.7	0.30000000000000004	2	10	1.4	3.0000000000000004	0	1	0.7	0.30000000000000004	2	10	1.4	3.0000000000000004	invalid	0.6665121520018147	53248	0	1	2	53248	1	51200	0	53248	1	0.7	51200	brown	green	0	10	ml	2.7.3	lorasick	sub-11_ses-01_task-ml_proj-lorasick_2021-02-23-14-11-26.323975
165	11	1	4	166	stable	1	200	166	sv	green	brown	brown	green	right	left	0.7	0.30000000000000004	2	10	1.4	3.0000000000000004	0	1	0.30000000000000004	0.7	10	2	3.0000000000000004	1.4	invalid	0.4998841130000074	51200	0	0	2	51200	1	53248	0	51200	1	0.7	53248	brown	green	0	10	ml	2.7.3	lorasick	sub-11_ses-01_task-ml_proj-lorasick_2021-02-23-14-11-26.323975
166	11	1	4	167	stable	1	200	167	sv	green	brown	brown	green	right	left	0.7	0.30000000000000004	2	2	1.4	0.6000000000000001	0	1	0.30000000000000004	0.7	2	2	0.6000000000000001	1.4	invalid	1.0497232050001912	51200	0	0	2	53248	0	53248	0	53248	0	0.7	53248	brown	green	0	2	ml	2.7.3	lorasick	sub-11_ses-01_task-ml_proj-lorasick_2021-02-23-14-11-26.323975
167	11	1	4	168	stable	1	200	168	sv	green	brown	brown	green	right	left	0.7	0.30000000000000004	10	2	7.0	0.6000000000000001	1	0	0.30000000000000004	0.7	2	10	0.6000000000000001	7.0	valid	0.7831452600003104	53248	0	1	1	53248	1	53248	1	53248	1	0.7	53248	brown	green	1	10	ml	2.7.3	lorasick	sub-11_ses-01_task-ml_proj-lorasick_2021-02-23-14-11-26.323975
168	11	1	4	169	stable	1	200	169	sv	brown	green	brown	green	left	right	0.7	0.30000000000000004	6	2	4.199999999999998	0.6000000000000001	0	1	0.7	0.30000000000000004	6	2	4.199999999999998	0.6000000000000001	invalid	0.6498390240012668	51200	0	0	1	51200	1	51200	1	51200	1	0.7	51200	brown	green	1	0	ml	2.7.3	lorasick	sub-11_ses-01_task-ml_proj-lorasick_2021-02-23-14-11-26.323975
169	11	1	4	170	stable	1	200	170	sv	green	brown	brown	green	right	left	0.7	0.30000000000000004	2	2	1.4	0.6000000000000001	1	0	0.30000000000000004	0.7	2	2	0.6000000000000001	1.4	valid	0.6331773819983937	51200	0	0	2	53248	0	53248	0	53248	0	0.7	53248	brown	green	0	0	ml	2.7.3	lorasick	sub-11_ses-01_task-ml_proj-lorasick_2021-02-23-14-11-26.323975
170	11	1	4	171	stable	1	200	171	sv	green	brown	brown	green	right	left	0.7	0.30000000000000004	6	2	4.199999999999998	0.6000000000000001	1	0	0.30000000000000004	0.7	2	6	0.6000000000000001	4.199999999999998	valid	0.6331909609980357	53248	0	1	1	53248	1	53248	1	53248	1	0.7	53248	brown	green	1	6	ml	2.7.3	lorasick	sub-11_ses-01_task-ml_proj-lorasick_2021-02-23-14-11-26.323975
171	11	1	4	172	stable	1	200	172	sv	green	brown	brown	green	right	left	0.7	0.30000000000000004	2	6	1.4	1.8000000000000005	1	0	0.30000000000000004	0.7	6	2	1.8000000000000005	1.4	valid	0.5831881710000744	51200	0	0	2	51200	1	53248	0	51200	1	0.7	53248	brown	green	0	0	ml	2.7.3	lorasick	sub-11_ses-01_task-ml_proj-lorasick_2021-02-23-14-11-26.323975
172	11	1	4	173	stable	1	200	173	sv	green	brown	brown	green	right	left	0.7	0.30000000000000004	2	10	1.4	3.0000000000000004	1	0	0.30000000000000004	0.7	10	2	3.0000000000000004	1.4	valid	0.599852675000875	51200	0	0	2	51200	1	53248	0	51200	1	0.7	53248	brown	green	0	0	ml	2.7.3	lorasick	sub-11_ses-01_task-ml_proj-lorasick_2021-02-23-14-11-26.323975
173	11	1	4	174	stable	1	200	174	sv	brown	green	brown	green	left	right	0.7	0.30000000000000004	2	6	1.4	1.8000000000000005	1	0	0.7	0.30000000000000004	2	6	1.4	1.8000000000000005	valid	1.5995620670000792	51200	0	0	1	53248	0	51200	1	53248	0	0.7	51200	brown	green	0	2	ml	2.7.3	lorasick	sub-11_ses-01_task-ml_proj-lorasick_2021-02-23-14-11-26.323975
174	11	1	4	175	stable	1	200	175	sv	green	brown	brown	green	right	left	0.7	0.30000000000000004	6	6	4.199999999999998	1.8000000000000005	1	0	0.30000000000000004	0.7	6	6	1.8000000000000005	4.199999999999998	valid	0.5998712699984026	53248	0	1	1	53248	1	53248	1	53248	1	0.7	53248	brown	green	0	6	ml	2.7.3	lorasick	sub-11_ses-01_task-ml_proj-lorasick_2021-02-23-14-11-26.323975
175	11	1	4	176	stable	1	200	176	sv	green	brown	brown	green	right	left	0.7	0.30000000000000004	2	4	1.4	1.2000000000000002	1	0	0.30000000000000004	0.7	4	2	1.2000000000000002	1.4	valid	0.7498237580002751	53248	0	1	1	53248	1	53248	1	51200	0	0.7	53248	brown	green	0	2	ml	2.7.3	lorasick	sub-11_ses-01_task-ml_proj-lorasick_2021-02-23-14-11-26.323975
176	11	1	4	177	stable	1	200	177	sv	green	brown	brown	green	right	left	0.7	0.30000000000000004	10	2	7.0	0.6000000000000001	1	0	0.30000000000000004	0.7	2	10	0.6000000000000001	7.0	valid	0.5665388179986621	53248	0	1	1	53248	1	53248	1	53248	1	0.7	53248	brown	green	1	10	ml	2.7.3	lorasick	sub-11_ses-01_task-ml_proj-lorasick_2021-02-23-14-11-26.323975
177	11	1	4	178	stable	1	200	178	sv	green	brown	brown	green	right	left	0.7	0.30000000000000004	6	2	4.199999999999998	0.6000000000000001	0	1	0.30000000000000004	0.7	2	6	0.6000000000000001	4.199999999999998	invalid	0.6165172930013796	53248	0	1	1	53248	1	53248	1	53248	1	0.7	53248	brown	green	1	0	ml	2.7.3	lorasick	sub-11_ses-01_task-ml_proj-lorasick_2021-02-23-14-11-26.323975
178	11	1	4	179	stable	1	200	179	sv	brown	green	brown	green	left	right	0.7	0.30000000000000004	6	4	4.199999999999998	1.2000000000000002	1	0	0.7	0.30000000000000004	6	4	4.199999999999998	1.2000000000000002	valid	0.483218779998424	51200	0	0	1	51200	1	51200	1	51200	1	0.7	51200	brown	green	1	6	ml	2.7.3	lorasick	sub-11_ses-01_task-ml_proj-lorasick_2021-02-23-14-11-26.323975
179	11	1	4	180	stable	1	200	180	sv	brown	green	brown	green	left	right	0.7	0.30000000000000004	2	6	1.4	1.8000000000000005	1	0	0.7	0.30000000000000004	2	6	1.4	1.8000000000000005	valid	1.0830580740002915	53248	0	1	2	53248	1	51200	0	53248	1	0.7	51200	brown	green	0	0	ml	2.7.3	lorasick	sub-11_ses-01_task-ml_proj-lorasick_2021-02-23-14-11-26.323975
180	11	1	4	181	stable	1	200	181	sv	brown	green	brown	green	left	right	0.7	0.30000000000000004	2	10	1.4	3.0000000000000004	0	1	0.7	0.30000000000000004	2	10	1.4	3.0000000000000004	invalid	0.6331863029990927	53248	0	1	2	53248	1	51200	0	53248	1	0.7	51200	brown	green	0	10	ml	2.7.3	lorasick	sub-11_ses-01_task-ml_proj-lorasick_2021-02-23-14-11-26.323975
181	11	1	4	182	stable	1	200	182	sv	green	brown	brown	green	right	left	0.7	0.30000000000000004	6	4	4.199999999999998	1.2000000000000002	1	0	0.30000000000000004	0.7	4	6	1.2000000000000002	4.199999999999998	valid	0.6665116059994034	53248	0	1	1	53248	1	53248	1	53248	1	0.7	53248	brown	green	1	6	ml	2.7.3	lorasick	sub-11_ses-01_task-ml_proj-lorasick_2021-02-23-14-11-26.323975
182	11	1	4	183	stable	1	200	183	sv	green	brown	brown	green	right	left	0.7	0.30000000000000004	6	6	4.199999999999998	1.8000000000000005	1	0	0.30000000000000004	0.7	6	6	1.8000000000000005	4.199999999999998	valid	0.5998628189990995	53248	0	1	1	53248	1	53248	1	53248	1	0.7	53248	brown	green	0	6	ml	2.7.3	lorasick	sub-11_ses-01_task-ml_proj-lorasick_2021-02-23-14-11-26.323975
183	11	1	4	184	stable	1	200	184	sv	brown	green	brown	green	left	right	0.7	0.30000000000000004	10	2	7.0	0.6000000000000001	1	0	0.7	0.30000000000000004	10	2	7.0	0.6000000000000001	valid	0.5498664890001237	51200	0	0	1	51200	1	51200	1	51200	1	0.7	51200	brown	green	1	10	ml	2.7.3	lorasick	sub-11_ses-01_task-ml_proj-lorasick_2021-02-23-14-11-26.323975
184	11	1	4	185	stable	1	200	185	sv	green	brown	brown	green	right	left	0.7	0.30000000000000004	6	2	4.199999999999998	0.6000000000000001	1	0	0.30000000000000004	0.7	2	6	0.6000000000000001	4.199999999999998	valid	0.633185484999558	53248	0	1	1	53248	1	53248	1	53248	1	0.7	53248	brown	green	1	6	ml	2.7.3	lorasick	sub-11_ses-01_task-ml_proj-lorasick_2021-02-23-14-11-26.323975
185	11	1	4	186	stable	1	200	186	sv	brown	green	brown	green	left	right	0.7	0.30000000000000004	2	10	1.4	3.0000000000000004	0	1	0.7	0.30000000000000004	2	10	1.4	3.0000000000000004	invalid	0.716493444997468	53248	0	1	2	53248	1	51200	0	53248	1	0.7	51200	brown	green	0	10	ml	2.7.3	lorasick	sub-11_ses-01_task-ml_proj-lorasick_2021-02-23-14-11-26.323975
186	11	1	4	187	stable	1	200	187	sv	brown	green	brown	green	left	right	0.7	0.30000000000000004	2	2	1.4	0.6000000000000001	1	0	0.7	0.30000000000000004	2	2	1.4	0.6000000000000001	valid	0.7164837400014221	51200	0	0	1	51200	1	51200	1	53248	0	0.7	51200	brown	green	1	2	ml	2.7.3	lorasick	sub-11_ses-01_task-ml_proj-lorasick_2021-02-23-14-11-26.323975
187	11	1	4	188	stable	1	200	188	sv	brown	green	brown	green	left	right	0.7	0.30000000000000004	2	10	1.4	3.0000000000000004	0	1	0.7	0.30000000000000004	2	10	1.4	3.0000000000000004	invalid	0.5998713579974719	53248	0	1	2	53248	1	51200	0	53248	1	0.7	51200	brown	green	0	10	ml	2.7.3	lorasick	sub-11_ses-01_task-ml_proj-lorasick_2021-02-23-14-11-26.323975
188	11	1	4	189	stable	1	200	189	sv	brown	green	brown	green	left	right	0.7	0.30000000000000004	6	6	4.199999999999998	1.8000000000000005	1	0	0.7	0.30000000000000004	6	6	4.199999999999998	1.8000000000000005	valid	0.6331773790006991	51200	0	0	1	51200	1	51200	1	53248	0	0.7	51200	brown	green	1	6	ml	2.7.3	lorasick	sub-11_ses-01_task-ml_proj-lorasick_2021-02-23-14-11-26.323975
189	11	1	4	190	stable	1	200	190	sv	green	brown	brown	green	right	left	0.7	0.30000000000000004	4	2	2.8	0.6000000000000001	1	0	0.30000000000000004	0.7	2	4	0.6000000000000001	2.8	valid	0.7498239239976101	53248	0	1	1	53248	1	53248	1	53248	1	0.7	53248	brown	green	1	4	ml	2.7.3	lorasick	sub-11_ses-01_task-ml_proj-lorasick_2021-02-23-14-11-26.323975
190	11	1	4	191	stable	1	200	191	sv	green	brown	brown	green	right	left	0.7	0.30000000000000004	4	2	2.8	0.6000000000000001	0	1	0.30000000000000004	0.7	2	4	0.6000000000000001	2.8	invalid	0.4499021689989604	53248	0	1	1	53248	1	53248	1	53248	1	0.7	53248	brown	green	1	0	ml	2.7.3	lorasick	sub-11_ses-01_task-ml_proj-lorasick_2021-02-23-14-11-26.323975
191	11	1	4	192	stable	1	200	192	sv	brown	green	brown	green	left	right	0.7	0.30000000000000004	6	2	4.199999999999998	0.6000000000000001	1	0	0.7	0.30000000000000004	6	2	4.199999999999998	0.6000000000000001	valid	0.5498758360008651	51200	0	0	1	51200	1	51200	1	51200	1	0.7	51200	brown	green	1	6	ml	2.7.3	lorasick	sub-11_ses-01_task-ml_proj-lorasick_2021-02-23-14-11-26.323975
192	11	1	4	193	stable	1	200	193	sv	brown	green	brown	green	left	right	0.7	0.30000000000000004	10	2	7.0	0.6000000000000001	1	0	0.7	0.30000000000000004	10	2	7.0	0.6000000000000001	valid	0.4498956149982405	51200	0	0	1	51200	1	51200	1	51200	1	0.7	51200	brown	green	1	10	ml	2.7.3	lorasick	sub-11_ses-01_task-ml_proj-lorasick_2021-02-23-14-11-26.323975
193	11	1	4	194	stable	1	200	194	sv	brown	green	brown	green	left	right	0.7	0.30000000000000004	2	2	1.4	0.6000000000000001	1	0	0.7	0.30000000000000004	2	2	1.4	0.6000000000000001	valid	0.6998241110013623	51200	0	0	1	51200	1	51200	1	53248	0	0.7	51200	brown	green	1	2	ml	2.7.3	lorasick	sub-11_ses-01_task-ml_proj-lorasick_2021-02-23-14-11-26.323975
194	11	1	4	195	stable	1	200	195	sv	brown	green	brown	green	left	right	0.7	0.30000000000000004	4	2	2.8	0.6000000000000001	1	0	0.7	0.30000000000000004	4	2	2.8	0.6000000000000001	valid	0.5165438209987769	51200	0	0	1	51200	1	51200	1	51200	1	0.7	51200	brown	green	1	4	ml	2.7.3	lorasick	sub-11_ses-01_task-ml_proj-lorasick_2021-02-23-14-11-26.323975
195	11	1	4	196	stable	1	200	196	sv	brown	green	brown	green	left	right	0.7	0.30000000000000004	6	2	4.199999999999998	0.6000000000000001	0	1	0.7	0.30000000000000004	6	2	4.199999999999998	0.6000000000000001	invalid	0.4832172609967529	51200	0	0	1	51200	1	51200	1	51200	1	0.7	51200	brown	green	1	0	ml	2.7.3	lorasick	sub-11_ses-01_task-ml_proj-lorasick_2021-02-23-14-11-26.323975
196	11	1	4	197	stable	1	200	197	sv	brown	green	brown	green	left	right	0.7	0.30000000000000004	2	4	1.4	1.2000000000000002	1	0	0.7	0.30000000000000004	2	4	1.4	1.2000000000000002	valid	0.8331312920017808	53248	0	1	2	51200	0	51200	0	53248	1	0.7	51200	brown	green	0	0	ml	2.7.3	lorasick	sub-11_ses-01_task-ml_proj-lorasick_2021-02-23-14-11-26.323975
197	11	1	4	198	stable	1	200	198	sv	green	brown	brown	green	right	left	0.7	0.30000000000000004	6	6	4.199999999999998	1.8000000000000005	1	0	0.30000000000000004	0.7	6	6	1.8000000000000005	4.199999999999998	valid	0.8164643669988436	53248	0	1	1	53248	1	53248	1	53248	1	0.7	53248	brown	green	0	6	ml	2.7.3	lorasick	sub-11_ses-01_task-ml_proj-lorasick_2021-02-23-14-11-26.323975
198	11	1	4	199	stable	1	200	199	sv	green	brown	brown	green	right	left	0.7	0.30000000000000004	2	10	1.4	3.0000000000000004	1	0	0.30000000000000004	0.7	10	2	3.0000000000000004	1.4	valid	0.6331764290007413	51200	0	0	2	51200	1	53248	0	51200	1	0.7	53248	brown	green	0	0	ml	2.7.3	lorasick	sub-11_ses-01_task-ml_proj-lorasick_2021-02-23-14-11-26.323975
199	11	1	4	200	stable	1	200	200	sv	brown	green	brown	green	left	right	0.7	0.30000000000000004	2	2	1.4	0.6000000000000001	1	0	0.7	0.30000000000000004	2	2	1.4	0.6000000000000001	valid	0.7831343850011763	51200	0	0	1	51200	1	51200	1	53248	0	0.7	51200	brown	green	1	2	ml	2.7.3	lorasick	sub-11_ses-01_task-ml_proj-lorasick_2021-02-23-14-11-26.323975
200	11	1	5	201	volatile	2	20	1	sv	green	brown	brown	green	right	left	0.30000000000000004	0.7	6	2	1.8000000000000005	1.4	0	1	0.7	0.30000000000000004	2	6	1.4	1.8000000000000005	valid	0.5998633330018492	53248	0	1	1	53248	1	51200	0	53248	1	0.7	51200	green	brown	0	0	ml	2.7.3	lorasick	sub-11_ses-01_task-ml_proj-lorasick_2021-02-23-14-11-26.323975
201	11	1	5	202	volatile	2	20	2	sv	brown	green	brown	green	left	right	0.30000000000000004	0.7	6	4	1.8000000000000005	2.8	0	1	0.30000000000000004	0.7	6	4	1.8000000000000005	2.8	valid	0.5831912389985519	51200	0	0	1	53248	0	53248	0	51200	1	0.7	53248	green	brown	0	0	ml	2.7.3	lorasick	sub-11_ses-01_task-ml_proj-lorasick_2021-02-23-14-11-26.323975
202	11	1	5	203	volatile	2	20	3	sv	brown	green	brown	green	left	right	0.30000000000000004	0.7	4	6	1.2000000000000002	4.199999999999998	1	0	0.30000000000000004	0.7	4	6	1.2000000000000002	4.199999999999998	invalid	1.3663045980028985	53248	0	1	2	53248	1	53248	1	53248	1	0.7	53248	green	brown	1	0	ml	2.7.3	lorasick	sub-11_ses-01_task-ml_proj-lorasick_2021-02-23-14-11-26.323975
203	11	1	5	204	volatile	2	20	4	sv	brown	green	brown	green	left	right	0.30000000000000004	0.7	10	2	3.0000000000000004	1.4	0	1	0.30000000000000004	0.7	10	2	3.0000000000000004	1.4	valid	0.5998552700002621	51200	0	0	1	51200	1	53248	0	51200	1	0.7	53248	green	brown	0	0	ml	2.7.3	lorasick	sub-11_ses-01_task-ml_proj-lorasick_2021-02-23-14-11-26.323975
204	11	1	5	205	volatile	2	20	5	sv	green	brown	brown	green	right	left	0.30000000000000004	0.7	6	6	1.8000000000000005	4.199999999999998	0	1	0.7	0.30000000000000004	6	6	4.199999999999998	1.8000000000000005	valid	1.133029806002014	51200	0	0	2	51200	1	51200	1	53248	0	0.7	51200	green	brown	1	6	ml	2.7.3	lorasick	sub-11_ses-01_task-ml_proj-lorasick_2021-02-23-14-11-26.323975
205	11	1	5	206	volatile	2	20	6	sv	brown	green	brown	green	left	right	0.30000000000000004	0.7	2	4	0.6000000000000001	2.8	0	1	0.30000000000000004	0.7	2	4	0.6000000000000001	2.8	valid	0.549878596997587	53248	0	1	2	53248	1	53248	1	53248	1	0.7	53248	green	brown	1	4	ml	2.7.3	lorasick	sub-11_ses-01_task-ml_proj-lorasick_2021-02-23-14-11-26.323975
206	11	1	5	207	volatile	2	20	7	sv	brown	green	brown	green	left	right	0.30000000000000004	0.7	2	6	0.6000000000000001	4.199999999999998	0	1	0.30000000000000004	0.7	2	6	0.6000000000000001	4.199999999999998	valid	0.5332166340012918	53248	0	1	2	53248	1	53248	1	53248	1	0.7	53248	green	brown	1	6	ml	2.7.3	lorasick	sub-11_ses-01_task-ml_proj-lorasick_2021-02-23-14-11-26.323975
207	11	1	5	208	volatile	2	20	8	sv	brown	green	brown	green	left	right	0.30000000000000004	0.7	2	10	0.6000000000000001	7.0	1	0	0.30000000000000004	0.7	2	10	0.6000000000000001	7.0	invalid	0.499890699997195	53248	0	1	2	53248	1	53248	1	53248	1	0.7	53248	green	brown	1	0	ml	2.7.3	lorasick	sub-11_ses-01_task-ml_proj-lorasick_2021-02-23-14-11-26.323975
208	11	1	5	209	volatile	2	20	9	sv	brown	green	brown	green	left	right	0.30000000000000004	0.7	6	6	1.8000000000000005	4.199999999999998	0	1	0.30000000000000004	0.7	6	6	1.8000000000000005	4.199999999999998	valid	0.6831722110000555	53248	0	1	2	53248	1	53248	1	53248	1	0.7	53248	green	brown	0	6	ml	2.7.3	lorasick	sub-11_ses-01_task-ml_proj-lorasick_2021-02-23-14-11-26.323975
209	11	1	5	210	volatile	2	20	10	sv	green	brown	brown	green	right	left	0.30000000000000004	0.7	2	6	0.6000000000000001	4.199999999999998	1	0	0.7	0.30000000000000004	6	2	4.199999999999998	0.6000000000000001	invalid	0.5332047670017346	51200	0	0	2	51200	1	51200	1	51200	1	0.7	51200	green	brown	1	0	ml	2.7.3	lorasick	sub-11_ses-01_task-ml_proj-lorasick_2021-02-23-14-11-26.323975
210	11	1	5	211	volatile	2	20	11	sv	green	brown	brown	green	right	left	0.30000000000000004	0.7	2	2	0.6000000000000001	1.4	1	0	0.7	0.30000000000000004	2	2	1.4	0.6000000000000001	invalid	0.7997793850008748	51200	0	0	2	51200	1	51200	1	53248	0	0.7	51200	green	brown	1	0	ml	2.7.3	lorasick	sub-11_ses-01_task-ml_proj-lorasick_2021-02-23-14-11-26.323975
211	11	1	5	212	volatile	2	20	12	sv	green	brown	brown	green	right	left	0.30000000000000004	0.7	4	6	1.2000000000000002	4.199999999999998	0	1	0.7	0.30000000000000004	6	4	4.199999999999998	1.2000000000000002	valid	1.9994549639995969	53248	0	1	1	51200	0	51200	0	51200	0	0.7	51200	green	brown	1	0	ml	2.7.3	lorasick	sub-11_ses-01_task-ml_proj-lorasick_2021-02-23-14-11-26.323975
212	11	1	5	213	volatile	2	20	13	sv	brown	green	brown	green	left	right	0.30000000000000004	0.7	2	4	0.6000000000000001	2.8	0	1	0.30000000000000004	0.7	2	4	0.6000000000000001	2.8	valid	0.5832001340022543	53248	0	1	2	53248	1	53248	1	53248	1	0.7	53248	green	brown	1	4	ml	2.7.3	lorasick	sub-11_ses-01_task-ml_proj-lorasick_2021-02-23-14-11-26.323975
213	11	1	5	214	volatile	2	20	14	sv	green	brown	brown	green	right	left	0.30000000000000004	0.7	2	10	0.6000000000000001	7.0	0	1	0.7	0.30000000000000004	10	2	7.0	0.6000000000000001	valid	0.5332057800005714	51200	0	0	2	51200	1	51200	1	51200	1	0.7	51200	green	brown	1	10	ml	2.7.3	lorasick	sub-11_ses-01_task-ml_proj-lorasick_2021-02-23-14-11-26.323975
214	11	1	5	215	volatile	2	20	15	sv	green	brown	brown	green	right	left	0.30000000000000004	0.7	2	2	0.6000000000000001	1.4	0	1	0.7	0.30000000000000004	2	2	1.4	0.6000000000000001	valid	0.8664440869979444	51200	0	0	2	51200	1	51200	1	53248	0	0.7	51200	green	brown	1	2	ml	2.7.3	lorasick	sub-11_ses-01_task-ml_proj-lorasick_2021-02-23-14-11-26.323975
215	11	1	5	216	volatile	2	20	16	sv	brown	green	brown	green	left	right	0.30000000000000004	0.7	2	10	0.6000000000000001	7.0	0	1	0.30000000000000004	0.7	2	10	0.6000000000000001	7.0	valid	0.4499091309990035	53248	0	1	2	53248	1	53248	1	53248	1	0.7	53248	green	brown	1	10	ml	2.7.3	lorasick	sub-11_ses-01_task-ml_proj-lorasick_2021-02-23-14-11-26.323975
216	11	1	5	217	volatile	2	20	17	sv	green	brown	brown	green	right	left	0.30000000000000004	0.7	2	4	0.6000000000000001	2.8	1	0	0.7	0.30000000000000004	4	2	2.8	0.6000000000000001	invalid	0.5665282829977514	51200	0	0	2	51200	1	51200	1	51200	1	0.7	51200	green	brown	1	0	ml	2.7.3	lorasick	sub-11_ses-01_task-ml_proj-lorasick_2021-02-23-14-11-26.323975
217	11	1	5	218	volatile	2	20	18	sv	brown	green	brown	green	left	right	0.30000000000000004	0.7	4	2	1.2000000000000002	1.4	1	0	0.30000000000000004	0.7	4	2	1.2000000000000002	1.4	invalid	0.8331179119995795	51200	0	0	1	53248	0	53248	0	51200	1	0.7	53248	green	brown	0	4	ml	2.7.3	lorasick	sub-11_ses-01_task-ml_proj-lorasick_2021-02-23-14-11-26.323975
218	11	1	5	219	volatile	2	20	19	sv	green	brown	brown	green	right	left	0.30000000000000004	0.7	2	6	0.6000000000000001	4.199999999999998	0	1	0.7	0.30000000000000004	6	2	4.199999999999998	0.6000000000000001	valid	0.5498709280000185	51200	0	0	2	51200	1	51200	1	51200	1	0.7	51200	green	brown	1	6	ml	2.7.3	lorasick	sub-11_ses-01_task-ml_proj-lorasick_2021-02-23-14-11-26.323975
219	11	1	5	220	volatile	2	20	20	sv	green	brown	brown	green	right	left	0.30000000000000004	0.7	6	4	1.8000000000000005	2.8	0	1	0.7	0.30000000000000004	4	6	2.8	1.8000000000000005	valid	0.5498797699983697	53248	0	1	1	51200	0	51200	0	53248	1	0.7	51200	green	brown	0	0	ml	2.7.3	lorasick	sub-11_ses-01_task-ml_proj-lorasick_2021-02-23-14-11-26.323975
220	11	1	5	221	volatile	3	20	1	sv	green	brown	brown	green	right	left	0.7	0.30000000000000004	4	6	2.8	1.8000000000000005	1	0	0.30000000000000004	0.7	6	4	1.8000000000000005	2.8	valid	0.4332315710016701	51200	0	0	2	53248	0	53248	0	51200	1	0.7	53248	brown	green	0	0	ml	2.7.3	lorasick	sub-11_ses-01_task-ml_proj-lorasick_2021-02-23-14-11-26.323975
221	11	1	5	222	volatile	3	20	2	sv	brown	green	brown	green	left	right	0.7	0.30000000000000004	4	2	2.8	0.6000000000000001	1	0	0.7	0.30000000000000004	4	2	2.8	0.6000000000000001	valid	1.1996886100023405	53248	0	1	2	51200	0	51200	0	51200	0	0.7	51200	brown	green	1	0	ml	2.7.3	lorasick	sub-11_ses-01_task-ml_proj-lorasick_2021-02-23-14-11-26.323975
222	11	1	5	223	volatile	3	20	3	sv	green	brown	brown	green	right	left	0.7	0.30000000000000004	2	10	1.4	3.0000000000000004	1	0	0.30000000000000004	0.7	10	2	3.0000000000000004	1.4	valid	0.49988140100322204	51200	0	0	2	51200	1	53248	0	51200	1	0.7	53248	brown	green	0	0	ml	2.7.3	lorasick	sub-11_ses-01_task-ml_proj-lorasick_2021-02-23-14-11-26.323975
223	11	1	5	224	volatile	3	20	4	sv	brown	green	brown	green	left	right	0.7	0.30000000000000004	2	6	1.4	1.8000000000000005	1	0	0.7	0.30000000000000004	2	6	1.4	1.8000000000000005	valid	0.4332424409985833	53248	0	1	2	53248	1	51200	0	53248	1	0.7	51200	brown	green	0	0	ml	2.7.3	lorasick	sub-11_ses-01_task-ml_proj-lorasick_2021-02-23-14-11-26.323975
224	11	1	5	225	volatile	3	20	5	sv	brown	green	brown	green	left	right	0.7	0.30000000000000004	10	2	7.0	0.6000000000000001	0	1	0.7	0.30000000000000004	10	2	7.0	0.6000000000000001	invalid	0.3999180819992034	51200	0	0	1	51200	1	51200	1	51200	1	0.7	51200	brown	green	1	0	ml	2.7.3	lorasick	sub-11_ses-01_task-ml_proj-lorasick_2021-02-23-14-11-26.323975
225	11	1	5	226	volatile	3	20	6	sv	green	brown	brown	green	right	left	0.7	0.30000000000000004	4	6	2.8	1.8000000000000005	0	1	0.30000000000000004	0.7	6	4	1.8000000000000005	2.8	invalid	0.7664643280004384	51200	0	0	2	53248	0	53248	0	51200	1	0.7	53248	brown	green	0	6	ml	2.7.3	lorasick	sub-11_ses-01_task-ml_proj-lorasick_2021-02-23-14-11-26.323975
226	11	1	5	227	volatile	3	20	7	sv	green	brown	brown	green	right	left	0.7	0.30000000000000004	10	2	7.0	0.6000000000000001	0	1	0.30000000000000004	0.7	2	10	0.6000000000000001	7.0	invalid	0.5832013110011758	53248	0	1	1	53248	1	53248	1	53248	1	0.7	53248	brown	green	1	0	ml	2.7.3	lorasick	sub-11_ses-01_task-ml_proj-lorasick_2021-02-23-14-11-26.323975
227	11	1	5	228	volatile	3	20	8	sv	green	brown	brown	green	right	left	0.7	0.30000000000000004	4	2	2.8	0.6000000000000001	1	0	0.30000000000000004	0.7	2	4	0.6000000000000001	2.8	valid	1.083049798002321	51200	0	0	2	53248	0	53248	0	53248	0	0.7	53248	brown	green	1	0	ml	2.7.3	lorasick	sub-11_ses-01_task-ml_proj-lorasick_2021-02-23-14-11-26.323975
228	11	1	5	229	volatile	3	20	9	sv	brown	green	brown	green	left	right	0.7	0.30000000000000004	6	2	4.199999999999998	0.6000000000000001	0	1	0.7	0.30000000000000004	6	2	4.199999999999998	0.6000000000000001	invalid	0.4832202200013853	51200	0	0	1	51200	1	51200	1	51200	1	0.7	51200	brown	green	1	0	ml	2.7.3	lorasick	sub-11_ses-01_task-ml_proj-lorasick_2021-02-23-14-11-26.323975
229	11	1	5	230	volatile	3	20	10	sv	green	brown	brown	green	right	left	0.7	0.30000000000000004	2	2	1.4	0.6000000000000001	1	0	0.30000000000000004	0.7	2	2	0.6000000000000001	1.4	valid	0.7331386350015237	51200	0	0	2	53248	0	53248	0	53248	0	0.7	53248	brown	green	0	0	ml	2.7.3	lorasick	sub-11_ses-01_task-ml_proj-lorasick_2021-02-23-14-11-26.323975
230	11	1	5	231	volatile	3	20	11	sv	green	brown	brown	green	right	left	0.7	0.30000000000000004	4	2	2.8	0.6000000000000001	1	0	0.30000000000000004	0.7	2	4	0.6000000000000001	2.8	valid	1.2496746539982269	53248	0	1	1	53248	1	53248	1	53248	1	0.7	53248	brown	green	1	4	ml	2.7.3	lorasick	sub-11_ses-01_task-ml_proj-lorasick_2021-02-23-14-11-26.323975
231	11	1	5	232	volatile	3	20	12	sv	green	brown	brown	green	right	left	0.7	0.30000000000000004	6	6	4.199999999999998	1.8000000000000005	0	1	0.30000000000000004	0.7	6	6	1.8000000000000005	4.199999999999998	invalid	0.7331605960025627	53248	0	1	1	53248	1	53248	1	53248	1	0.7	53248	brown	green	0	0	ml	2.7.3	lorasick	sub-11_ses-01_task-ml_proj-lorasick_2021-02-23-14-11-26.323975
232	11	1	5	233	volatile	3	20	13	sv	brown	green	brown	green	left	right	0.7	0.30000000000000004	4	6	2.8	1.8000000000000005	1	0	0.7	0.30000000000000004	4	6	2.8	1.8000000000000005	valid	0.6165270349993079	53248	0	1	2	51200	0	51200	0	53248	1	0.7	51200	brown	green	0	0	ml	2.7.3	lorasick	sub-11_ses-01_task-ml_proj-lorasick_2021-02-23-14-11-26.323975
233	11	1	5	234	volatile	3	20	14	sv	brown	green	brown	green	left	right	0.7	0.30000000000000004	6	6	4.199999999999998	1.8000000000000005	0	1	0.7	0.30000000000000004	6	6	4.199999999999998	1.8000000000000005	invalid	0.8164623340016988	53248	0	1	2	51200	0	51200	0	53248	1	0.7	51200	brown	green	1	6	ml	2.7.3	lorasick	sub-11_ses-01_task-ml_proj-lorasick_2021-02-23-14-11-26.323975
234	11	1	5	235	volatile	3	20	15	sv	green	brown	brown	green	right	left	0.7	0.30000000000000004	6	4	4.199999999999998	1.2000000000000002	1	0	0.30000000000000004	0.7	4	6	1.2000000000000002	4.199999999999998	valid	0.7831365349993575	51200	0	0	2	53248	0	53248	0	53248	0	0.7	53248	brown	green	1	0	ml	2.7.3	lorasick	sub-11_ses-01_task-ml_proj-lorasick_2021-02-23-14-11-26.323975
235	11	1	5	236	volatile	3	20	16	sv	brown	green	brown	green	left	right	0.7	0.30000000000000004	2	6	1.4	1.8000000000000005	1	0	0.7	0.30000000000000004	2	6	1.4	1.8000000000000005	valid	0.5165601520020573	53248	0	1	2	53248	1	51200	0	53248	1	0.7	51200	brown	green	0	0	ml	2.7.3	lorasick	sub-11_ses-01_task-ml_proj-lorasick_2021-02-23-14-11-26.323975
236	11	1	5	237	volatile	3	20	17	sv	brown	green	brown	green	left	right	0.7	0.30000000000000004	2	10	1.4	3.0000000000000004	1	0	0.7	0.30000000000000004	2	10	1.4	3.0000000000000004	valid	0.5998637009979575	53248	0	1	2	53248	1	51200	0	53248	1	0.7	51200	brown	green	0	0	ml	2.7.3	lorasick	sub-11_ses-01_task-ml_proj-lorasick_2021-02-23-14-11-26.323975
237	11	1	5	238	volatile	3	20	18	sv	brown	green	brown	green	left	right	0.7	0.30000000000000004	6	2	4.199999999999998	0.6000000000000001	1	0	0.7	0.30000000000000004	6	2	4.199999999999998	0.6000000000000001	valid	0.7664717600018776	51200	0	0	1	51200	1	51200	1	51200	1	0.7	51200	brown	green	1	6	ml	2.7.3	lorasick	sub-11_ses-01_task-ml_proj-lorasick_2021-02-23-14-11-26.323975
238	11	1	5	239	volatile	3	20	19	sv	green	brown	brown	green	right	left	0.7	0.30000000000000004	2	4	1.4	1.2000000000000002	1	0	0.30000000000000004	0.7	4	2	1.2000000000000002	1.4	valid	1.2496775530016748	53248	0	1	1	53248	1	53248	1	51200	0	0.7	53248	brown	green	0	2	ml	2.7.3	lorasick	sub-11_ses-01_task-ml_proj-lorasick_2021-02-23-14-11-26.323975
239	11	1	5	240	volatile	3	20	20	sv	brown	green	brown	green	left	right	0.7	0.30000000000000004	2	2	1.4	0.6000000000000001	1	0	0.7	0.30000000000000004	2	2	1.4	0.6000000000000001	valid	0.6165203390009992	51200	0	0	1	51200	1	51200	1	53248	0	0.7	51200	brown	green	1	2	ml	2.7.3	lorasick	sub-11_ses-01_task-ml_proj-lorasick_2021-02-23-14-11-26.323975
240	11	1	5	241	volatile	4	40	1	sv	brown	green	brown	green	left	right	0.30000000000000004	0.7	2	10	0.6000000000000001	7.0	0	1	0.30000000000000004	0.7	2	10	0.6000000000000001	7.0	valid	1.0164074170024833	53248	0	1	2	53248	1	53248	1	53248	1	0.7	53248	green	brown	1	10	ml	2.7.3	lorasick	sub-11_ses-01_task-ml_proj-lorasick_2021-02-23-14-11-26.323975
241	11	1	5	242	volatile	4	40	2	sv	green	brown	brown	green	right	left	0.30000000000000004	0.7	6	4	1.8000000000000005	2.8	0	1	0.7	0.30000000000000004	4	6	2.8	1.8000000000000005	valid	0.5165629430011904	53248	0	1	1	51200	0	51200	0	53248	1	0.7	51200	green	brown	0	0	ml	2.7.3	lorasick	sub-11_ses-01_task-ml_proj-lorasick_2021-02-23-14-11-26.323975
242	11	1	5	243	volatile	4	40	3	sv	brown	green	brown	green	left	right	0.30000000000000004	0.7	2	10	0.6000000000000001	7.0	0	1	0.30000000000000004	0.7	2	10	0.6000000000000001	7.0	valid	0.6165251310012536	53248	0	1	2	53248	1	53248	1	53248	1	0.7	53248	green	brown	1	10	ml	2.7.3	lorasick	sub-11_ses-01_task-ml_proj-lorasick_2021-02-23-14-11-26.323975
243	11	1	5	244	volatile	4	40	4	sv	green	brown	brown	green	right	left	0.30000000000000004	0.7	2	4	0.6000000000000001	2.8	1	0	0.7	0.30000000000000004	4	2	2.8	0.6000000000000001	invalid	0.4998814820028201	51200	0	0	2	51200	1	51200	1	51200	1	0.7	51200	green	brown	1	0	ml	2.7.3	lorasick	sub-11_ses-01_task-ml_proj-lorasick_2021-02-23-14-11-26.323975
244	11	1	5	245	volatile	4	40	5	sv	green	brown	brown	green	right	left	0.30000000000000004	0.7	6	6	1.8000000000000005	4.199999999999998	1	0	0.7	0.30000000000000004	6	6	4.199999999999998	1.8000000000000005	invalid	0.5665269419987453	51200	0	0	2	51200	1	51200	1	53248	0	0.7	51200	green	brown	1	0	ml	2.7.3	lorasick	sub-11_ses-01_task-ml_proj-lorasick_2021-02-23-14-11-26.323975
245	11	1	5	246	volatile	4	40	6	sv	brown	green	brown	green	left	right	0.30000000000000004	0.7	6	4	1.8000000000000005	2.8	1	0	0.30000000000000004	0.7	6	4	1.8000000000000005	2.8	invalid	0.9830757420022564	51200	0	0	1	53248	0	53248	0	51200	1	0.7	53248	green	brown	0	6	ml	2.7.3	lorasick	sub-11_ses-01_task-ml_proj-lorasick_2021-02-23-14-11-26.323975
246	11	1	5	247	volatile	4	40	7	sv	brown	green	brown	green	left	right	0.30000000000000004	0.7	2	4	0.6000000000000001	2.8	0	1	0.30000000000000004	0.7	2	4	0.6000000000000001	2.8	valid	1.6162248500004353	51200	0	0	1	53248	0	53248	0	53248	0	0.7	53248	green	brown	1	0	ml	2.7.3	lorasick	sub-11_ses-01_task-ml_proj-lorasick_2021-02-23-14-11-26.323975
247	11	1	5	248	volatile	4	40	8	sv	green	brown	brown	green	right	left	0.30000000000000004	0.7	6	2	1.8000000000000005	1.4	0	1	0.7	0.30000000000000004	2	6	1.4	1.8000000000000005	valid	0.5665460069976689	53248	0	1	1	53248	1	51200	0	53248	1	0.7	51200	green	brown	0	0	ml	2.7.3	lorasick	sub-11_ses-01_task-ml_proj-lorasick_2021-02-23-14-11-26.323975
248	11	1	5	249	volatile	4	40	9	sv	brown	green	brown	green	left	right	0.30000000000000004	0.7	6	6	1.8000000000000005	4.199999999999998	0	1	0.30000000000000004	0.7	6	6	1.8000000000000005	4.199999999999998	valid	0.6165253500003018	53248	0	1	2	53248	1	53248	1	53248	1	0.7	53248	green	brown	0	6	ml	2.7.3	lorasick	sub-11_ses-01_task-ml_proj-lorasick_2021-02-23-14-11-26.323975
249	11	1	5	250	volatile	4	40	10	sv	brown	green	brown	green	left	right	0.30000000000000004	0.7	6	2	1.8000000000000005	1.4	1	0	0.30000000000000004	0.7	6	2	1.8000000000000005	1.4	invalid	0.6998225769966666	51200	0	0	1	51200	1	53248	0	51200	1	0.7	53248	green	brown	0	6	ml	2.7.3	lorasick	sub-11_ses-01_task-ml_proj-lorasick_2021-02-23-14-11-26.323975
250	11	1	6	251	volatile	4	40	11	sv	brown	green	brown	green	left	right	0.30000000000000004	0.7	6	2	1.8000000000000005	1.4	1	0	0.30000000000000004	0.7	6	2	1.8000000000000005	1.4	invalid	0.7331508070019481	51200	0	0	1	51200	1	53248	0	51200	1	0.7	53248	green	brown	0	6	ml	2.7.3	lorasick	sub-11_ses-01_task-ml_proj-lorasick_2021-02-23-14-11-26.323975
251	11	1	6	252	volatile	4	40	12	sv	green	brown	brown	green	right	left	0.30000000000000004	0.7	2	10	0.6000000000000001	7.0	0	1	0.7	0.30000000000000004	10	2	7.0	0.6000000000000001	valid	0.7331406320008682	51200	0	0	2	51200	1	51200	1	51200	1	0.7	51200	green	brown	1	10	ml	2.7.3	lorasick	sub-11_ses-01_task-ml_proj-lorasick_2021-02-23-14-11-26.323975
252	11	1	6	253	volatile	4	40	13	sv	green	brown	brown	green	right	left	0.30000000000000004	0.7	6	4	1.8000000000000005	2.8	1	0	0.7	0.30000000000000004	4	6	2.8	1.8000000000000005	invalid	0.616519702001824	53248	0	1	1	51200	0	51200	0	53248	1	0.7	51200	green	brown	0	6	ml	2.7.3	lorasick	sub-11_ses-01_task-ml_proj-lorasick_2021-02-23-14-11-26.323975
253	11	1	6	254	volatile	4	40	14	sv	brown	green	brown	green	left	right	0.30000000000000004	0.7	6	6	1.8000000000000005	4.199999999999998	0	1	0.30000000000000004	0.7	6	6	1.8000000000000005	4.199999999999998	valid	0.7831338650030375	51200	0	0	1	53248	0	53248	0	53248	0	0.7	53248	green	brown	0	0	ml	2.7.3	lorasick	sub-11_ses-01_task-ml_proj-lorasick_2021-02-23-14-11-26.323975
254	11	1	6	255	volatile	4	40	15	sv	green	brown	brown	green	right	left	0.30000000000000004	0.7	4	6	1.2000000000000002	4.199999999999998	1	0	0.7	0.30000000000000004	6	4	4.199999999999998	1.2000000000000002	invalid	0.5498680230011814	51200	0	0	2	51200	1	51200	1	51200	1	0.7	51200	green	brown	1	0	ml	2.7.3	lorasick	sub-11_ses-01_task-ml_proj-lorasick_2021-02-23-14-11-26.323975
255	11	1	6	256	volatile	4	40	16	sv	brown	green	brown	green	left	right	0.30000000000000004	0.7	6	4	1.8000000000000005	2.8	0	1	0.30000000000000004	0.7	6	4	1.8000000000000005	2.8	valid	0.6831640130003507	51200	0	0	1	53248	0	53248	0	51200	1	0.7	53248	green	brown	0	0	ml	2.7.3	lorasick	sub-11_ses-01_task-ml_proj-lorasick_2021-02-23-14-11-26.323975
256	11	1	6	257	volatile	4	40	17	sv	brown	green	brown	green	left	right	0.30000000000000004	0.7	2	6	0.6000000000000001	4.199999999999998	1	0	0.30000000000000004	0.7	2	6	0.6000000000000001	4.199999999999998	invalid	0.4832348550007737	53248	0	1	2	53248	1	53248	1	53248	1	0.7	53248	green	brown	1	0	ml	2.7.3	lorasick	sub-11_ses-01_task-ml_proj-lorasick_2021-02-23-14-11-26.323975
257	11	1	6	258	volatile	4	40	18	sv	green	brown	brown	green	right	left	0.30000000000000004	0.7	4	6	1.2000000000000002	4.199999999999998	1	0	0.7	0.30000000000000004	6	4	4.199999999999998	1.2000000000000002	invalid	0.6498383469988767	51200	0	0	2	51200	1	51200	1	51200	1	0.7	51200	green	brown	1	0	ml	2.7.3	lorasick	sub-11_ses-01_task-ml_proj-lorasick_2021-02-23-14-11-26.323975
258	11	1	6	259	volatile	4	40	19	sv	green	brown	brown	green	right	left	0.30000000000000004	0.7	2	2	0.6000000000000001	1.4	0	1	0.7	0.30000000000000004	2	2	1.4	0.6000000000000001	valid	0.6998265049987822	53248	0	1	1	51200	0	51200	0	53248	1	0.7	51200	green	brown	1	0	ml	2.7.3	lorasick	sub-11_ses-01_task-ml_proj-lorasick_2021-02-23-14-11-26.323975
259	11	1	6	260	volatile	4	40	20	sv	brown	green	brown	green	left	right	0.30000000000000004	0.7	2	6	0.6000000000000001	4.199999999999998	0	1	0.30000000000000004	0.7	2	6	0.6000000000000001	4.199999999999998	valid	0.5498749639991729	53248	0	1	2	53248	1	53248	1	53248	1	0.7	53248	green	brown	1	6	ml	2.7.3	lorasick	sub-11_ses-01_task-ml_proj-lorasick_2021-02-23-14-11-26.323975
260	11	1	6	261	volatile	4	40	21	sv	green	brown	brown	green	right	left	0.30000000000000004	0.7	2	2	0.6000000000000001	1.4	1	0	0.7	0.30000000000000004	2	2	1.4	0.6000000000000001	invalid	0.8331146100026672	51200	0	0	2	51200	1	51200	1	53248	0	0.7	51200	green	brown	1	0	ml	2.7.3	lorasick	sub-11_ses-01_task-ml_proj-lorasick_2021-02-23-14-11-26.323975
261	11	1	6	262	volatile	4	40	22	sv	brown	green	brown	green	left	right	0.30000000000000004	0.7	2	4	0.6000000000000001	2.8	0	1	0.30000000000000004	0.7	2	4	0.6000000000000001	2.8	valid	0.5165516679990105	53248	0	1	2	53248	1	53248	1	53248	1	0.7	53248	green	brown	1	4	ml	2.7.3	lorasick	sub-11_ses-01_task-ml_proj-lorasick_2021-02-23-14-11-26.323975
262	11	1	6	263	volatile	4	40	23	sv	brown	green	brown	green	left	right	0.30000000000000004	0.7	4	6	1.2000000000000002	4.199999999999998	0	1	0.30000000000000004	0.7	4	6	1.2000000000000002	4.199999999999998	valid	0.5332160299985844	53248	0	1	2	53248	1	53248	1	53248	1	0.7	53248	green	brown	1	6	ml	2.7.3	lorasick	sub-11_ses-01_task-ml_proj-lorasick_2021-02-23-14-11-26.323975
263	11	1	6	264	volatile	4	40	24	sv	brown	green	brown	green	left	right	0.30000000000000004	0.7	2	2	0.6000000000000001	1.4	1	0	0.30000000000000004	0.7	2	2	0.6000000000000001	1.4	invalid	0.5165560589994129	53248	0	1	2	53248	1	53248	1	53248	1	0.7	53248	green	brown	0	0	ml	2.7.3	lorasick	sub-11_ses-01_task-ml_proj-lorasick_2021-02-23-14-11-26.323975
264	11	1	6	265	volatile	4	40	25	sv	green	brown	brown	green	right	left	0.30000000000000004	0.7	6	6	1.8000000000000005	4.199999999999998	0	1	0.7	0.30000000000000004	6	6	4.199999999999998	1.8000000000000005	valid	0.8831039830001828	51200	0	0	2	51200	1	51200	1	53248	0	0.7	51200	green	brown	1	6	ml	2.7.3	lorasick	sub-11_ses-01_task-ml_proj-lorasick_2021-02-23-14-11-26.323975
265	11	1	6	266	volatile	4	40	26	sv	green	brown	brown	green	right	left	0.30000000000000004	0.7	2	2	0.6000000000000001	1.4	0	1	0.7	0.30000000000000004	2	2	1.4	0.6000000000000001	valid	0.833119708000595	51200	0	0	2	51200	1	51200	1	53248	0	0.7	51200	green	brown	1	2	ml	2.7.3	lorasick	sub-11_ses-01_task-ml_proj-lorasick_2021-02-23-14-11-26.323975
266	11	1	6	267	volatile	4	40	27	sv	green	brown	brown	green	right	left	0.30000000000000004	0.7	2	6	0.6000000000000001	4.199999999999998	0	1	0.7	0.30000000000000004	6	2	4.199999999999998	0.6000000000000001	valid	0.5165412349997496	51200	0	0	2	51200	1	51200	1	51200	1	0.7	51200	green	brown	1	6	ml	2.7.3	lorasick	sub-11_ses-01_task-ml_proj-lorasick_2021-02-23-14-11-26.323975
267	11	1	6	268	volatile	4	40	28	sv	green	brown	brown	green	right	left	0.30000000000000004	0.7	2	10	0.6000000000000001	7.0	0	1	0.7	0.30000000000000004	10	2	7.0	0.6000000000000001	valid	0.5165447920007864	51200	0	0	2	51200	1	51200	1	51200	1	0.7	51200	green	brown	1	10	ml	2.7.3	lorasick	sub-11_ses-01_task-ml_proj-lorasick_2021-02-23-14-11-26.323975
268	11	1	6	269	volatile	4	40	29	sv	green	brown	brown	green	right	left	0.30000000000000004	0.7	2	6	0.6000000000000001	4.199999999999998	0	1	0.7	0.30000000000000004	6	2	4.199999999999998	0.6000000000000001	valid	0.46656160800193897	51200	0	0	2	51200	1	51200	1	51200	1	0.7	51200	green	brown	1	6	ml	2.7.3	lorasick	sub-11_ses-01_task-ml_proj-lorasick_2021-02-23-14-11-26.323975
269	11	1	6	270	volatile	4	40	30	sv	green	brown	brown	green	right	left	0.30000000000000004	0.7	4	2	1.2000000000000002	1.4	0	1	0.7	0.30000000000000004	2	4	1.4	1.2000000000000002	valid	1.3996316390002903	53248	0	1	1	51200	0	51200	0	53248	1	0.7	51200	green	brown	0	0	ml	2.7.3	lorasick	sub-11_ses-01_task-ml_proj-lorasick_2021-02-23-14-11-26.323975
270	11	1	6	271	volatile	4	40	31	sv	brown	green	brown	green	left	right	0.30000000000000004	0.7	10	2	3.0000000000000004	1.4	1	0	0.30000000000000004	0.7	10	2	3.0000000000000004	1.4	invalid	0.6331784110006993	51200	0	0	1	51200	1	53248	0	51200	1	0.7	53248	green	brown	0	10	ml	2.7.3	lorasick	sub-11_ses-01_task-ml_proj-lorasick_2021-02-23-14-11-26.323975
271	11	1	6	272	volatile	4	40	32	sv	green	brown	brown	green	right	left	0.30000000000000004	0.7	6	4	1.8000000000000005	2.8	0	1	0.7	0.30000000000000004	4	6	2.8	1.8000000000000005	valid	0.5165548349978053	53248	0	1	1	51200	0	51200	0	53248	1	0.7	51200	green	brown	0	0	ml	2.7.3	lorasick	sub-11_ses-01_task-ml_proj-lorasick_2021-02-23-14-11-26.323975
272	11	1	6	273	volatile	4	40	33	sv	brown	green	brown	green	left	right	0.30000000000000004	0.7	2	4	0.6000000000000001	2.8	0	1	0.30000000000000004	0.7	2	4	0.6000000000000001	2.8	valid	0.5332182649981405	53248	0	1	2	53248	1	53248	1	53248	1	0.7	53248	green	brown	1	4	ml	2.7.3	lorasick	sub-11_ses-01_task-ml_proj-lorasick_2021-02-23-14-11-26.323975
273	11	1	6	274	volatile	4	40	34	sv	green	brown	brown	green	right	left	0.30000000000000004	0.7	2	4	0.6000000000000001	2.8	0	1	0.7	0.30000000000000004	4	2	2.8	0.6000000000000001	valid	0.4998808019990975	51200	0	0	2	51200	1	51200	1	51200	1	0.7	51200	green	brown	1	4	ml	2.7.3	lorasick	sub-11_ses-01_task-ml_proj-lorasick_2021-02-23-14-11-26.323975
274	11	1	6	275	volatile	4	40	35	sv	brown	green	brown	green	left	right	0.30000000000000004	0.7	2	6	0.6000000000000001	4.199999999999998	0	1	0.30000000000000004	0.7	2	6	0.6000000000000001	4.199999999999998	valid	0.7164941010014445	53248	0	1	2	53248	1	53248	1	53248	1	0.7	53248	green	brown	1	6	ml	2.7.3	lorasick	sub-11_ses-01_task-ml_proj-lorasick_2021-02-23-14-11-26.323975
275	11	1	6	276	volatile	4	40	36	sv	brown	green	brown	green	left	right	0.30000000000000004	0.7	4	2	1.2000000000000002	1.4	0	1	0.30000000000000004	0.7	4	2	1.2000000000000002	1.4	valid	0.5498593579977751	51200	0	0	1	53248	0	53248	0	51200	1	0.7	53248	green	brown	0	0	ml	2.7.3	lorasick	sub-11_ses-01_task-ml_proj-lorasick_2021-02-23-14-11-26.323975
276	11	1	6	277	volatile	4	40	37	sv	brown	green	brown	green	left	right	0.30000000000000004	0.7	2	10	0.6000000000000001	7.0	0	1	0.30000000000000004	0.7	2	10	0.6000000000000001	7.0	valid	0.4832298959991022	53248	0	1	2	53248	1	53248	1	53248	1	0.7	53248	green	brown	1	10	ml	2.7.3	lorasick	sub-11_ses-01_task-ml_proj-lorasick_2021-02-23-14-11-26.323975
277	11	1	6	278	volatile	4	40	38	sv	green	brown	brown	green	right	left	0.30000000000000004	0.7	2	4	0.6000000000000001	2.8	0	1	0.7	0.30000000000000004	4	2	2.8	0.6000000000000001	valid	0.4832139549980639	51200	0	0	2	51200	1	51200	1	51200	1	0.7	51200	green	brown	1	4	ml	2.7.3	lorasick	sub-11_ses-01_task-ml_proj-lorasick_2021-02-23-14-11-26.323975
278	11	1	6	279	volatile	4	40	39	sv	brown	green	brown	green	left	right	0.30000000000000004	0.7	2	10	0.6000000000000001	7.0	0	1	0.30000000000000004	0.7	2	10	0.6000000000000001	7.0	valid	0.4998925979998603	53248	0	1	2	53248	1	53248	1	53248	1	0.7	53248	green	brown	1	10	ml	2.7.3	lorasick	sub-11_ses-01_task-ml_proj-lorasick_2021-02-23-14-11-26.323975
279	11	1	6	280	volatile	4	40	40	sv	green	brown	brown	green	right	left	0.30000000000000004	0.7	2	10	0.6000000000000001	7.0	0	1	0.7	0.30000000000000004	10	2	7.0	0.6000000000000001	valid	0.4332471320012701	51200	0	0	2	51200	1	51200	1	51200	1	0.7	51200	green	brown	1	10	ml	2.7.3	lorasick	sub-11_ses-01_task-ml_proj-lorasick_2021-02-23-14-11-26.323975
280	11	1	6	281	volatile	5	20	1	sv	green	brown	brown	green	right	left	0.7	0.30000000000000004	4	2	2.8	0.6000000000000001	1	0	0.30000000000000004	0.7	2	4	0.6000000000000001	2.8	valid	1.1163699629978507	51200	0	0	2	53248	0	53248	0	53248	0	0.7	53248	brown	green	1	0	ml	2.7.3	lorasick	sub-11_ses-01_task-ml_proj-lorasick_2021-02-23-14-11-26.323975
281	11	1	6	282	volatile	5	20	2	sv	brown	green	brown	green	left	right	0.7	0.30000000000000004	4	6	2.8	1.8000000000000005	1	0	0.7	0.30000000000000004	4	6	2.8	1.8000000000000005	valid	0.5998610690003261	53248	0	1	2	51200	0	51200	0	53248	1	0.7	51200	brown	green	0	0	ml	2.7.3	lorasick	sub-11_ses-01_task-ml_proj-lorasick_2021-02-23-14-11-26.323975
